participant_id,age,gender,locale,localeOrder,trialN,set_size,targetPos,targetColor,rt,answer,correct,display_device_name,display_res_x,display_res_y,display_refresh_rate,response_device_name,display_distance,block_id,trial_id,trial_n,target_pos_x,target_pos_y,target_color_hsv
1,25,f,Response box,2,1,2,0,360,510,2,1,19-in. Acer V193,1280,1024,60,Cedrus RB-830,400,1,1,1,-7.5,0,"HSV 360,1,1"
1,25,f,Response box,2,2,2,1,360,371,5,1,19-in. Acer V193,1280,1024,60,Cedrus RB-830,400,1,2,2,-4.5,0,"HSV 360,1,1"
1,25,f,Response box,2,3,2,0,360,284,2,1,19-in. Acer V193,1280,1024,60,Cedrus RB-830,400,1,3,3,-7.5,0,"HSV 360,1,1"
1,25,f,Response box,2,4,2,1,360,217,5,1,19-in. Acer V193,1280,1024,60,Cedrus RB-830,400,1,4,4,-4.5,0,"HSV 360,1,1"
1,25,f,Response box,2,5,2,1,360,235,2,0,19-in. Acer V193,1280,1024,60,Cedrus RB-830,400,1,5,5,-4.5,0,"HSV 360,1,1"
1,25,f,Response box,2,6,2,0,360,315,2,1,19-in. Acer V193,1280,1024,60,Cedrus RB-830,400,1,6,6,-7.5,0,"HSV 360,1,1"
1,25,f,Response box,2,7,2,0,360,307,2,1,19-in. Acer V193,1280,1024,60,Cedrus RB-830,400,1,7,7,-7.5,0,"HSV 360,1,1"
1,25,f,Response box,2,8,2,1,360,266,5,1,19-in. Acer V193,1280,1024,60,Cedrus RB-830,400,1,8,8,-4.5,0,"HSV 360,1,1"
1,25,f,Response box,2,9,2,1,360,287,5,1,19-in. Acer V193,1280,1024,60,Cedrus RB-830,400,1,9,9,-4.5,0,"HSV 360,1,1"
1,25,f,Response box,2,10,2,0,360,310,2,1,19-in. Acer V193,1280,1024,60,Cedrus RB-830,400,1,10,10,-7.5,0,"HSV 360,1,1"
1,25,f,Response box,2,11,2,0,360,335,2,1,19-in. Acer V193,1280,1024,60,Cedrus RB-830,400,1,11,11,-7.5,0,"HSV 360,1,1"
1,25,f,Response box,2,12,2,1,360,375,5,1,19-in. Acer V193,1280,1024,60,Cedrus RB-830,400,1,12,12,-4.5,0,"HSV 360,1,1"
1,25,f,Response box,2,13,2,1,360,288,5,1,19-in. Acer V193,1280,1024,60,Cedrus RB-830,400,1,13,13,-4.5,0,"HSV 360,1,1"
1,25,f,Response box,2,14,2,0,360,274,2,1,19-in. Acer V193,1280,1024,60,Cedrus RB-830,400,1,14,14,-7.5,0,"HSV 360,1,1"
1,25,f,Response box,2,15,2,1,360,235,5,1,19-in. Acer V193,1280,1024,60,Cedrus RB-830,400,1,15,15,-4.5,0,"HSV 360,1,1"
1,25,f,Response box,2,16,2,0,360,251,2,1,19-in. Acer V193,1280,1024,60,Cedrus RB-830,400,1,16,16,-7.5,0,"HSV 360,1,1"
1,25,f,Response box,2,17,2,1,360,279,5,1,19-in. Acer V193,1280,1024,60,Cedrus RB-830,400,1,17,17,-4.5,0,"HSV 360,1,1"
1,25,f,Response box,2,18,2,0,360,231,2,1,19-in. Acer V193,1280,1024,60,Cedrus RB-830,400,1,18,18,-7.5,0,"HSV 360,1,1"
1,25,f,Response box,2,19,2,1,360,199,5,1,19-in. Acer V193,1280,1024,60,Cedrus RB-830,400,1,19,19,-4.5,0,"HSV 360,1,1"
1,25,f,Response box,2,20,2,0,360,240,2,1,19-in. Acer V193,1280,1024,60,Cedrus RB-830,400,1,20,20,-7.5,0,"HSV 360,1,1"
1,25,f,Response box,2,21,2,0,360,368,2,1,19-in. Acer V193,1280,1024,60,Cedrus RB-830,400,1,21,21,-7.5,0,"HSV 360,1,1"
1,25,f,Response box,2,22,2,1,360,243,5,1,19-in. Acer V193,1280,1024,60,Cedrus RB-830,400,1,22,22,-4.5,0,"HSV 360,1,1"
1,25,f,Response box,2,23,2,1,360,287,5,1,19-in. Acer V193,1280,1024,60,Cedrus RB-830,400,1,23,23,-4.5,0,"HSV 360,1,1"
1,25,f,Response box,2,24,2,0,360,247,2,1,19-in. Acer V193,1280,1024,60,Cedrus RB-830,400,1,24,24,-7.5,0,"HSV 360,1,1"
1,25,f,Response box,2,25,2,1,300,309,5,1,19-in. Acer V193,1280,1024,60,Cedrus RB-830,400,2,25,1,-4.5,0,"HSV 300,1,1"
1,25,f,Response box,2,26,2,0,300,265,2,1,19-in. Acer V193,1280,1024,60,Cedrus RB-830,400,2,26,2,-7.5,0,"HSV 300,1,1"
1,25,f,Response box,2,27,2,0,300,277,2,1,19-in. Acer V193,1280,1024,60,Cedrus RB-830,400,2,27,3,-7.5,0,"HSV 300,1,1"
1,25,f,Response box,2,28,2,1,300,252,5,1,19-in. Acer V193,1280,1024,60,Cedrus RB-830,400,2,28,4,-4.5,0,"HSV 300,1,1"
1,25,f,Response box,2,29,2,0,300,271,2,1,19-in. Acer V193,1280,1024,60,Cedrus RB-830,400,2,29,5,-7.5,0,"HSV 300,1,1"
1,25,f,Response box,2,30,2,1,300,240,5,1,19-in. Acer V193,1280,1024,60,Cedrus RB-830,400,2,30,6,-4.5,0,"HSV 300,1,1"
1,25,f,Response box,2,31,2,1,300,286,5,1,19-in. Acer V193,1280,1024,60,Cedrus RB-830,400,2,31,7,-4.5,0,"HSV 300,1,1"
1,25,f,Response box,2,32,2,0,300,262,2,1,19-in. Acer V193,1280,1024,60,Cedrus RB-830,400,2,32,8,-7.5,0,"HSV 300,1,1"
1,25,f,Response box,2,33,2,1,300,270,5,1,19-in. Acer V193,1280,1024,60,Cedrus RB-830,400,2,33,9,-4.5,0,"HSV 300,1,1"
1,25,f,Response box,2,34,2,0,300,262,2,1,19-in. Acer V193,1280,1024,60,Cedrus RB-830,400,2,34,10,-7.5,0,"HSV 300,1,1"
1,25,f,Response box,2,35,2,1,300,291,5,1,19-in. Acer V193,1280,1024,60,Cedrus RB-830,400,2,35,11,-4.5,0,"HSV 300,1,1"
1,25,f,Response box,2,36,2,0,300,229,2,1,19-in. Acer V193,1280,1024,60,Cedrus RB-830,400,2,36,12,-7.5,0,"HSV 300,1,1"
1,25,f,Response box,2,37,2,1,300,228,5,1,19-in. Acer V193,1280,1024,60,Cedrus RB-830,400,2,37,13,-4.5,0,"HSV 300,1,1"
1,25,f,Response box,2,38,2,0,300,233,2,1,19-in. Acer V193,1280,1024,60,Cedrus RB-830,400,2,38,14,-7.5,0,"HSV 300,1,1"
1,25,f,Response box,2,39,2,1,300,235,5,1,19-in. Acer V193,1280,1024,60,Cedrus RB-830,400,2,39,15,-4.5,0,"HSV 300,1,1"
1,25,f,Response box,2,40,2,0,300,227,2,1,19-in. Acer V193,1280,1024,60,Cedrus RB-830,400,2,40,16,-7.5,0,"HSV 300,1,1"
1,25,f,Response box,2,41,2,1,300,211,5,1,19-in. Acer V193,1280,1024,60,Cedrus RB-830,400,2,41,17,-4.5,0,"HSV 300,1,1"
1,25,f,Response box,2,42,2,0,300,218,2,1,19-in. Acer V193,1280,1024,60,Cedrus RB-830,400,2,42,18,-7.5,0,"HSV 300,1,1"
1,25,f,Response box,2,43,2,0,300,410,2,1,19-in. Acer V193,1280,1024,60,Cedrus RB-830,400,2,43,19,-7.5,0,"HSV 300,1,1"
1,25,f,Response box,2,44,2,1,300,242,5,1,19-in. Acer V193,1280,1024,60,Cedrus RB-830,400,2,44,20,-4.5,0,"HSV 300,1,1"
1,25,f,Response box,2,45,2,0,300,272,2,1,19-in. Acer V193,1280,1024,60,Cedrus RB-830,400,2,45,21,-7.5,0,"HSV 300,1,1"
1,25,f,Response box,2,46,2,1,300,250,5,1,19-in. Acer V193,1280,1024,60,Cedrus RB-830,400,2,46,22,-4.5,0,"HSV 300,1,1"
1,25,f,Response box,2,47,2,1,300,304,5,1,19-in. Acer V193,1280,1024,60,Cedrus RB-830,400,2,47,23,-4.5,0,"HSV 300,1,1"
1,25,f,Response box,2,48,2,0,300,235,2,1,19-in. Acer V193,1280,1024,60,Cedrus RB-830,400,2,48,24,-7.5,0,"HSV 300,1,1"
1,25,f,Response box,2,49,2,0,120,298,2,1,19-in. Acer V193,1280,1024,60,Cedrus RB-830,400,3,49,1,-7.5,0,"HSV 120,1,1"
1,25,f,Response box,2,50,2,1,120,253,5,1,19-in. Acer V193,1280,1024,60,Cedrus RB-830,400,3,50,2,-4.5,0,"HSV 120,1,1"
1,25,f,Response box,2,51,2,0,120,236,2,1,19-in. Acer V193,1280,1024,60,Cedrus RB-830,400,3,51,3,-7.5,0,"HSV 120,1,1"
1,25,f,Response box,2,52,2,1,120,231,5,1,19-in. Acer V193,1280,1024,60,Cedrus RB-830,400,3,52,4,-4.5,0,"HSV 120,1,1"
1,25,f,Response box,2,53,2,0,120,268,2,1,19-in. Acer V193,1280,1024,60,Cedrus RB-830,400,3,53,5,-7.5,0,"HSV 120,1,1"
1,25,f,Response box,2,54,2,1,120,277,5,1,19-in. Acer V193,1280,1024,60,Cedrus RB-830,400,3,54,6,-4.5,0,"HSV 120,1,1"
1,25,f,Response box,2,55,2,0,120,234,2,1,19-in. Acer V193,1280,1024,60,Cedrus RB-830,400,3,55,7,-7.5,0,"HSV 120,1,1"
1,25,f,Response box,2,56,2,1,120,245,5,1,19-in. Acer V193,1280,1024,60,Cedrus RB-830,400,3,56,8,-4.5,0,"HSV 120,1,1"
1,25,f,Response box,2,57,2,0,120,225,2,1,19-in. Acer V193,1280,1024,60,Cedrus RB-830,400,3,57,9,-7.5,0,"HSV 120,1,1"
1,25,f,Response box,2,58,2,1,120,244,5,1,19-in. Acer V193,1280,1024,60,Cedrus RB-830,400,3,58,10,-4.5,0,"HSV 120,1,1"
1,25,f,Response box,2,59,2,1,120,324,5,1,19-in. Acer V193,1280,1024,60,Cedrus RB-830,400,3,59,11,-4.5,0,"HSV 120,1,1"
1,25,f,Response box,2,60,2,0,120,253,2,1,19-in. Acer V193,1280,1024,60,Cedrus RB-830,400,3,60,12,-7.5,0,"HSV 120,1,1"
1,25,f,Response box,2,61,2,0,120,299,2,1,19-in. Acer V193,1280,1024,60,Cedrus RB-830,400,3,61,13,-7.5,0,"HSV 120,1,1"
1,25,f,Response box,2,62,2,1,120,215,5,1,19-in. Acer V193,1280,1024,60,Cedrus RB-830,400,3,62,14,-4.5,0,"HSV 120,1,1"
1,25,f,Response box,2,63,2,1,120,259,5,1,19-in. Acer V193,1280,1024,60,Cedrus RB-830,400,3,63,15,-4.5,0,"HSV 120,1,1"
1,25,f,Response box,2,64,2,0,120,199,2,1,19-in. Acer V193,1280,1024,60,Cedrus RB-830,400,3,64,16,-7.5,0,"HSV 120,1,1"
1,25,f,Response box,2,65,2,0,120,313,2,1,19-in. Acer V193,1280,1024,60,Cedrus RB-830,400,3,65,17,-7.5,0,"HSV 120,1,1"
1,25,f,Response box,2,66,2,1,120,229,5,1,19-in. Acer V193,1280,1024,60,Cedrus RB-830,400,3,66,18,-4.5,0,"HSV 120,1,1"
1,25,f,Response box,2,67,2,0,120,272,2,1,19-in. Acer V193,1280,1024,60,Cedrus RB-830,400,3,67,19,-7.5,0,"HSV 120,1,1"
1,25,f,Response box,2,68,2,1,120,231,5,1,19-in. Acer V193,1280,1024,60,Cedrus RB-830,400,3,68,20,-4.5,0,"HSV 120,1,1"
1,25,f,Response box,2,69,2,0,120,232,2,1,19-in. Acer V193,1280,1024,60,Cedrus RB-830,400,3,69,21,-7.5,0,"HSV 120,1,1"
1,25,f,Response box,2,70,2,1,120,457,2,0,19-in. Acer V193,1280,1024,60,Cedrus RB-830,400,3,70,22,-4.5,0,"HSV 120,1,1"
1,25,f,Response box,2,71,2,1,120,306,5,1,19-in. Acer V193,1280,1024,60,Cedrus RB-830,400,3,71,23,-4.5,0,"HSV 120,1,1"
1,25,f,Response box,2,72,2,0,120,248,2,1,19-in. Acer V193,1280,1024,60,Cedrus RB-830,400,3,72,24,-7.5,0,"HSV 120,1,1"
1,25,f,Response box,2,73,2,1,60,276,5,1,19-in. Acer V193,1280,1024,60,Cedrus RB-830,400,4,73,1,-4.5,0,"HSV 60,1,1"
1,25,f,Response box,2,74,2,0,60,243,2,1,19-in. Acer V193,1280,1024,60,Cedrus RB-830,400,4,74,2,-7.5,0,"HSV 60,1,1"
1,25,f,Response box,2,75,2,1,60,258,5,1,19-in. Acer V193,1280,1024,60,Cedrus RB-830,400,4,75,3,-4.5,0,"HSV 60,1,1"
1,25,f,Response box,2,76,2,0,60,263,2,1,19-in. Acer V193,1280,1024,60,Cedrus RB-830,400,4,76,4,-7.5,0,"HSV 60,1,1"
1,25,f,Response box,2,77,2,1,60,238,5,1,19-in. Acer V193,1280,1024,60,Cedrus RB-830,400,4,77,5,-4.5,0,"HSV 60,1,1"
1,25,f,Response box,2,78,2,0,60,264,2,1,19-in. Acer V193,1280,1024,60,Cedrus RB-830,400,4,78,6,-7.5,0,"HSV 60,1,1"
1,25,f,Response box,2,79,2,0,60,301,2,1,19-in. Acer V193,1280,1024,60,Cedrus RB-830,400,4,79,7,-7.5,0,"HSV 60,1,1"
1,25,f,Response box,2,80,2,1,60,219,5,1,19-in. Acer V193,1280,1024,60,Cedrus RB-830,400,4,80,8,-4.5,0,"HSV 60,1,1"
1,25,f,Response box,2,81,2,0,60,270,2,1,19-in. Acer V193,1280,1024,60,Cedrus RB-830,400,4,81,9,-7.5,0,"HSV 60,1,1"
1,25,f,Response box,2,82,2,1,60,237,5,1,19-in. Acer V193,1280,1024,60,Cedrus RB-830,400,4,82,10,-4.5,0,"HSV 60,1,1"
1,25,f,Response box,2,83,2,0,60,259,2,1,19-in. Acer V193,1280,1024,60,Cedrus RB-830,400,4,83,11,-7.5,0,"HSV 60,1,1"
1,25,f,Response box,2,84,2,1,60,207,5,1,19-in. Acer V193,1280,1024,60,Cedrus RB-830,400,4,84,12,-4.5,0,"HSV 60,1,1"
1,25,f,Response box,2,85,2,1,60,194,2,0,19-in. Acer V193,1280,1024,60,Cedrus RB-830,400,4,85,13,-4.5,0,"HSV 60,1,1"
1,25,f,Response box,2,86,2,0,60,387,2,1,19-in. Acer V193,1280,1024,60,Cedrus RB-830,400,4,86,14,-7.5,0,"HSV 60,1,1"
1,25,f,Response box,2,87,2,1,60,1789,5,1,19-in. Acer V193,1280,1024,60,Cedrus RB-830,400,4,87,15,-4.5,0,"HSV 60,1,1"
1,25,f,Response box,2,88,2,0,60,448,2,1,19-in. Acer V193,1280,1024,60,Cedrus RB-830,400,4,88,16,-7.5,0,"HSV 60,1,1"
1,25,f,Response box,2,89,2,0,60,326,2,1,19-in. Acer V193,1280,1024,60,Cedrus RB-830,400,4,89,17,-7.5,0,"HSV 60,1,1"
1,25,f,Response box,2,90,2,1,60,244,5,1,19-in. Acer V193,1280,1024,60,Cedrus RB-830,400,4,90,18,-4.5,0,"HSV 60,1,1"
1,25,f,Response box,2,91,2,0,60,262,2,1,19-in. Acer V193,1280,1024,60,Cedrus RB-830,400,4,91,19,-7.5,0,"HSV 60,1,1"
1,25,f,Response box,2,92,2,1,60,282,5,1,19-in. Acer V193,1280,1024,60,Cedrus RB-830,400,4,92,20,-4.5,0,"HSV 60,1,1"
1,25,f,Response box,2,93,2,0,60,256,2,1,19-in. Acer V193,1280,1024,60,Cedrus RB-830,400,4,93,21,-7.5,0,"HSV 60,1,1"
1,25,f,Response box,2,94,2,1,60,266,5,1,19-in. Acer V193,1280,1024,60,Cedrus RB-830,400,4,94,22,-4.5,0,"HSV 60,1,1"
1,25,f,Response box,2,95,2,0,60,264,2,1,19-in. Acer V193,1280,1024,60,Cedrus RB-830,400,4,95,23,-7.5,0,"HSV 60,1,1"
1,25,f,Response box,2,96,2,1,60,232,5,1,19-in. Acer V193,1280,1024,60,Cedrus RB-830,400,4,96,24,-4.5,0,"HSV 60,1,1"
1,25,f,Response box,2,97,2,0,180,297,2,1,19-in. Acer V193,1280,1024,60,Cedrus RB-830,400,5,97,1,-7.5,0,"HSV 180,1,1"
1,25,f,Response box,2,98,2,1,180,290,5,1,19-in. Acer V193,1280,1024,60,Cedrus RB-830,400,5,98,2,-4.5,0,"HSV 180,1,1"
1,25,f,Response box,2,99,2,1,180,248,5,1,19-in. Acer V193,1280,1024,60,Cedrus RB-830,400,5,99,3,-4.5,0,"HSV 180,1,1"
1,25,f,Response box,2,100,2,0,180,276,2,1,19-in. Acer V193,1280,1024,60,Cedrus RB-830,400,5,100,4,-7.5,0,"HSV 180,1,1"
1,25,f,Response box,2,101,2,1,180,228,5,1,19-in. Acer V193,1280,1024,60,Cedrus RB-830,400,5,101,5,-4.5,0,"HSV 180,1,1"
1,25,f,Response box,2,102,2,0,180,310,2,1,19-in. Acer V193,1280,1024,60,Cedrus RB-830,400,5,102,6,-7.5,0,"HSV 180,1,1"
1,25,f,Response box,2,103,2,1,180,213,5,1,19-in. Acer V193,1280,1024,60,Cedrus RB-830,400,5,103,7,-4.5,0,"HSV 180,1,1"
1,25,f,Response box,2,104,2,0,180,227,2,1,19-in. Acer V193,1280,1024,60,Cedrus RB-830,400,5,104,8,-7.5,0,"HSV 180,1,1"
1,25,f,Response box,2,105,2,1,180,219,5,1,19-in. Acer V193,1280,1024,60,Cedrus RB-830,400,5,105,9,-4.5,0,"HSV 180,1,1"
1,25,f,Response box,2,106,2,0,180,223,2,1,19-in. Acer V193,1280,1024,60,Cedrus RB-830,400,5,106,10,-7.5,0,"HSV 180,1,1"
1,25,f,Response box,2,107,2,1,180,230,5,1,19-in. Acer V193,1280,1024,60,Cedrus RB-830,400,5,107,11,-4.5,0,"HSV 180,1,1"
1,25,f,Response box,2,108,2,0,180,258,2,1,19-in. Acer V193,1280,1024,60,Cedrus RB-830,400,5,108,12,-7.5,0,"HSV 180,1,1"
1,25,f,Response box,2,109,2,0,180,267,2,1,19-in. Acer V193,1280,1024,60,Cedrus RB-830,400,5,109,13,-7.5,0,"HSV 180,1,1"
1,25,f,Response box,2,110,2,1,180,249,5,1,19-in. Acer V193,1280,1024,60,Cedrus RB-830,400,5,110,14,-4.5,0,"HSV 180,1,1"
1,25,f,Response box,2,111,2,0,180,246,2,1,19-in. Acer V193,1280,1024,60,Cedrus RB-830,400,5,111,15,-7.5,0,"HSV 180,1,1"
1,25,f,Response box,2,112,2,1,180,255,5,1,19-in. Acer V193,1280,1024,60,Cedrus RB-830,400,5,112,16,-4.5,0,"HSV 180,1,1"
1,25,f,Response box,2,113,2,1,180,275,5,1,19-in. Acer V193,1280,1024,60,Cedrus RB-830,400,5,113,17,-4.5,0,"HSV 180,1,1"
1,25,f,Response box,2,114,2,0,180,221,2,1,19-in. Acer V193,1280,1024,60,Cedrus RB-830,400,5,114,18,-7.5,0,"HSV 180,1,1"
1,25,f,Response box,2,115,2,1,180,280,5,1,19-in. Acer V193,1280,1024,60,Cedrus RB-830,400,5,115,19,-4.5,0,"HSV 180,1,1"
1,25,f,Response box,2,116,2,0,180,293,2,1,19-in. Acer V193,1280,1024,60,Cedrus RB-830,400,5,116,20,-7.5,0,"HSV 180,1,1"
1,25,f,Response box,2,117,2,1,180,218,5,1,19-in. Acer V193,1280,1024,60,Cedrus RB-830,400,5,117,21,-4.5,0,"HSV 180,1,1"
1,25,f,Response box,2,118,2,0,180,301,2,1,19-in. Acer V193,1280,1024,60,Cedrus RB-830,400,5,118,22,-7.5,0,"HSV 180,1,1"
1,25,f,Response box,2,119,2,1,180,209,5,1,19-in. Acer V193,1280,1024,60,Cedrus RB-830,400,5,119,23,-4.5,0,"HSV 180,1,1"
1,25,f,Response box,2,120,2,0,180,260,2,1,19-in. Acer V193,1280,1024,60,Cedrus RB-830,400,5,120,24,-7.5,0,"HSV 180,1,1"
1,25,f,Response box,2,121,2,1,240,324,5,1,19-in. Acer V193,1280,1024,60,Cedrus RB-830,400,6,121,1,-4.5,0,"HSV 240,1,1"
1,25,f,Response box,2,122,2,0,240,254,2,1,19-in. Acer V193,1280,1024,60,Cedrus RB-830,400,6,122,2,-7.5,0,"HSV 240,1,1"
1,25,f,Response box,2,123,2,0,240,296,2,1,19-in. Acer V193,1280,1024,60,Cedrus RB-830,400,6,123,3,-7.5,0,"HSV 240,1,1"
1,25,f,Response box,2,124,2,1,240,237,5,1,19-in. Acer V193,1280,1024,60,Cedrus RB-830,400,6,124,4,-4.5,0,"HSV 240,1,1"
1,25,f,Response box,2,125,2,0,240,234,2,1,19-in. Acer V193,1280,1024,60,Cedrus RB-830,400,6,125,5,-7.5,0,"HSV 240,1,1"
1,25,f,Response box,2,126,2,1,240,220,5,1,19-in. Acer V193,1280,1024,60,Cedrus RB-830,400,6,126,6,-4.5,0,"HSV 240,1,1"
1,25,f,Response box,2,127,2,0,240,229,2,1,19-in. Acer V193,1280,1024,60,Cedrus RB-830,400,6,127,7,-7.5,0,"HSV 240,1,1"
1,25,f,Response box,2,128,2,1,240,246,5,1,19-in. Acer V193,1280,1024,60,Cedrus RB-830,400,6,128,8,-4.5,0,"HSV 240,1,1"
1,25,f,Response box,2,129,2,0,240,233,2,1,19-in. Acer V193,1280,1024,60,Cedrus RB-830,400,6,129,9,-7.5,0,"HSV 240,1,1"
1,25,f,Response box,2,130,2,1,240,197,5,1,19-in. Acer V193,1280,1024,60,Cedrus RB-830,400,6,130,10,-4.5,0,"HSV 240,1,1"
1,25,f,Response box,2,131,2,0,240,234,2,1,19-in. Acer V193,1280,1024,60,Cedrus RB-830,400,6,131,11,-7.5,0,"HSV 240,1,1"
1,25,f,Response box,2,132,2,1,240,221,5,1,19-in. Acer V193,1280,1024,60,Cedrus RB-830,400,6,132,12,-4.5,0,"HSV 240,1,1"
1,25,f,Response box,2,133,2,1,240,329,5,1,19-in. Acer V193,1280,1024,60,Cedrus RB-830,400,6,133,13,-4.5,0,"HSV 240,1,1"
1,25,f,Response box,2,134,2,0,240,254,2,1,19-in. Acer V193,1280,1024,60,Cedrus RB-830,400,6,134,14,-7.5,0,"HSV 240,1,1"
1,25,f,Response box,2,135,2,1,240,238,5,1,19-in. Acer V193,1280,1024,60,Cedrus RB-830,400,6,135,15,-4.5,0,"HSV 240,1,1"
1,25,f,Response box,2,136,2,0,240,212,2,1,19-in. Acer V193,1280,1024,60,Cedrus RB-830,400,6,136,16,-7.5,0,"HSV 240,1,1"
1,25,f,Response box,2,137,2,1,240,216,5,1,19-in. Acer V193,1280,1024,60,Cedrus RB-830,400,6,137,17,-4.5,0,"HSV 240,1,1"
1,25,f,Response box,2,138,2,0,240,228,2,1,19-in. Acer V193,1280,1024,60,Cedrus RB-830,400,6,138,18,-7.5,0,"HSV 240,1,1"
1,25,f,Response box,2,139,2,1,240,241,5,1,19-in. Acer V193,1280,1024,60,Cedrus RB-830,400,6,139,19,-4.5,0,"HSV 240,1,1"
1,25,f,Response box,2,140,2,0,240,200,2,1,19-in. Acer V193,1280,1024,60,Cedrus RB-830,400,6,140,20,-7.5,0,"HSV 240,1,1"
1,25,f,Response box,2,141,2,0,240,51,5,0,19-in. Acer V193,1280,1024,60,Cedrus RB-830,400,6,141,21,-7.5,0,"HSV 240,1,1"
1,25,f,Response box,2,142,2,1,240,251,5,1,19-in. Acer V193,1280,1024,60,Cedrus RB-830,400,6,142,22,-4.5,0,"HSV 240,1,1"
1,25,f,Response box,2,143,2,1,240,272,5,1,19-in. Acer V193,1280,1024,60,Cedrus RB-830,400,6,143,23,-4.5,0,"HSV 240,1,1"
1,25,f,Response box,2,144,2,0,240,261,2,1,19-in. Acer V193,1280,1024,60,Cedrus RB-830,400,6,144,24,-7.5,0,"HSV 240,1,1"
1,25,f,Web from home,3,1,2,1,300,965,h,1,,,,,,,7,145,1,-4.5,0,"HSV 300,1,1"
1,25,f,Web from home,3,2,2,0,300,500,d,1,,,,,,,7,146,2,-7.5,0,"HSV 300,1,1"
1,25,f,Web from home,3,3,2,1,300,402,h,1,,,,,,,7,147,3,-4.5,0,"HSV 300,1,1"
1,25,f,Web from home,3,4,2,0,300,393,d,1,,,,,,,7,148,4,-7.5,0,"HSV 300,1,1"
1,25,f,Web from home,3,5,2,0,300,536,d,1,,,,,,,7,149,5,-7.5,0,"HSV 300,1,1"
1,25,f,Web from home,3,6,2,1,300,356,h,1,,,,,,,7,150,6,-4.5,0,"HSV 300,1,1"
1,25,f,Web from home,3,7,2,1,300,414,h,1,,,,,,,7,151,7,-4.5,0,"HSV 300,1,1"
1,25,f,Web from home,3,8,2,0,300,418,d,1,,,,,,,7,152,8,-7.5,0,"HSV 300,1,1"
1,25,f,Web from home,3,9,2,0,300,487,d,1,,,,,,,7,153,9,-7.5,0,"HSV 300,1,1"
1,25,f,Web from home,3,10,2,1,300,368,h,1,,,,,,,7,154,10,-4.5,0,"HSV 300,1,1"
1,25,f,Web from home,3,11,2,1,300,413,h,1,,,,,,,7,155,11,-4.5,0,"HSV 300,1,1"
1,25,f,Web from home,3,12,2,0,300,355,d,1,,,,,,,7,156,12,-7.5,0,"HSV 300,1,1"
1,25,f,Web from home,3,13,2,1,300,369,h,1,,,,,,,7,157,13,-4.5,0,"HSV 300,1,1"
1,25,f,Web from home,3,14,2,0,300,379,d,1,,,,,,,7,158,14,-7.5,0,"HSV 300,1,1"
1,25,f,Web from home,3,15,2,1,300,373,h,1,,,,,,,7,159,15,-4.5,0,"HSV 300,1,1"
1,25,f,Web from home,3,16,2,0,300,346,d,1,,,,,,,7,160,16,-7.5,0,"HSV 300,1,1"
1,25,f,Web from home,3,17,2,0,300,471,d,1,,,,,,,7,161,17,-7.5,0,"HSV 300,1,1"
1,25,f,Web from home,3,18,2,1,300,313,h,1,,,,,,,7,162,18,-4.5,0,"HSV 300,1,1"
1,25,f,Web from home,3,19,2,0,300,351,d,1,,,,,,,7,163,19,-7.5,0,"HSV 300,1,1"
1,25,f,Web from home,3,20,2,1,300,395,h,1,,,,,,,7,164,20,-4.5,0,"HSV 300,1,1"
1,25,f,Web from home,3,21,2,0,300,387,d,1,,,,,,,7,165,21,-7.5,0,"HSV 300,1,1"
1,25,f,Web from home,3,22,2,1,300,397,h,1,,,,,,,7,166,22,-4.5,0,"HSV 300,1,1"
1,25,f,Web from home,3,23,2,0,300,361,d,1,,,,,,,7,167,23,-7.5,0,"HSV 300,1,1"
1,25,f,Web from home,3,24,2,1,300,353,h,1,,,,,,,7,168,24,-4.5,0,"HSV 300,1,1"
1,25,f,Web from home,3,25,2,1,120,514,h,1,,,,,,,8,169,1,-4.5,0,"HSV 120,1,1"
1,25,f,Web from home,3,26,2,0,120,358,d,1,,,,,,,8,170,2,-7.5,0,"HSV 120,1,1"
1,25,f,Web from home,3,27,2,0,120,353,d,1,,,,,,,8,171,3,-7.5,0,"HSV 120,1,1"
1,25,f,Web from home,3,28,2,1,120,339,h,1,,,,,,,8,172,4,-4.5,0,"HSV 120,1,1"
1,25,f,Web from home,3,29,2,0,120,353,d,1,,,,,,,8,173,5,-7.5,0,"HSV 120,1,1"
1,25,f,Web from home,3,30,2,1,120,291,h,1,,,,,,,8,174,6,-4.5,0,"HSV 120,1,1"
1,25,f,Web from home,3,31,2,1,120,468,h,1,,,,,,,8,175,7,-4.5,0,"HSV 120,1,1"
1,25,f,Web from home,3,32,2,0,120,343,d,1,,,,,,,8,176,8,-7.5,0,"HSV 120,1,1"
1,25,f,Web from home,3,33,2,1,120,374,h,1,,,,,,,8,177,9,-4.5,0,"HSV 120,1,1"
1,25,f,Web from home,3,34,2,0,120,353,d,1,,,,,,,8,178,10,-7.5,0,"HSV 120,1,1"
1,25,f,Web from home,3,35,2,0,120,430,d,1,,,,,,,8,179,11,-7.5,0,"HSV 120,1,1"
1,25,f,Web from home,3,36,2,1,120,361,h,1,,,,,,,8,180,12,-4.5,0,"HSV 120,1,1"
1,25,f,Web from home,3,37,2,0,120,570,d,1,,,,,,,8,181,13,-7.5,0,"HSV 120,1,1"
1,25,f,Web from home,3,38,2,1,120,354,h,1,,,,,,,8,182,14,-4.5,0,"HSV 120,1,1"
1,25,f,Web from home,3,39,2,0,120,322,d,1,,,,,,,8,183,15,-7.5,0,"HSV 120,1,1"
1,25,f,Web from home,3,40,2,1,120,351,h,1,,,,,,,8,184,16,-4.5,0,"HSV 120,1,1"
1,25,f,Web from home,3,41,2,0,120,330,d,1,,,,,,,8,185,17,-7.5,0,"HSV 120,1,1"
1,25,f,Web from home,3,42,2,1,120,337,h,1,,,,,,,8,186,18,-4.5,0,"HSV 120,1,1"
1,25,f,Web from home,3,43,2,0,120,322,d,1,,,,,,,8,187,19,-7.5,0,"HSV 120,1,1"
1,25,f,Web from home,3,44,2,1,120,309,h,1,,,,,,,8,188,20,-4.5,0,"HSV 120,1,1"
1,25,f,Web from home,3,45,2,1,120,338,h,1,,,,,,,8,189,21,-4.5,0,"HSV 120,1,1"
1,25,f,Web from home,3,46,2,0,120,323,d,1,,,,,,,8,190,22,-7.5,0,"HSV 120,1,1"
1,25,f,Web from home,3,47,2,1,120,324,h,1,,,,,,,8,191,23,-4.5,0,"HSV 120,1,1"
1,25,f,Web from home,3,48,2,0,120,353,d,1,,,,,,,8,192,24,-7.5,0,"HSV 120,1,1"
1,25,f,Web from home,3,49,2,0,240,576,d,1,,,,,,,9,193,1,-7.5,0,"HSV 240,1,1"
1,25,f,Web from home,3,50,2,1,240,382,h,1,,,,,,,9,194,2,-4.5,0,"HSV 240,1,1"
1,25,f,Web from home,3,51,2,1,240,322,h,1,,,,,,,9,195,3,-4.5,0,"HSV 240,1,1"
1,25,f,Web from home,3,52,2,0,240,317,d,1,,,,,,,9,196,4,-7.5,0,"HSV 240,1,1"
1,25,f,Web from home,3,53,2,1,240,302,h,1,,,,,,,9,197,5,-4.5,0,"HSV 240,1,1"
1,25,f,Web from home,3,54,2,0,240,312,d,1,,,,,,,9,198,6,-7.5,0,"HSV 240,1,1"
1,25,f,Web from home,3,55,2,1,240,260,h,1,,,,,,,9,199,7,-4.5,0,"HSV 240,1,1"
1,25,f,Web from home,3,56,2,0,240,252,d,1,,,,,,,9,200,8,-7.5,0,"HSV 240,1,1"
1,25,f,Web from home,3,57,2,0,240,303,h,0,,,,,,,9,201,9,-7.5,0,"HSV 240,1,1"
1,25,f,Web from home,3,58,2,1,240,362,h,1,,,,,,,9,202,10,-4.5,0,"HSV 240,1,1"
1,25,f,Web from home,3,59,2,0,240,323,d,1,,,,,,,9,203,11,-7.5,0,"HSV 240,1,1"
1,25,f,Web from home,3,60,2,1,240,303,h,1,,,,,,,9,204,12,-4.5,0,"HSV 240,1,1"
1,25,f,Web from home,3,61,2,0,240,323,d,1,,,,,,,9,205,13,-7.5,0,"HSV 240,1,1"
1,25,f,Web from home,3,62,2,1,240,353,h,1,,,,,,,9,206,14,-4.5,0,"HSV 240,1,1"
1,25,f,Web from home,3,63,2,0,240,298,d,1,,,,,,,9,207,15,-7.5,0,"HSV 240,1,1"
1,25,f,Web from home,3,64,2,1,240,310,h,1,,,,,,,9,208,16,-4.5,0,"HSV 240,1,1"
1,25,f,Web from home,3,65,2,1,240,506,h,1,,,,,,,9,209,17,-4.5,0,"HSV 240,1,1"
1,25,f,Web from home,3,66,2,0,240,354,d,1,,,,,,,9,210,18,-7.5,0,"HSV 240,1,1"
1,25,f,Web from home,3,67,2,1,240,351,h,1,,,,,,,9,211,19,-4.5,0,"HSV 240,1,1"
1,25,f,Web from home,3,68,2,0,240,375,d,1,,,,,,,9,212,20,-7.5,0,"HSV 240,1,1"
1,25,f,Web from home,3,69,2,0,240,445,d,1,,,,,,,9,213,21,-7.5,0,"HSV 240,1,1"
1,25,f,Web from home,3,70,2,1,240,319,h,1,,,,,,,9,214,22,-4.5,0,"HSV 240,1,1"
1,25,f,Web from home,3,71,2,0,240,329,d,1,,,,,,,9,215,23,-7.5,0,"HSV 240,1,1"
1,25,f,Web from home,3,72,2,1,240,319,h,1,,,,,,,9,216,24,-4.5,0,"HSV 240,1,1"
1,25,f,Web from home,3,73,2,0,60,502,d,1,,,,,,,10,217,1,-7.5,0,"HSV 60,1,1"
1,25,f,Web from home,3,74,2,1,60,369,h,1,,,,,,,10,218,2,-4.5,0,"HSV 60,1,1"
1,25,f,Web from home,3,75,2,0,60,271,d,1,,,,,,,10,219,3,-7.5,0,"HSV 60,1,1"
1,25,f,Web from home,3,76,2,1,60,297,h,1,,,,,,,10,220,4,-4.5,0,"HSV 60,1,1"
1,25,f,Web from home,3,77,2,0,60,269,d,1,,,,,,,10,221,5,-7.5,0,"HSV 60,1,1"
1,25,f,Web from home,3,78,2,1,60,265,h,1,,,,,,,10,222,6,-4.5,0,"HSV 60,1,1"
1,25,f,Web from home,3,79,2,1,60,384,h,1,,,,,,,10,223,7,-4.5,0,"HSV 60,1,1"
1,25,f,Web from home,3,80,2,0,60,355,d,1,,,,,,,10,224,8,-7.5,0,"HSV 60,1,1"
1,25,f,Web from home,3,81,2,1,60,282,h,1,,,,,,,10,225,9,-4.5,0,"HSV 60,1,1"
1,25,f,Web from home,3,82,2,0,60,351,d,1,,,,,,,10,226,10,-7.5,0,"HSV 60,1,1"
1,25,f,Web from home,3,83,2,0,60,406,d,1,,,,,,,10,227,11,-7.5,0,"HSV 60,1,1"
1,25,f,Web from home,3,84,2,1,60,312,h,1,,,,,,,10,228,12,-4.5,0,"HSV 60,1,1"
1,25,f,Web from home,3,85,2,1,60,362,h,1,,,,,,,10,229,13,-4.5,0,"HSV 60,1,1"
1,25,f,Web from home,3,86,2,0,60,324,d,1,,,,,,,10,230,14,-7.5,0,"HSV 60,1,1"
1,25,f,Web from home,3,87,2,0,60,369,d,1,,,,,,,10,231,15,-7.5,0,"HSV 60,1,1"
1,25,f,Web from home,3,88,2,1,60,312,h,1,,,,,,,10,232,16,-4.5,0,"HSV 60,1,1"
1,25,f,Web from home,3,89,2,0,60,364,d,1,,,,,,,10,233,17,-7.5,0,"HSV 60,1,1"
1,25,f,Web from home,3,90,2,1,60,254,h,1,,,,,,,10,234,18,-4.5,0,"HSV 60,1,1"
1,25,f,Web from home,3,91,2,1,60,353,h,1,,,,,,,10,235,19,-4.5,0,"HSV 60,1,1"
1,25,f,Web from home,3,92,2,0,60,329,h,0,,,,,,,10,236,20,-7.5,0,"HSV 60,1,1"
1,25,f,Web from home,3,93,2,1,60,403,h,1,,,,,,,10,237,21,-4.5,0,"HSV 60,1,1"
1,25,f,Web from home,3,94,2,0,60,281,d,1,,,,,,,10,238,22,-7.5,0,"HSV 60,1,1"
1,25,f,Web from home,3,95,2,0,60,384,d,1,,,,,,,10,239,23,-7.5,0,"HSV 60,1,1"
1,25,f,Web from home,3,96,2,1,60,345,h,1,,,,,,,10,240,24,-4.5,0,"HSV 60,1,1"
1,25,f,Web from home,3,97,2,1,360,510,h,1,,,,,,,11,241,1,-4.5,0,"HSV 360,1,1"
1,25,f,Web from home,3,98,2,0,360,334,d,1,,,,,,,11,242,2,-7.5,0,"HSV 360,1,1"
1,25,f,Web from home,3,99,2,0,360,318,d,1,,,,,,,11,243,3,-7.5,0,"HSV 360,1,1"
1,25,f,Web from home,3,100,2,1,360,378,h,1,,,,,,,11,244,4,-4.5,0,"HSV 360,1,1"
1,25,f,Web from home,3,101,2,1,360,322,h,1,,,,,,,11,245,5,-4.5,0,"HSV 360,1,1"
1,25,f,Web from home,3,102,2,0,360,314,d,1,,,,,,,11,246,6,-7.5,0,"HSV 360,1,1"
1,25,f,Web from home,3,103,2,1,360,373,h,1,,,,,,,11,247,7,-4.5,0,"HSV 360,1,1"
1,25,f,Web from home,3,104,2,0,360,357,d,1,,,,,,,11,248,8,-7.5,0,"HSV 360,1,1"
1,25,f,Web from home,3,105,2,1,360,370,d,0,,,,,,,11,249,9,-4.5,0,"HSV 360,1,1"
1,25,f,Web from home,3,106,2,0,360,412,d,1,,,,,,,11,250,10,-7.5,0,"HSV 360,1,1"
1,25,f,Web from home,3,107,2,0,360,298,h,0,,,,,,,11,251,11,-7.5,0,"HSV 360,1,1"
1,25,f,Web from home,3,108,2,1,360,378,h,1,,,,,,,11,252,12,-4.5,0,"HSV 360,1,1"
1,25,f,Web from home,3,109,2,0,360,329,d,1,,,,,,,11,253,13,-7.5,0,"HSV 360,1,1"
1,25,f,Web from home,3,110,2,1,360,338,h,1,,,,,,,11,254,14,-4.5,0,"HSV 360,1,1"
1,25,f,Web from home,3,111,2,0,360,358,d,1,,,,,,,11,255,15,-7.5,0,"HSV 360,1,1"
1,25,f,Web from home,3,112,2,1,360,375,h,1,,,,,,,11,256,16,-4.5,0,"HSV 360,1,1"
1,25,f,Web from home,3,113,2,0,360,334,d,1,,,,,,,11,257,17,-7.5,0,"HSV 360,1,1"
1,25,f,Web from home,3,114,2,1,360,400,h,1,,,,,,,11,258,18,-4.5,0,"HSV 360,1,1"
1,25,f,Web from home,3,115,2,0,360,364,d,1,,,,,,,11,259,19,-7.5,0,"HSV 360,1,1"
1,25,f,Web from home,3,116,2,1,360,368,h,1,,,,,,,11,260,20,-4.5,0,"HSV 360,1,1"
1,25,f,Web from home,3,117,2,0,360,486,d,1,,,,,,,11,261,21,-7.5,0,"HSV 360,1,1"
1,25,f,Web from home,3,118,2,1,360,338,h,1,,,,,,,11,262,22,-4.5,0,"HSV 360,1,1"
1,25,f,Web from home,3,119,2,0,360,382,d,1,,,,,,,11,263,23,-7.5,0,"HSV 360,1,1"
1,25,f,Web from home,3,120,2,1,360,342,h,1,,,,,,,11,264,24,-4.5,0,"HSV 360,1,1"
1,25,f,Web from home,3,121,2,0,180,666,d,1,,,,,,,12,265,1,-7.5,0,"HSV 180,1,1"
1,25,f,Web from home,3,122,2,1,180,308,h,1,,,,,,,12,266,2,-4.5,0,"HSV 180,1,1"
1,25,f,Web from home,3,123,2,1,180,373,h,1,,,,,,,12,267,3,-4.5,0,"HSV 180,1,1"
1,25,f,Web from home,3,124,2,0,180,317,d,1,,,,,,,12,268,4,-7.5,0,"HSV 180,1,1"
1,25,f,Web from home,3,125,2,0,180,442,d,1,,,,,,,12,269,5,-7.5,0,"HSV 180,1,1"
1,25,f,Web from home,3,126,2,1,180,288,h,1,,,,,,,12,270,6,-4.5,0,"HSV 180,1,1"
1,25,f,Web from home,3,127,2,1,180,434,h,1,,,,,,,12,271,7,-4.5,0,"HSV 180,1,1"
1,25,f,Web from home,3,128,2,0,180,418,d,1,,,,,,,12,272,8,-7.5,0,"HSV 180,1,1"
1,25,f,Web from home,3,129,2,0,180,390,d,1,,,,,,,12,273,9,-7.5,0,"HSV 180,1,1"
1,25,f,Web from home,3,130,2,1,180,355,h,1,,,,,,,12,274,10,-4.5,0,"HSV 180,1,1"
1,25,f,Web from home,3,131,2,0,180,357,d,1,,,,,,,12,275,11,-7.5,0,"HSV 180,1,1"
1,25,f,Web from home,3,132,2,1,180,294,h,1,,,,,,,12,276,12,-4.5,0,"HSV 180,1,1"
1,25,f,Web from home,3,133,2,0,180,337,d,1,,,,,,,12,277,13,-7.5,0,"HSV 180,1,1"
1,25,f,Web from home,3,134,2,1,180,323,h,1,,,,,,,12,278,14,-4.5,0,"HSV 180,1,1"
1,25,f,Web from home,3,135,2,1,180,399,h,1,,,,,,,12,279,15,-4.5,0,"HSV 180,1,1"
1,25,f,Web from home,3,136,2,0,180,363,d,1,,,,,,,12,280,16,-7.5,0,"HSV 180,1,1"
1,25,f,Web from home,3,137,2,1,180,341,h,1,,,,,,,12,281,17,-4.5,0,"HSV 180,1,1"
1,25,f,Web from home,3,138,2,0,180,328,d,1,,,,,,,12,282,18,-7.5,0,"HSV 180,1,1"
1,25,f,Web from home,3,139,2,1,180,323,h,1,,,,,,,12,283,19,-4.5,0,"HSV 180,1,1"
1,25,f,Web from home,3,140,2,0,180,319,d,1,,,,,,,12,284,20,-7.5,0,"HSV 180,1,1"
1,25,f,Web from home,3,141,2,0,180,328,h,0,,,,,,,12,285,21,-7.5,0,"HSV 180,1,1"
1,25,f,Web from home,3,142,2,1,180,365,h,1,,,,,,,12,286,22,-4.5,0,"HSV 180,1,1"
1,25,f,Web from home,3,143,2,0,180,319,d,1,,,,,,,12,287,23,-7.5,0,"HSV 180,1,1"
1,25,f,Web from home,3,144,2,1,180,348,h,1,,,,,,,12,288,24,-4.5,0,"HSV 180,1,1"
1,25,f,Keyboard,1,1,2,0,360,1553,d,1,19-in. Acer V193,1280,1024,60,Genius SlimStar 100 USB keyboard,400,13,289,1,-7.5,0,"HSV 360,1,1"
1,25,f,Keyboard,1,2,2,1,360,1039,h,1,19-in. Acer V193,1280,1024,60,Genius SlimStar 100 USB keyboard,400,13,290,2,-4.5,0,"HSV 360,1,1"
1,25,f,Keyboard,1,3,2,1,360,1109,d,0,19-in. Acer V193,1280,1024,60,Genius SlimStar 100 USB keyboard,400,13,291,3,-4.5,0,"HSV 360,1,1"
1,25,f,Keyboard,1,4,2,0,360,794,d,1,19-in. Acer V193,1280,1024,60,Genius SlimStar 100 USB keyboard,400,13,292,4,-7.5,0,"HSV 360,1,1"
1,25,f,Keyboard,1,5,2,0,360,543,d,1,19-in. Acer V193,1280,1024,60,Genius SlimStar 100 USB keyboard,400,13,293,5,-7.5,0,"HSV 360,1,1"
1,25,f,Keyboard,1,6,2,1,360,444,h,1,19-in. Acer V193,1280,1024,60,Genius SlimStar 100 USB keyboard,400,13,294,6,-4.5,0,"HSV 360,1,1"
1,25,f,Keyboard,1,7,2,0,360,409,d,1,19-in. Acer V193,1280,1024,60,Genius SlimStar 100 USB keyboard,400,13,295,7,-7.5,0,"HSV 360,1,1"
1,25,f,Keyboard,1,8,2,1,360,378,h,1,19-in. Acer V193,1280,1024,60,Genius SlimStar 100 USB keyboard,400,13,296,8,-4.5,0,"HSV 360,1,1"
1,25,f,Keyboard,1,9,2,0,360,352,d,1,19-in. Acer V193,1280,1024,60,Genius SlimStar 100 USB keyboard,400,13,297,9,-7.5,0,"HSV 360,1,1"
1,25,f,Keyboard,1,10,2,1,360,300,h,1,19-in. Acer V193,1280,1024,60,Genius SlimStar 100 USB keyboard,400,13,298,10,-4.5,0,"HSV 360,1,1"
1,25,f,Keyboard,1,11,2,0,360,282,d,1,19-in. Acer V193,1280,1024,60,Genius SlimStar 100 USB keyboard,400,13,299,11,-7.5,0,"HSV 360,1,1"
1,25,f,Keyboard,1,12,2,1,360,255,h,1,19-in. Acer V193,1280,1024,60,Genius SlimStar 100 USB keyboard,400,13,300,12,-4.5,0,"HSV 360,1,1"
1,25,f,Keyboard,1,13,2,0,360,252,d,1,19-in. Acer V193,1280,1024,60,Genius SlimStar 100 USB keyboard,400,13,301,13,-7.5,0,"HSV 360,1,1"
1,25,f,Keyboard,1,14,2,1,360,253,h,1,19-in. Acer V193,1280,1024,60,Genius SlimStar 100 USB keyboard,400,13,302,14,-4.5,0,"HSV 360,1,1"
1,25,f,Keyboard,1,15,2,1,360,225,d,0,19-in. Acer V193,1280,1024,60,Genius SlimStar 100 USB keyboard,400,13,303,15,-4.5,0,"HSV 360,1,1"
1,25,f,Keyboard,1,16,2,0,360,376,d,1,19-in. Acer V193,1280,1024,60,Genius SlimStar 100 USB keyboard,400,13,304,16,-7.5,0,"HSV 360,1,1"
1,25,f,Keyboard,1,17,2,1,360,303,h,1,19-in. Acer V193,1280,1024,60,Genius SlimStar 100 USB keyboard,400,13,305,17,-4.5,0,"HSV 360,1,1"
1,25,f,Keyboard,1,18,2,0,360,301,d,1,19-in. Acer V193,1280,1024,60,Genius SlimStar 100 USB keyboard,400,13,306,18,-7.5,0,"HSV 360,1,1"
1,25,f,Keyboard,1,19,2,1,360,290,h,1,19-in. Acer V193,1280,1024,60,Genius SlimStar 100 USB keyboard,400,13,307,19,-4.5,0,"HSV 360,1,1"
1,25,f,Keyboard,1,20,2,0,360,275,d,1,19-in. Acer V193,1280,1024,60,Genius SlimStar 100 USB keyboard,400,13,308,20,-7.5,0,"HSV 360,1,1"
1,25,f,Keyboard,1,21,2,0,360,267,h,0,19-in. Acer V193,1280,1024,60,Genius SlimStar 100 USB keyboard,400,13,309,21,-7.5,0,"HSV 360,1,1"
1,25,f,Keyboard,1,22,2,1,360,531,h,1,19-in. Acer V193,1280,1024,60,Genius SlimStar 100 USB keyboard,400,13,310,22,-4.5,0,"HSV 360,1,1"
1,25,f,Keyboard,1,23,2,0,360,316,d,1,19-in. Acer V193,1280,1024,60,Genius SlimStar 100 USB keyboard,400,13,311,23,-7.5,0,"HSV 360,1,1"
1,25,f,Keyboard,1,24,2,1,360,324,h,1,19-in. Acer V193,1280,1024,60,Genius SlimStar 100 USB keyboard,400,13,312,24,-4.5,0,"HSV 360,1,1"
1,25,f,Keyboard,1,25,2,0,300,1020,d,1,19-in. Acer V193,1280,1024,60,Genius SlimStar 100 USB keyboard,400,14,313,1,-7.5,0,"HSV 300,1,1"
1,25,f,Keyboard,1,26,2,1,300,959,h,1,19-in. Acer V193,1280,1024,60,Genius SlimStar 100 USB keyboard,400,14,314,2,-4.5,0,"HSV 300,1,1"
1,25,f,Keyboard,1,27,2,0,300,329,d,1,19-in. Acer V193,1280,1024,60,Genius SlimStar 100 USB keyboard,400,14,315,3,-7.5,0,"HSV 300,1,1"
1,25,f,Keyboard,1,28,2,1,300,303,h,1,19-in. Acer V193,1280,1024,60,Genius SlimStar 100 USB keyboard,400,14,316,4,-4.5,0,"HSV 300,1,1"
1,25,f,Keyboard,1,29,2,0,300,279,d,1,19-in. Acer V193,1280,1024,60,Genius SlimStar 100 USB keyboard,400,14,317,5,-7.5,0,"HSV 300,1,1"
1,25,f,Keyboard,1,30,2,1,300,349,h,1,19-in. Acer V193,1280,1024,60,Genius SlimStar 100 USB keyboard,400,14,318,6,-4.5,0,"HSV 300,1,1"
1,25,f,Keyboard,1,31,2,0,300,317,d,1,19-in. Acer V193,1280,1024,60,Genius SlimStar 100 USB keyboard,400,14,319,7,-7.5,0,"HSV 300,1,1"
1,25,f,Keyboard,1,32,2,1,300,294,h,1,19-in. Acer V193,1280,1024,60,Genius SlimStar 100 USB keyboard,400,14,320,8,-4.5,0,"HSV 300,1,1"
1,25,f,Keyboard,1,33,2,1,300,297,d,0,19-in. Acer V193,1280,1024,60,Genius SlimStar 100 USB keyboard,400,14,321,9,-4.5,0,"HSV 300,1,1"
1,25,f,Keyboard,1,34,2,0,300,417,d,1,19-in. Acer V193,1280,1024,60,Genius SlimStar 100 USB keyboard,400,14,322,10,-7.5,0,"HSV 300,1,1"
1,25,f,Keyboard,1,35,2,0,300,433,d,1,19-in. Acer V193,1280,1024,60,Genius SlimStar 100 USB keyboard,400,14,323,11,-7.5,0,"HSV 300,1,1"
1,25,f,Keyboard,1,36,2,1,300,332,h,1,19-in. Acer V193,1280,1024,60,Genius SlimStar 100 USB keyboard,400,14,324,12,-4.5,0,"HSV 300,1,1"
1,25,f,Keyboard,1,37,2,1,300,339,h,1,19-in. Acer V193,1280,1024,60,Genius SlimStar 100 USB keyboard,400,14,325,13,-4.5,0,"HSV 300,1,1"
1,25,f,Keyboard,1,38,2,0,300,325,d,1,19-in. Acer V193,1280,1024,60,Genius SlimStar 100 USB keyboard,400,14,326,14,-7.5,0,"HSV 300,1,1"
1,25,f,Keyboard,1,39,2,0,300,413,d,1,19-in. Acer V193,1280,1024,60,Genius SlimStar 100 USB keyboard,400,14,327,15,-7.5,0,"HSV 300,1,1"
1,25,f,Keyboard,1,40,2,1,300,314,h,1,19-in. Acer V193,1280,1024,60,Genius SlimStar 100 USB keyboard,400,14,328,16,-4.5,0,"HSV 300,1,1"
1,25,f,Keyboard,1,41,2,1,300,373,h,1,19-in. Acer V193,1280,1024,60,Genius SlimStar 100 USB keyboard,400,14,329,17,-4.5,0,"HSV 300,1,1"
1,25,f,Keyboard,1,42,2,0,300,347,d,1,19-in. Acer V193,1280,1024,60,Genius SlimStar 100 USB keyboard,400,14,330,18,-7.5,0,"HSV 300,1,1"
1,25,f,Keyboard,1,43,2,0,300,437,d,1,19-in. Acer V193,1280,1024,60,Genius SlimStar 100 USB keyboard,400,14,331,19,-7.5,0,"HSV 300,1,1"
1,25,f,Keyboard,1,44,2,1,300,308,h,1,19-in. Acer V193,1280,1024,60,Genius SlimStar 100 USB keyboard,400,14,332,20,-4.5,0,"HSV 300,1,1"
1,25,f,Keyboard,1,45,2,1,300,338,h,1,19-in. Acer V193,1280,1024,60,Genius SlimStar 100 USB keyboard,400,14,333,21,-4.5,0,"HSV 300,1,1"
1,25,f,Keyboard,1,46,2,0,300,320,d,1,19-in. Acer V193,1280,1024,60,Genius SlimStar 100 USB keyboard,400,14,334,22,-7.5,0,"HSV 300,1,1"
1,25,f,Keyboard,1,47,2,1,300,366,h,1,19-in. Acer V193,1280,1024,60,Genius SlimStar 100 USB keyboard,400,14,335,23,-4.5,0,"HSV 300,1,1"
1,25,f,Keyboard,1,48,2,0,300,306,d,1,19-in. Acer V193,1280,1024,60,Genius SlimStar 100 USB keyboard,400,14,336,24,-7.5,0,"HSV 300,1,1"
1,25,f,Keyboard,1,49,2,0,180,881,d,1,19-in. Acer V193,1280,1024,60,Genius SlimStar 100 USB keyboard,400,15,337,1,-7.5,0,"HSV 180,1,1"
1,25,f,Keyboard,1,50,2,1,180,657,h,1,19-in. Acer V193,1280,1024,60,Genius SlimStar 100 USB keyboard,400,15,338,2,-4.5,0,"HSV 180,1,1"
1,25,f,Keyboard,1,51,2,0,180,323,d,1,19-in. Acer V193,1280,1024,60,Genius SlimStar 100 USB keyboard,400,15,339,3,-7.5,0,"HSV 180,1,1"
1,25,f,Keyboard,1,52,2,1,180,276,h,1,19-in. Acer V193,1280,1024,60,Genius SlimStar 100 USB keyboard,400,15,340,4,-4.5,0,"HSV 180,1,1"
1,25,f,Keyboard,1,53,2,1,180,288,d,0,19-in. Acer V193,1280,1024,60,Genius SlimStar 100 USB keyboard,400,15,341,5,-4.5,0,"HSV 180,1,1"
1,25,f,Keyboard,1,54,2,0,180,343,d,1,19-in. Acer V193,1280,1024,60,Genius SlimStar 100 USB keyboard,400,15,342,6,-7.5,0,"HSV 180,1,1"
1,25,f,Keyboard,1,55,2,1,180,340,h,1,19-in. Acer V193,1280,1024,60,Genius SlimStar 100 USB keyboard,400,15,343,7,-4.5,0,"HSV 180,1,1"
1,25,f,Keyboard,1,56,2,0,180,372,d,1,19-in. Acer V193,1280,1024,60,Genius SlimStar 100 USB keyboard,400,15,344,8,-7.5,0,"HSV 180,1,1"
1,25,f,Keyboard,1,57,2,0,180,368,d,1,19-in. Acer V193,1280,1024,60,Genius SlimStar 100 USB keyboard,400,15,345,9,-7.5,0,"HSV 180,1,1"
1,25,f,Keyboard,1,58,2,1,180,361,h,1,19-in. Acer V193,1280,1024,60,Genius SlimStar 100 USB keyboard,400,15,346,10,-4.5,0,"HSV 180,1,1"
1,25,f,Keyboard,1,59,2,1,180,304,h,1,19-in. Acer V193,1280,1024,60,Genius SlimStar 100 USB keyboard,400,15,347,11,-4.5,0,"HSV 180,1,1"
1,25,f,Keyboard,1,60,2,0,180,349,d,1,19-in. Acer V193,1280,1024,60,Genius SlimStar 100 USB keyboard,400,15,348,12,-7.5,0,"HSV 180,1,1"
1,25,f,Keyboard,1,61,2,0,180,374,d,1,19-in. Acer V193,1280,1024,60,Genius SlimStar 100 USB keyboard,400,15,349,13,-7.5,0,"HSV 180,1,1"
1,25,f,Keyboard,1,62,2,1,180,290,h,1,19-in. Acer V193,1280,1024,60,Genius SlimStar 100 USB keyboard,400,15,350,14,-4.5,0,"HSV 180,1,1"
1,25,f,Keyboard,1,63,2,1,180,233,h,1,19-in. Acer V193,1280,1024,60,Genius SlimStar 100 USB keyboard,400,15,351,15,-4.5,0,"HSV 180,1,1"
1,25,f,Keyboard,1,64,2,0,180,274,d,1,19-in. Acer V193,1280,1024,60,Genius SlimStar 100 USB keyboard,400,15,352,16,-7.5,0,"HSV 180,1,1"
1,25,f,Keyboard,1,65,2,1,180,244,d,0,19-in. Acer V193,1280,1024,60,Genius SlimStar 100 USB keyboard,400,15,353,17,-4.5,0,"HSV 180,1,1"
1,25,f,Keyboard,1,66,2,0,180,335,d,1,19-in. Acer V193,1280,1024,60,Genius SlimStar 100 USB keyboard,400,15,354,18,-7.5,0,"HSV 180,1,1"
1,25,f,Keyboard,1,67,2,1,180,350,h,1,19-in. Acer V193,1280,1024,60,Genius SlimStar 100 USB keyboard,400,15,355,19,-4.5,0,"HSV 180,1,1"
1,25,f,Keyboard,1,68,2,0,180,289,d,1,19-in. Acer V193,1280,1024,60,Genius SlimStar 100 USB keyboard,400,15,356,20,-7.5,0,"HSV 180,1,1"
1,25,f,Keyboard,1,69,2,0,180,346,d,1,19-in. Acer V193,1280,1024,60,Genius SlimStar 100 USB keyboard,400,15,357,21,-7.5,0,"HSV 180,1,1"
1,25,f,Keyboard,1,70,2,1,180,339,h,1,19-in. Acer V193,1280,1024,60,Genius SlimStar 100 USB keyboard,400,15,358,22,-4.5,0,"HSV 180,1,1"
1,25,f,Keyboard,1,71,2,1,180,321,h,1,19-in. Acer V193,1280,1024,60,Genius SlimStar 100 USB keyboard,400,15,359,23,-4.5,0,"HSV 180,1,1"
1,25,f,Keyboard,1,72,2,0,180,342,d,1,19-in. Acer V193,1280,1024,60,Genius SlimStar 100 USB keyboard,400,15,360,24,-7.5,0,"HSV 180,1,1"
1,25,f,Keyboard,1,73,2,1,240,438,h,1,19-in. Acer V193,1280,1024,60,Genius SlimStar 100 USB keyboard,400,16,361,1,-4.5,0,"HSV 240,1,1"
1,25,f,Keyboard,1,74,2,0,240,342,d,1,19-in. Acer V193,1280,1024,60,Genius SlimStar 100 USB keyboard,400,16,362,2,-7.5,0,"HSV 240,1,1"
1,25,f,Keyboard,1,75,2,0,240,310,h,0,19-in. Acer V193,1280,1024,60,Genius SlimStar 100 USB keyboard,400,16,363,3,-7.5,0,"HSV 240,1,1"
1,25,f,Keyboard,1,76,2,1,240,381,h,1,19-in. Acer V193,1280,1024,60,Genius SlimStar 100 USB keyboard,400,16,364,4,-4.5,0,"HSV 240,1,1"
1,25,f,Keyboard,1,77,2,1,240,323,h,1,19-in. Acer V193,1280,1024,60,Genius SlimStar 100 USB keyboard,400,16,365,5,-4.5,0,"HSV 240,1,1"
1,25,f,Keyboard,1,78,2,0,240,311,d,1,19-in. Acer V193,1280,1024,60,Genius SlimStar 100 USB keyboard,400,16,366,6,-7.5,0,"HSV 240,1,1"
1,25,f,Keyboard,1,79,2,0,240,377,d,1,19-in. Acer V193,1280,1024,60,Genius SlimStar 100 USB keyboard,400,16,367,7,-7.5,0,"HSV 240,1,1"
1,25,f,Keyboard,1,80,2,1,240,348,h,1,19-in. Acer V193,1280,1024,60,Genius SlimStar 100 USB keyboard,400,16,368,8,-4.5,0,"HSV 240,1,1"
1,25,f,Keyboard,1,81,2,1,240,301,h,1,19-in. Acer V193,1280,1024,60,Genius SlimStar 100 USB keyboard,400,16,369,9,-4.5,0,"HSV 240,1,1"
1,25,f,Keyboard,1,82,2,0,240,308,d,1,19-in. Acer V193,1280,1024,60,Genius SlimStar 100 USB keyboard,400,16,370,10,-7.5,0,"HSV 240,1,1"
1,25,f,Keyboard,1,83,2,0,240,360,d,1,19-in. Acer V193,1280,1024,60,Genius SlimStar 100 USB keyboard,400,16,371,11,-7.5,0,"HSV 240,1,1"
1,25,f,Keyboard,1,84,2,1,240,300,h,1,19-in. Acer V193,1280,1024,60,Genius SlimStar 100 USB keyboard,400,16,372,12,-4.5,0,"HSV 240,1,1"
1,25,f,Keyboard,1,85,2,0,240,354,d,1,19-in. Acer V193,1280,1024,60,Genius SlimStar 100 USB keyboard,400,16,373,13,-7.5,0,"HSV 240,1,1"
1,25,f,Keyboard,1,86,2,1,240,272,h,1,19-in. Acer V193,1280,1024,60,Genius SlimStar 100 USB keyboard,400,16,374,14,-4.5,0,"HSV 240,1,1"
1,25,f,Keyboard,1,87,2,1,240,393,h,1,19-in. Acer V193,1280,1024,60,Genius SlimStar 100 USB keyboard,400,16,375,15,-4.5,0,"HSV 240,1,1"
1,25,f,Keyboard,1,88,2,0,240,297,d,1,19-in. Acer V193,1280,1024,60,Genius SlimStar 100 USB keyboard,400,16,376,16,-7.5,0,"HSV 240,1,1"
1,25,f,Keyboard,1,89,2,0,240,304,d,1,19-in. Acer V193,1280,1024,60,Genius SlimStar 100 USB keyboard,400,16,377,17,-7.5,0,"HSV 240,1,1"
1,25,f,Keyboard,1,90,2,1,240,334,h,1,19-in. Acer V193,1280,1024,60,Genius SlimStar 100 USB keyboard,400,16,378,18,-4.5,0,"HSV 240,1,1"
1,25,f,Keyboard,1,91,2,0,240,394,d,1,19-in. Acer V193,1280,1024,60,Genius SlimStar 100 USB keyboard,400,16,379,19,-7.5,0,"HSV 240,1,1"
1,25,f,Keyboard,1,92,2,1,240,301,h,1,19-in. Acer V193,1280,1024,60,Genius SlimStar 100 USB keyboard,400,16,380,20,-4.5,0,"HSV 240,1,1"
1,25,f,Keyboard,1,93,2,1,240,333,h,1,19-in. Acer V193,1280,1024,60,Genius SlimStar 100 USB keyboard,400,16,381,21,-4.5,0,"HSV 240,1,1"
1,25,f,Keyboard,1,94,2,0,240,307,d,1,19-in. Acer V193,1280,1024,60,Genius SlimStar 100 USB keyboard,400,16,382,22,-7.5,0,"HSV 240,1,1"
1,25,f,Keyboard,1,95,2,0,240,334,d,1,19-in. Acer V193,1280,1024,60,Genius SlimStar 100 USB keyboard,400,16,383,23,-7.5,0,"HSV 240,1,1"
1,25,f,Keyboard,1,96,2,1,240,329,h,1,19-in. Acer V193,1280,1024,60,Genius SlimStar 100 USB keyboard,400,16,384,24,-4.5,0,"HSV 240,1,1"
1,25,f,Keyboard,1,97,2,0,120,416,d,1,19-in. Acer V193,1280,1024,60,Genius SlimStar 100 USB keyboard,400,17,385,1,-7.5,0,"HSV 120,1,1"
1,25,f,Keyboard,1,98,2,1,120,382,h,1,19-in. Acer V193,1280,1024,60,Genius SlimStar 100 USB keyboard,400,17,386,2,-4.5,0,"HSV 120,1,1"
1,25,f,Keyboard,1,99,2,0,120,328,d,1,19-in. Acer V193,1280,1024,60,Genius SlimStar 100 USB keyboard,400,17,387,3,-7.5,0,"HSV 120,1,1"
1,25,f,Keyboard,1,100,2,1,120,276,h,1,19-in. Acer V193,1280,1024,60,Genius SlimStar 100 USB keyboard,400,17,388,4,-4.5,0,"HSV 120,1,1"
1,25,f,Keyboard,1,101,2,0,120,293,d,1,19-in. Acer V193,1280,1024,60,Genius SlimStar 100 USB keyboard,400,17,389,5,-7.5,0,"HSV 120,1,1"
1,25,f,Keyboard,1,102,2,1,120,293,h,1,19-in. Acer V193,1280,1024,60,Genius SlimStar 100 USB keyboard,400,17,390,6,-4.5,0,"HSV 120,1,1"
1,25,f,Keyboard,1,103,2,1,120,401,h,1,19-in. Acer V193,1280,1024,60,Genius SlimStar 100 USB keyboard,400,17,391,7,-4.5,0,"HSV 120,1,1"
1,25,f,Keyboard,1,104,2,0,120,337,d,1,19-in. Acer V193,1280,1024,60,Genius SlimStar 100 USB keyboard,400,17,392,8,-7.5,0,"HSV 120,1,1"
1,25,f,Keyboard,1,105,2,0,120,358,d,1,19-in. Acer V193,1280,1024,60,Genius SlimStar 100 USB keyboard,400,17,393,9,-7.5,0,"HSV 120,1,1"
1,25,f,Keyboard,1,106,2,1,120,281,h,1,19-in. Acer V193,1280,1024,60,Genius SlimStar 100 USB keyboard,400,17,394,10,-4.5,0,"HSV 120,1,1"
1,25,f,Keyboard,1,107,2,0,120,366,d,1,19-in. Acer V193,1280,1024,60,Genius SlimStar 100 USB keyboard,400,17,395,11,-7.5,0,"HSV 120,1,1"
1,25,f,Keyboard,1,108,2,1,120,259,h,1,19-in. Acer V193,1280,1024,60,Genius SlimStar 100 USB keyboard,400,17,396,12,-4.5,0,"HSV 120,1,1"
1,25,f,Keyboard,1,109,2,1,120,328,h,1,19-in. Acer V193,1280,1024,60,Genius SlimStar 100 USB keyboard,400,17,397,13,-4.5,0,"HSV 120,1,1"
1,25,f,Keyboard,1,110,2,0,120,302,d,1,19-in. Acer V193,1280,1024,60,Genius SlimStar 100 USB keyboard,400,17,398,14,-7.5,0,"HSV 120,1,1"
1,25,f,Keyboard,1,111,2,1,120,242,h,1,19-in. Acer V193,1280,1024,60,Genius SlimStar 100 USB keyboard,400,17,399,15,-4.5,0,"HSV 120,1,1"
1,25,f,Keyboard,1,112,2,0,120,303,h,0,19-in. Acer V193,1280,1024,60,Genius SlimStar 100 USB keyboard,400,17,400,16,-7.5,0,"HSV 120,1,1"
1,25,f,Keyboard,1,113,2,1,120,310,d,0,19-in. Acer V193,1280,1024,60,Genius SlimStar 100 USB keyboard,400,17,401,17,-4.5,0,"HSV 120,1,1"
1,25,f,Keyboard,1,114,2,0,120,332,d,1,19-in. Acer V193,1280,1024,60,Genius SlimStar 100 USB keyboard,400,17,402,18,-7.5,0,"HSV 120,1,1"
1,25,f,Keyboard,1,115,2,1,120,331,h,1,19-in. Acer V193,1280,1024,60,Genius SlimStar 100 USB keyboard,400,17,403,19,-4.5,0,"HSV 120,1,1"
1,25,f,Keyboard,1,116,2,0,120,299,d,1,19-in. Acer V193,1280,1024,60,Genius SlimStar 100 USB keyboard,400,17,404,20,-7.5,0,"HSV 120,1,1"
1,25,f,Keyboard,1,117,2,1,120,306,h,1,19-in. Acer V193,1280,1024,60,Genius SlimStar 100 USB keyboard,400,17,405,21,-4.5,0,"HSV 120,1,1"
1,25,f,Keyboard,1,118,2,0,120,296,d,1,19-in. Acer V193,1280,1024,60,Genius SlimStar 100 USB keyboard,400,17,406,22,-7.5,0,"HSV 120,1,1"
1,25,f,Keyboard,1,119,2,0,120,321,d,1,19-in. Acer V193,1280,1024,60,Genius SlimStar 100 USB keyboard,400,17,407,23,-7.5,0,"HSV 120,1,1"
1,25,f,Keyboard,1,120,2,1,120,367,h,1,19-in. Acer V193,1280,1024,60,Genius SlimStar 100 USB keyboard,400,17,408,24,-4.5,0,"HSV 120,1,1"
1,25,f,Keyboard,1,121,2,0,60,411,d,1,19-in. Acer V193,1280,1024,60,Genius SlimStar 100 USB keyboard,400,18,409,1,-7.5,0,"HSV 60,1,1"
1,25,f,Keyboard,1,122,2,1,60,309,h,1,19-in. Acer V193,1280,1024,60,Genius SlimStar 100 USB keyboard,400,18,410,2,-4.5,0,"HSV 60,1,1"
1,25,f,Keyboard,1,123,2,0,60,292,d,1,19-in. Acer V193,1280,1024,60,Genius SlimStar 100 USB keyboard,400,18,411,3,-7.5,0,"HSV 60,1,1"
1,25,f,Keyboard,1,124,2,1,60,278,h,1,19-in. Acer V193,1280,1024,60,Genius SlimStar 100 USB keyboard,400,18,412,4,-4.5,0,"HSV 60,1,1"
1,25,f,Keyboard,1,125,2,0,60,266,d,1,19-in. Acer V193,1280,1024,60,Genius SlimStar 100 USB keyboard,400,18,413,5,-7.5,0,"HSV 60,1,1"
1,25,f,Keyboard,1,126,2,1,60,281,h,1,19-in. Acer V193,1280,1024,60,Genius SlimStar 100 USB keyboard,400,18,414,6,-4.5,0,"HSV 60,1,1"
1,25,f,Keyboard,1,127,2,0,60,316,d,1,19-in. Acer V193,1280,1024,60,Genius SlimStar 100 USB keyboard,400,18,415,7,-7.5,0,"HSV 60,1,1"
1,25,f,Keyboard,1,128,2,1,60,288,h,1,19-in. Acer V193,1280,1024,60,Genius SlimStar 100 USB keyboard,400,18,416,8,-4.5,0,"HSV 60,1,1"
1,25,f,Keyboard,1,129,2,1,60,259,d,0,19-in. Acer V193,1280,1024,60,Genius SlimStar 100 USB keyboard,400,18,417,9,-4.5,0,"HSV 60,1,1"
1,25,f,Keyboard,1,130,2,0,60,588,d,1,19-in. Acer V193,1280,1024,60,Genius SlimStar 100 USB keyboard,400,18,418,10,-7.5,0,"HSV 60,1,1"
1,25,f,Keyboard,1,131,2,0,60,379,d,1,19-in. Acer V193,1280,1024,60,Genius SlimStar 100 USB keyboard,400,18,419,11,-7.5,0,"HSV 60,1,1"
1,25,f,Keyboard,1,132,2,1,60,313,h,1,19-in. Acer V193,1280,1024,60,Genius SlimStar 100 USB keyboard,400,18,420,12,-4.5,0,"HSV 60,1,1"
1,25,f,Keyboard,1,133,2,0,60,307,d,1,19-in. Acer V193,1280,1024,60,Genius SlimStar 100 USB keyboard,400,18,421,13,-7.5,0,"HSV 60,1,1"
1,25,f,Keyboard,1,134,2,1,60,290,h,1,19-in. Acer V193,1280,1024,60,Genius SlimStar 100 USB keyboard,400,18,422,14,-4.5,0,"HSV 60,1,1"
1,25,f,Keyboard,1,135,2,0,60,312,d,1,19-in. Acer V193,1280,1024,60,Genius SlimStar 100 USB keyboard,400,18,423,15,-7.5,0,"HSV 60,1,1"
1,25,f,Keyboard,1,136,2,1,60,295,h,1,19-in. Acer V193,1280,1024,60,Genius SlimStar 100 USB keyboard,400,18,424,16,-4.5,0,"HSV 60,1,1"
1,25,f,Keyboard,1,137,2,0,60,288,d,1,19-in. Acer V193,1280,1024,60,Genius SlimStar 100 USB keyboard,400,18,425,17,-7.5,0,"HSV 60,1,1"
1,25,f,Keyboard,1,138,2,1,60,310,h,1,19-in. Acer V193,1280,1024,60,Genius SlimStar 100 USB keyboard,400,18,426,18,-4.5,0,"HSV 60,1,1"
1,25,f,Keyboard,1,139,2,0,60,275,d,1,19-in. Acer V193,1280,1024,60,Genius SlimStar 100 USB keyboard,400,18,427,19,-7.5,0,"HSV 60,1,1"
1,25,f,Keyboard,1,140,2,1,60,273,h,1,19-in. Acer V193,1280,1024,60,Genius SlimStar 100 USB keyboard,400,18,428,20,-4.5,0,"HSV 60,1,1"
1,25,f,Keyboard,1,141,2,0,60,354,d,1,19-in. Acer V193,1280,1024,60,Genius SlimStar 100 USB keyboard,400,18,429,21,-7.5,0,"HSV 60,1,1"
1,25,f,Keyboard,1,142,2,1,60,295,h,1,19-in. Acer V193,1280,1024,60,Genius SlimStar 100 USB keyboard,400,18,430,22,-4.5,0,"HSV 60,1,1"
1,25,f,Keyboard,1,143,2,0,60,252,d,1,19-in. Acer V193,1280,1024,60,Genius SlimStar 100 USB keyboard,400,18,431,23,-7.5,0,"HSV 60,1,1"
1,25,f,Keyboard,1,144,2,1,60,235,h,1,19-in. Acer V193,1280,1024,60,Genius SlimStar 100 USB keyboard,400,18,432,24,-4.5,0,"HSV 60,1,1"
1,25,f,Web from lab,4,1,2,1,240,1204,h,1,19-in. Acer V193,1280,1024,60,Genius SlimStar 100 USB keyboard,400,19,433,1,-4.5,0,"HSV 240,1,1"
1,25,f,Web from lab,4,2,2,0,240,621,d,1,19-in. Acer V193,1280,1024,60,Genius SlimStar 100 USB keyboard,400,19,434,2,-7.5,0,"HSV 240,1,1"
1,25,f,Web from lab,4,3,2,1,240,461,h,1,19-in. Acer V193,1280,1024,60,Genius SlimStar 100 USB keyboard,400,19,435,3,-4.5,0,"HSV 240,1,1"
1,25,f,Web from lab,4,4,2,0,240,404,d,1,19-in. Acer V193,1280,1024,60,Genius SlimStar 100 USB keyboard,400,19,436,4,-7.5,0,"HSV 240,1,1"
1,25,f,Web from lab,4,5,2,1,240,372,h,1,19-in. Acer V193,1280,1024,60,Genius SlimStar 100 USB keyboard,400,19,437,5,-4.5,0,"HSV 240,1,1"
1,25,f,Web from lab,4,6,2,0,240,428,d,1,19-in. Acer V193,1280,1024,60,Genius SlimStar 100 USB keyboard,400,19,438,6,-7.5,0,"HSV 240,1,1"
1,25,f,Web from lab,4,7,2,1,240,417,h,1,19-in. Acer V193,1280,1024,60,Genius SlimStar 100 USB keyboard,400,19,439,7,-4.5,0,"HSV 240,1,1"
1,25,f,Web from lab,4,8,2,0,240,457,d,1,19-in. Acer V193,1280,1024,60,Genius SlimStar 100 USB keyboard,400,19,440,8,-7.5,0,"HSV 240,1,1"
1,25,f,Web from lab,4,9,2,0,240,429,d,1,19-in. Acer V193,1280,1024,60,Genius SlimStar 100 USB keyboard,400,19,441,9,-7.5,0,"HSV 240,1,1"
1,25,f,Web from lab,4,10,2,1,240,426,h,1,19-in. Acer V193,1280,1024,60,Genius SlimStar 100 USB keyboard,400,19,442,10,-4.5,0,"HSV 240,1,1"
1,25,f,Web from lab,4,11,2,1,240,450,h,1,19-in. Acer V193,1280,1024,60,Genius SlimStar 100 USB keyboard,400,19,443,11,-4.5,0,"HSV 240,1,1"
1,25,f,Web from lab,4,12,2,0,240,483,d,1,19-in. Acer V193,1280,1024,60,Genius SlimStar 100 USB keyboard,400,19,444,12,-7.5,0,"HSV 240,1,1"
1,25,f,Web from lab,4,13,2,0,240,421,d,1,19-in. Acer V193,1280,1024,60,Genius SlimStar 100 USB keyboard,400,19,445,13,-7.5,0,"HSV 240,1,1"
1,25,f,Web from lab,4,14,2,1,240,387,h,1,19-in. Acer V193,1280,1024,60,Genius SlimStar 100 USB keyboard,400,19,446,14,-4.5,0,"HSV 240,1,1"
1,25,f,Web from lab,4,15,2,0,240,398,d,1,19-in. Acer V193,1280,1024,60,Genius SlimStar 100 USB keyboard,400,19,447,15,-7.5,0,"HSV 240,1,1"
1,25,f,Web from lab,4,16,2,1,240,400,h,1,19-in. Acer V193,1280,1024,60,Genius SlimStar 100 USB keyboard,400,19,448,16,-4.5,0,"HSV 240,1,1"
1,25,f,Web from lab,4,17,2,0,240,363,d,1,19-in. Acer V193,1280,1024,60,Genius SlimStar 100 USB keyboard,400,19,449,17,-7.5,0,"HSV 240,1,1"
1,25,f,Web from lab,4,18,2,1,240,382,h,1,19-in. Acer V193,1280,1024,60,Genius SlimStar 100 USB keyboard,400,19,450,18,-4.5,0,"HSV 240,1,1"
1,25,f,Web from lab,4,19,2,0,240,392,d,1,19-in. Acer V193,1280,1024,60,Genius SlimStar 100 USB keyboard,400,19,451,19,-7.5,0,"HSV 240,1,1"
1,25,f,Web from lab,4,20,2,1,240,362,h,1,19-in. Acer V193,1280,1024,60,Genius SlimStar 100 USB keyboard,400,19,452,20,-4.5,0,"HSV 240,1,1"
1,25,f,Web from lab,4,21,2,0,240,363,d,1,19-in. Acer V193,1280,1024,60,Genius SlimStar 100 USB keyboard,400,19,453,21,-7.5,0,"HSV 240,1,1"
1,25,f,Web from lab,4,22,2,1,240,382,h,1,19-in. Acer V193,1280,1024,60,Genius SlimStar 100 USB keyboard,400,19,454,22,-4.5,0,"HSV 240,1,1"
1,25,f,Web from lab,4,23,2,0,240,831,d,1,19-in. Acer V193,1280,1024,60,Genius SlimStar 100 USB keyboard,400,19,455,23,-7.5,0,"HSV 240,1,1"
1,25,f,Web from lab,4,24,2,1,240,417,h,1,19-in. Acer V193,1280,1024,60,Genius SlimStar 100 USB keyboard,400,19,456,24,-4.5,0,"HSV 240,1,1"
1,25,f,Web from lab,4,25,2,1,300,591,h,1,19-in. Acer V193,1280,1024,60,Genius SlimStar 100 USB keyboard,400,20,457,1,-4.5,0,"HSV 300,1,1"
1,25,f,Web from lab,4,26,2,0,300,399,d,1,19-in. Acer V193,1280,1024,60,Genius SlimStar 100 USB keyboard,400,20,458,2,-7.5,0,"HSV 300,1,1"
1,25,f,Web from lab,4,27,2,0,300,385,d,1,19-in. Acer V193,1280,1024,60,Genius SlimStar 100 USB keyboard,400,20,459,3,-7.5,0,"HSV 300,1,1"
1,25,f,Web from lab,4,28,2,1,300,346,h,1,19-in. Acer V193,1280,1024,60,Genius SlimStar 100 USB keyboard,400,20,460,4,-4.5,0,"HSV 300,1,1"
1,25,f,Web from lab,4,29,2,0,300,352,d,1,19-in. Acer V193,1280,1024,60,Genius SlimStar 100 USB keyboard,400,20,461,5,-7.5,0,"HSV 300,1,1"
1,25,f,Web from lab,4,30,2,1,300,364,h,1,19-in. Acer V193,1280,1024,60,Genius SlimStar 100 USB keyboard,400,20,462,6,-4.5,0,"HSV 300,1,1"
1,25,f,Web from lab,4,31,2,1,300,403,h,1,19-in. Acer V193,1280,1024,60,Genius SlimStar 100 USB keyboard,400,20,463,7,-4.5,0,"HSV 300,1,1"
1,25,f,Web from lab,4,32,2,0,300,352,d,1,19-in. Acer V193,1280,1024,60,Genius SlimStar 100 USB keyboard,400,20,464,8,-7.5,0,"HSV 300,1,1"
1,25,f,Web from lab,4,33,2,0,300,384,d,1,19-in. Acer V193,1280,1024,60,Genius SlimStar 100 USB keyboard,400,20,465,9,-7.5,0,"HSV 300,1,1"
1,25,f,Web from lab,4,34,2,1,300,324,h,1,19-in. Acer V193,1280,1024,60,Genius SlimStar 100 USB keyboard,400,20,466,10,-4.5,0,"HSV 300,1,1"
1,25,f,Web from lab,4,35,2,0,300,374,d,1,19-in. Acer V193,1280,1024,60,Genius SlimStar 100 USB keyboard,400,20,467,11,-7.5,0,"HSV 300,1,1"
1,25,f,Web from lab,4,36,2,1,300,374,h,1,19-in. Acer V193,1280,1024,60,Genius SlimStar 100 USB keyboard,400,20,468,12,-4.5,0,"HSV 300,1,1"
1,25,f,Web from lab,4,37,2,0,300,344,d,1,19-in. Acer V193,1280,1024,60,Genius SlimStar 100 USB keyboard,400,20,469,13,-7.5,0,"HSV 300,1,1"
1,25,f,Web from lab,4,38,2,1,300,340,h,1,19-in. Acer V193,1280,1024,60,Genius SlimStar 100 USB keyboard,400,20,470,14,-4.5,0,"HSV 300,1,1"
1,25,f,Web from lab,4,39,2,0,300,361,d,1,19-in. Acer V193,1280,1024,60,Genius SlimStar 100 USB keyboard,400,20,471,15,-7.5,0,"HSV 300,1,1"
1,25,f,Web from lab,4,40,2,1,300,359,h,1,19-in. Acer V193,1280,1024,60,Genius SlimStar 100 USB keyboard,400,20,472,16,-4.5,0,"HSV 300,1,1"
1,25,f,Web from lab,4,41,2,0,300,340,d,1,19-in. Acer V193,1280,1024,60,Genius SlimStar 100 USB keyboard,400,20,473,17,-7.5,0,"HSV 300,1,1"
1,25,f,Web from lab,4,42,2,1,300,330,h,1,19-in. Acer V193,1280,1024,60,Genius SlimStar 100 USB keyboard,400,20,474,18,-4.5,0,"HSV 300,1,1"
1,25,f,Web from lab,4,43,2,0,300,362,d,1,19-in. Acer V193,1280,1024,60,Genius SlimStar 100 USB keyboard,400,20,475,19,-7.5,0,"HSV 300,1,1"
1,25,f,Web from lab,4,44,2,1,300,379,h,1,19-in. Acer V193,1280,1024,60,Genius SlimStar 100 USB keyboard,400,20,476,20,-4.5,0,"HSV 300,1,1"
1,25,f,Web from lab,4,45,2,0,300,378,d,1,19-in. Acer V193,1280,1024,60,Genius SlimStar 100 USB keyboard,400,20,477,21,-7.5,0,"HSV 300,1,1"
1,25,f,Web from lab,4,46,2,1,300,381,h,1,19-in. Acer V193,1280,1024,60,Genius SlimStar 100 USB keyboard,400,20,478,22,-4.5,0,"HSV 300,1,1"
1,25,f,Web from lab,4,47,2,0,300,393,d,1,19-in. Acer V193,1280,1024,60,Genius SlimStar 100 USB keyboard,400,20,479,23,-7.5,0,"HSV 300,1,1"
1,25,f,Web from lab,4,48,2,1,300,409,h,1,19-in. Acer V193,1280,1024,60,Genius SlimStar 100 USB keyboard,400,20,480,24,-4.5,0,"HSV 300,1,1"
1,25,f,Web from lab,4,49,2,1,120,585,h,1,19-in. Acer V193,1280,1024,60,Genius SlimStar 100 USB keyboard,400,21,481,1,-4.5,0,"HSV 120,1,1"
1,25,f,Web from lab,4,50,2,0,120,373,d,1,19-in. Acer V193,1280,1024,60,Genius SlimStar 100 USB keyboard,400,21,482,2,-7.5,0,"HSV 120,1,1"
1,25,f,Web from lab,4,51,2,0,120,381,d,1,19-in. Acer V193,1280,1024,60,Genius SlimStar 100 USB keyboard,400,21,483,3,-7.5,0,"HSV 120,1,1"
1,25,f,Web from lab,4,52,2,1,120,385,h,1,19-in. Acer V193,1280,1024,60,Genius SlimStar 100 USB keyboard,400,21,484,4,-4.5,0,"HSV 120,1,1"
1,25,f,Web from lab,4,53,2,0,120,389,d,1,19-in. Acer V193,1280,1024,60,Genius SlimStar 100 USB keyboard,400,21,485,5,-7.5,0,"HSV 120,1,1"
1,25,f,Web from lab,4,54,2,1,120,355,h,1,19-in. Acer V193,1280,1024,60,Genius SlimStar 100 USB keyboard,400,21,486,6,-4.5,0,"HSV 120,1,1"
1,25,f,Web from lab,4,55,2,1,120,436,h,1,19-in. Acer V193,1280,1024,60,Genius SlimStar 100 USB keyboard,400,21,487,7,-4.5,0,"HSV 120,1,1"
1,25,f,Web from lab,4,56,2,0,120,369,d,1,19-in. Acer V193,1280,1024,60,Genius SlimStar 100 USB keyboard,400,21,488,8,-7.5,0,"HSV 120,1,1"
1,25,f,Web from lab,4,57,2,1,120,314,h,1,19-in. Acer V193,1280,1024,60,Genius SlimStar 100 USB keyboard,400,21,489,9,-4.5,0,"HSV 120,1,1"
1,25,f,Web from lab,4,58,2,0,120,346,d,1,19-in. Acer V193,1280,1024,60,Genius SlimStar 100 USB keyboard,400,21,490,10,-7.5,0,"HSV 120,1,1"
1,25,f,Web from lab,4,59,2,1,120,338,h,1,19-in. Acer V193,1280,1024,60,Genius SlimStar 100 USB keyboard,400,21,491,11,-4.5,0,"HSV 120,1,1"
1,25,f,Web from lab,4,60,2,0,120,353,d,1,19-in. Acer V193,1280,1024,60,Genius SlimStar 100 USB keyboard,400,21,492,12,-7.5,0,"HSV 120,1,1"
1,25,f,Web from lab,4,61,2,1,120,365,h,1,19-in. Acer V193,1280,1024,60,Genius SlimStar 100 USB keyboard,400,21,493,13,-4.5,0,"HSV 120,1,1"
1,25,f,Web from lab,4,62,2,0,120,334,d,1,19-in. Acer V193,1280,1024,60,Genius SlimStar 100 USB keyboard,400,21,494,14,-7.5,0,"HSV 120,1,1"
1,25,f,Web from lab,4,63,2,1,120,345,h,1,19-in. Acer V193,1280,1024,60,Genius SlimStar 100 USB keyboard,400,21,495,15,-4.5,0,"HSV 120,1,1"
1,25,f,Web from lab,4,64,2,0,120,388,d,1,19-in. Acer V193,1280,1024,60,Genius SlimStar 100 USB keyboard,400,21,496,16,-7.5,0,"HSV 120,1,1"
1,25,f,Web from lab,4,65,2,1,120,344,h,1,19-in. Acer V193,1280,1024,60,Genius SlimStar 100 USB keyboard,400,21,497,17,-4.5,0,"HSV 120,1,1"
1,25,f,Web from lab,4,66,2,0,120,341,d,1,19-in. Acer V193,1280,1024,60,Genius SlimStar 100 USB keyboard,400,21,498,18,-7.5,0,"HSV 120,1,1"
1,25,f,Web from lab,4,67,2,0,120,414,d,1,19-in. Acer V193,1280,1024,60,Genius SlimStar 100 USB keyboard,400,21,499,19,-7.5,0,"HSV 120,1,1"
1,25,f,Web from lab,4,68,2,1,120,339,h,1,19-in. Acer V193,1280,1024,60,Genius SlimStar 100 USB keyboard,400,21,500,20,-4.5,0,"HSV 120,1,1"
1,25,f,Web from lab,4,69,2,1,120,378,h,1,19-in. Acer V193,1280,1024,60,Genius SlimStar 100 USB keyboard,400,21,501,21,-4.5,0,"HSV 120,1,1"
1,25,f,Web from lab,4,70,2,0,120,343,d,1,19-in. Acer V193,1280,1024,60,Genius SlimStar 100 USB keyboard,400,21,502,22,-7.5,0,"HSV 120,1,1"
1,25,f,Web from lab,4,71,2,1,120,330,h,1,19-in. Acer V193,1280,1024,60,Genius SlimStar 100 USB keyboard,400,21,503,23,-4.5,0,"HSV 120,1,1"
1,25,f,Web from lab,4,72,2,0,120,323,d,1,19-in. Acer V193,1280,1024,60,Genius SlimStar 100 USB keyboard,400,21,504,24,-7.5,0,"HSV 120,1,1"
1,25,f,Web from lab,4,73,2,1,180,347,h,1,19-in. Acer V193,1280,1024,60,Genius SlimStar 100 USB keyboard,400,22,505,1,-4.5,0,"HSV 180,1,1"
1,25,f,Web from lab,4,74,2,0,180,313,d,1,19-in. Acer V193,1280,1024,60,Genius SlimStar 100 USB keyboard,400,22,506,2,-7.5,0,"HSV 180,1,1"
1,25,f,Web from lab,4,75,2,1,180,309,h,1,19-in. Acer V193,1280,1024,60,Genius SlimStar 100 USB keyboard,400,22,507,3,-4.5,0,"HSV 180,1,1"
1,25,f,Web from lab,4,76,2,0,180,356,d,1,19-in. Acer V193,1280,1024,60,Genius SlimStar 100 USB keyboard,400,22,508,4,-7.5,0,"HSV 180,1,1"
1,25,f,Web from lab,4,77,2,1,180,301,h,1,19-in. Acer V193,1280,1024,60,Genius SlimStar 100 USB keyboard,400,22,509,5,-4.5,0,"HSV 180,1,1"
1,25,f,Web from lab,4,78,2,0,180,281,d,1,19-in. Acer V193,1280,1024,60,Genius SlimStar 100 USB keyboard,400,22,510,6,-7.5,0,"HSV 180,1,1"
1,25,f,Web from lab,4,79,2,1,180,325,h,1,19-in. Acer V193,1280,1024,60,Genius SlimStar 100 USB keyboard,400,22,511,7,-4.5,0,"HSV 180,1,1"
1,25,f,Web from lab,4,80,2,0,180,348,d,1,19-in. Acer V193,1280,1024,60,Genius SlimStar 100 USB keyboard,400,22,512,8,-7.5,0,"HSV 180,1,1"
1,25,f,Web from lab,4,81,2,0,180,454,d,1,19-in. Acer V193,1280,1024,60,Genius SlimStar 100 USB keyboard,400,22,513,9,-7.5,0,"HSV 180,1,1"
1,25,f,Web from lab,4,82,2,1,180,345,h,1,19-in. Acer V193,1280,1024,60,Genius SlimStar 100 USB keyboard,400,22,514,10,-4.5,0,"HSV 180,1,1"
1,25,f,Web from lab,4,83,2,1,180,360,h,1,19-in. Acer V193,1280,1024,60,Genius SlimStar 100 USB keyboard,400,22,515,11,-4.5,0,"HSV 180,1,1"
1,25,f,Web from lab,4,84,2,0,180,390,d,1,19-in. Acer V193,1280,1024,60,Genius SlimStar 100 USB keyboard,400,22,516,12,-7.5,0,"HSV 180,1,1"
1,25,f,Web from lab,4,85,2,0,180,396,d,1,19-in. Acer V193,1280,1024,60,Genius SlimStar 100 USB keyboard,400,22,517,13,-7.5,0,"HSV 180,1,1"
1,25,f,Web from lab,4,86,2,1,180,369,h,1,19-in. Acer V193,1280,1024,60,Genius SlimStar 100 USB keyboard,400,22,518,14,-4.5,0,"HSV 180,1,1"
1,25,f,Web from lab,4,87,2,1,180,327,h,1,19-in. Acer V193,1280,1024,60,Genius SlimStar 100 USB keyboard,400,22,519,15,-4.5,0,"HSV 180,1,1"
1,25,f,Web from lab,4,88,2,0,180,371,d,1,19-in. Acer V193,1280,1024,60,Genius SlimStar 100 USB keyboard,400,22,520,16,-7.5,0,"HSV 180,1,1"
1,25,f,Web from lab,4,89,2,0,180,416,d,1,19-in. Acer V193,1280,1024,60,Genius SlimStar 100 USB keyboard,400,22,521,17,-7.5,0,"HSV 180,1,1"
1,25,f,Web from lab,4,90,2,1,180,356,h,1,19-in. Acer V193,1280,1024,60,Genius SlimStar 100 USB keyboard,400,22,522,18,-4.5,0,"HSV 180,1,1"
1,25,f,Web from lab,4,91,2,0,180,371,d,1,19-in. Acer V193,1280,1024,60,Genius SlimStar 100 USB keyboard,400,22,523,19,-7.5,0,"HSV 180,1,1"
1,25,f,Web from lab,4,92,2,1,180,421,h,1,19-in. Acer V193,1280,1024,60,Genius SlimStar 100 USB keyboard,400,22,524,20,-4.5,0,"HSV 180,1,1"
1,25,f,Web from lab,4,93,2,1,180,331,h,1,19-in. Acer V193,1280,1024,60,Genius SlimStar 100 USB keyboard,400,22,525,21,-4.5,0,"HSV 180,1,1"
1,25,f,Web from lab,4,94,2,0,180,366,d,1,19-in. Acer V193,1280,1024,60,Genius SlimStar 100 USB keyboard,400,22,526,22,-7.5,0,"HSV 180,1,1"
1,25,f,Web from lab,4,95,2,1,180,326,h,1,19-in. Acer V193,1280,1024,60,Genius SlimStar 100 USB keyboard,400,22,527,23,-4.5,0,"HSV 180,1,1"
1,25,f,Web from lab,4,96,2,0,180,371,d,1,19-in. Acer V193,1280,1024,60,Genius SlimStar 100 USB keyboard,400,22,528,24,-7.5,0,"HSV 180,1,1"
1,25,f,Web from lab,4,97,2,0,360,473,d,1,19-in. Acer V193,1280,1024,60,Genius SlimStar 100 USB keyboard,400,23,529,1,-7.5,0,"HSV 360,1,1"
1,25,f,Web from lab,4,98,2,1,360,320,h,1,19-in. Acer V193,1280,1024,60,Genius SlimStar 100 USB keyboard,400,23,530,2,-4.5,0,"HSV 360,1,1"
1,25,f,Web from lab,4,99,2,1,360,326,h,1,19-in. Acer V193,1280,1024,60,Genius SlimStar 100 USB keyboard,400,23,531,3,-4.5,0,"HSV 360,1,1"
1,25,f,Web from lab,4,100,2,0,360,315,d,1,19-in. Acer V193,1280,1024,60,Genius SlimStar 100 USB keyboard,400,23,532,4,-7.5,0,"HSV 360,1,1"
1,25,f,Web from lab,4,101,2,1,360,309,h,1,19-in. Acer V193,1280,1024,60,Genius SlimStar 100 USB keyboard,400,23,533,5,-4.5,0,"HSV 360,1,1"
1,25,f,Web from lab,4,102,2,0,360,411,d,1,19-in. Acer V193,1280,1024,60,Genius SlimStar 100 USB keyboard,400,23,534,6,-7.5,0,"HSV 360,1,1"
1,25,f,Web from lab,4,103,2,0,360,381,d,1,19-in. Acer V193,1280,1024,60,Genius SlimStar 100 USB keyboard,400,23,535,7,-7.5,0,"HSV 360,1,1"
1,25,f,Web from lab,4,104,2,1,360,318,h,1,19-in. Acer V193,1280,1024,60,Genius SlimStar 100 USB keyboard,400,23,536,8,-4.5,0,"HSV 360,1,1"
1,25,f,Web from lab,4,105,2,1,360,326,h,1,19-in. Acer V193,1280,1024,60,Genius SlimStar 100 USB keyboard,400,23,537,9,-4.5,0,"HSV 360,1,1"
1,25,f,Web from lab,4,106,2,0,360,363,d,1,19-in. Acer V193,1280,1024,60,Genius SlimStar 100 USB keyboard,400,23,538,10,-7.5,0,"HSV 360,1,1"
1,25,f,Web from lab,4,107,2,0,360,386,d,1,19-in. Acer V193,1280,1024,60,Genius SlimStar 100 USB keyboard,400,23,539,11,-7.5,0,"HSV 360,1,1"
1,25,f,Web from lab,4,108,2,1,360,363,h,1,19-in. Acer V193,1280,1024,60,Genius SlimStar 100 USB keyboard,400,23,540,12,-4.5,0,"HSV 360,1,1"
1,25,f,Web from lab,4,109,2,1,360,367,h,1,19-in. Acer V193,1280,1024,60,Genius SlimStar 100 USB keyboard,400,23,541,13,-4.5,0,"HSV 360,1,1"
1,25,f,Web from lab,4,110,2,0,360,359,d,1,19-in. Acer V193,1280,1024,60,Genius SlimStar 100 USB keyboard,400,23,542,14,-7.5,0,"HSV 360,1,1"
1,25,f,Web from lab,4,111,2,1,360,379,h,1,19-in. Acer V193,1280,1024,60,Genius SlimStar 100 USB keyboard,400,23,543,15,-4.5,0,"HSV 360,1,1"
1,25,f,Web from lab,4,112,2,0,360,363,d,1,19-in. Acer V193,1280,1024,60,Genius SlimStar 100 USB keyboard,400,23,544,16,-7.5,0,"HSV 360,1,1"
1,25,f,Web from lab,4,113,2,1,360,359,h,1,19-in. Acer V193,1280,1024,60,Genius SlimStar 100 USB keyboard,400,23,545,17,-4.5,0,"HSV 360,1,1"
1,25,f,Web from lab,4,114,2,0,360,373,d,1,19-in. Acer V193,1280,1024,60,Genius SlimStar 100 USB keyboard,400,23,546,18,-7.5,0,"HSV 360,1,1"
1,25,f,Web from lab,4,115,2,1,360,329,h,1,19-in. Acer V193,1280,1024,60,Genius SlimStar 100 USB keyboard,400,23,547,19,-4.5,0,"HSV 360,1,1"
1,25,f,Web from lab,4,116,2,0,360,362,d,1,19-in. Acer V193,1280,1024,60,Genius SlimStar 100 USB keyboard,400,23,548,20,-7.5,0,"HSV 360,1,1"
1,25,f,Web from lab,4,117,2,0,360,428,d,1,19-in. Acer V193,1280,1024,60,Genius SlimStar 100 USB keyboard,400,23,549,21,-7.5,0,"HSV 360,1,1"
1,25,f,Web from lab,4,118,2,1,360,354,h,1,19-in. Acer V193,1280,1024,60,Genius SlimStar 100 USB keyboard,400,23,550,22,-4.5,0,"HSV 360,1,1"
1,25,f,Web from lab,4,119,2,0,360,377,d,1,19-in. Acer V193,1280,1024,60,Genius SlimStar 100 USB keyboard,400,23,551,23,-7.5,0,"HSV 360,1,1"
1,25,f,Web from lab,4,120,2,1,360,360,h,1,19-in. Acer V193,1280,1024,60,Genius SlimStar 100 USB keyboard,400,23,552,24,-4.5,0,"HSV 360,1,1"
1,25,f,Web from lab,4,121,2,1,60,505,h,1,19-in. Acer V193,1280,1024,60,Genius SlimStar 100 USB keyboard,400,24,553,1,-4.5,0,"HSV 60,1,1"
1,25,f,Web from lab,4,122,2,0,60,334,d,1,19-in. Acer V193,1280,1024,60,Genius SlimStar 100 USB keyboard,400,24,554,2,-7.5,0,"HSV 60,1,1"
1,25,f,Web from lab,4,123,2,1,60,339,h,1,19-in. Acer V193,1280,1024,60,Genius SlimStar 100 USB keyboard,400,24,555,3,-4.5,0,"HSV 60,1,1"
1,25,f,Web from lab,4,124,2,0,60,361,d,1,19-in. Acer V193,1280,1024,60,Genius SlimStar 100 USB keyboard,400,24,556,4,-7.5,0,"HSV 60,1,1"
1,25,f,Web from lab,4,125,2,0,60,334,d,1,19-in. Acer V193,1280,1024,60,Genius SlimStar 100 USB keyboard,400,24,557,5,-7.5,0,"HSV 60,1,1"
1,25,f,Web from lab,4,126,2,1,60,309,h,1,19-in. Acer V193,1280,1024,60,Genius SlimStar 100 USB keyboard,400,24,558,6,-4.5,0,"HSV 60,1,1"
1,25,f,Web from lab,4,127,2,0,60,352,d,1,19-in. Acer V193,1280,1024,60,Genius SlimStar 100 USB keyboard,400,24,559,7,-7.5,0,"HSV 60,1,1"
1,25,f,Web from lab,4,128,2,1,60,307,h,1,19-in. Acer V193,1280,1024,60,Genius SlimStar 100 USB keyboard,400,24,560,8,-4.5,0,"HSV 60,1,1"
1,25,f,Web from lab,4,129,2,1,60,407,h,1,19-in. Acer V193,1280,1024,60,Genius SlimStar 100 USB keyboard,400,24,561,9,-4.5,0,"HSV 60,1,1"
1,25,f,Web from lab,4,130,2,0,60,377,d,1,19-in. Acer V193,1280,1024,60,Genius SlimStar 100 USB keyboard,400,24,562,10,-7.5,0,"HSV 60,1,1"
1,25,f,Web from lab,4,131,2,1,60,323,h,1,19-in. Acer V193,1280,1024,60,Genius SlimStar 100 USB keyboard,400,24,563,11,-4.5,0,"HSV 60,1,1"
1,25,f,Web from lab,4,132,2,0,60,360,d,1,19-in. Acer V193,1280,1024,60,Genius SlimStar 100 USB keyboard,400,24,564,12,-7.5,0,"HSV 60,1,1"
1,25,f,Web from lab,4,133,2,0,60,367,d,1,19-in. Acer V193,1280,1024,60,Genius SlimStar 100 USB keyboard,400,24,565,13,-7.5,0,"HSV 60,1,1"
1,25,f,Web from lab,4,134,2,1,60,345,h,1,19-in. Acer V193,1280,1024,60,Genius SlimStar 100 USB keyboard,400,24,566,14,-4.5,0,"HSV 60,1,1"
1,25,f,Web from lab,4,135,2,1,60,316,h,1,19-in. Acer V193,1280,1024,60,Genius SlimStar 100 USB keyboard,400,24,567,15,-4.5,0,"HSV 60,1,1"
1,25,f,Web from lab,4,136,2,0,60,369,d,1,19-in. Acer V193,1280,1024,60,Genius SlimStar 100 USB keyboard,400,24,568,16,-7.5,0,"HSV 60,1,1"
1,25,f,Web from lab,4,137,2,1,60,367,h,1,19-in. Acer V193,1280,1024,60,Genius SlimStar 100 USB keyboard,400,24,569,17,-4.5,0,"HSV 60,1,1"
1,25,f,Web from lab,4,138,2,0,60,324,d,1,19-in. Acer V193,1280,1024,60,Genius SlimStar 100 USB keyboard,400,24,570,18,-7.5,0,"HSV 60,1,1"
1,25,f,Web from lab,4,139,2,0,60,382,d,1,19-in. Acer V193,1280,1024,60,Genius SlimStar 100 USB keyboard,400,24,571,19,-7.5,0,"HSV 60,1,1"
1,25,f,Web from lab,4,140,2,1,60,337,h,1,19-in. Acer V193,1280,1024,60,Genius SlimStar 100 USB keyboard,400,24,572,20,-4.5,0,"HSV 60,1,1"
1,25,f,Web from lab,4,141,2,1,60,326,h,1,19-in. Acer V193,1280,1024,60,Genius SlimStar 100 USB keyboard,400,24,573,21,-4.5,0,"HSV 60,1,1"
1,25,f,Web from lab,4,142,2,0,60,361,d,1,19-in. Acer V193,1280,1024,60,Genius SlimStar 100 USB keyboard,400,24,574,22,-7.5,0,"HSV 60,1,1"
1,25,f,Web from lab,4,143,2,1,60,312,h,1,19-in. Acer V193,1280,1024,60,Genius SlimStar 100 USB keyboard,400,24,575,23,-4.5,0,"HSV 60,1,1"
1,25,f,Web from lab,4,144,2,0,60,338,d,1,19-in. Acer V193,1280,1024,60,Genius SlimStar 100 USB keyboard,400,24,576,24,-7.5,0,"HSV 60,1,1"
2,19,f,Response box,4,1,2,1,300,70,2,0,19-in. Acer V193,1280,1024,60,Cedrus RB-830,400,25,577,1,-4.5,0,"HSV 300,1,1"
2,19,f,Response box,4,2,2,0,300,336,2,1,19-in. Acer V193,1280,1024,60,Cedrus RB-830,400,25,578,2,-7.5,0,"HSV 300,1,1"
2,19,f,Response box,4,3,2,0,300,341,2,1,19-in. Acer V193,1280,1024,60,Cedrus RB-830,400,25,579,3,-7.5,0,"HSV 300,1,1"
2,19,f,Response box,4,4,2,1,300,253,5,1,19-in. Acer V193,1280,1024,60,Cedrus RB-830,400,25,580,4,-4.5,0,"HSV 300,1,1"
2,19,f,Response box,4,5,2,1,300,337,5,1,19-in. Acer V193,1280,1024,60,Cedrus RB-830,400,25,581,5,-4.5,0,"HSV 300,1,1"
2,19,f,Response box,4,6,2,0,300,234,2,1,19-in. Acer V193,1280,1024,60,Cedrus RB-830,400,25,582,6,-7.5,0,"HSV 300,1,1"
2,19,f,Response box,4,7,2,0,300,257,2,1,19-in. Acer V193,1280,1024,60,Cedrus RB-830,400,25,583,7,-7.5,0,"HSV 300,1,1"
2,19,f,Response box,4,8,2,1,300,240,5,1,19-in. Acer V193,1280,1024,60,Cedrus RB-830,400,25,584,8,-4.5,0,"HSV 300,1,1"
2,19,f,Response box,4,9,2,0,300,263,2,1,19-in. Acer V193,1280,1024,60,Cedrus RB-830,400,25,585,9,-7.5,0,"HSV 300,1,1"
2,19,f,Response box,4,10,2,1,300,234,5,1,19-in. Acer V193,1280,1024,60,Cedrus RB-830,400,25,586,10,-4.5,0,"HSV 300,1,1"
2,19,f,Response box,4,11,2,0,300,195,2,1,19-in. Acer V193,1280,1024,60,Cedrus RB-830,400,25,587,11,-7.5,0,"HSV 300,1,1"
2,19,f,Response box,4,12,2,1,300,206,5,1,19-in. Acer V193,1280,1024,60,Cedrus RB-830,400,25,588,12,-4.5,0,"HSV 300,1,1"
2,19,f,Response box,4,13,2,1,300,163,2,0,19-in. Acer V193,1280,1024,60,Cedrus RB-830,400,25,589,13,-4.5,0,"HSV 300,1,1"
2,19,f,Response box,4,14,2,0,300,278,2,1,19-in. Acer V193,1280,1024,60,Cedrus RB-830,400,25,590,14,-7.5,0,"HSV 300,1,1"
2,19,f,Response box,4,15,2,1,300,222,5,1,19-in. Acer V193,1280,1024,60,Cedrus RB-830,400,25,591,15,-4.5,0,"HSV 300,1,1"
2,19,f,Response box,4,16,2,0,300,186,2,1,19-in. Acer V193,1280,1024,60,Cedrus RB-830,400,25,592,16,-7.5,0,"HSV 300,1,1"
2,19,f,Response box,4,17,2,1,300,190,5,1,19-in. Acer V193,1280,1024,60,Cedrus RB-830,400,25,593,17,-4.5,0,"HSV 300,1,1"
2,19,f,Response box,4,18,2,0,300,179,2,1,19-in. Acer V193,1280,1024,60,Cedrus RB-830,400,25,594,18,-7.5,0,"HSV 300,1,1"
2,19,f,Response box,4,19,2,0,300,172,5,0,19-in. Acer V193,1280,1024,60,Cedrus RB-830,400,25,595,19,-7.5,0,"HSV 300,1,1"
2,19,f,Response box,4,20,2,1,300,313,5,1,19-in. Acer V193,1280,1024,60,Cedrus RB-830,400,25,596,20,-4.5,0,"HSV 300,1,1"
2,19,f,Response box,4,21,2,0,300,193,2,1,19-in. Acer V193,1280,1024,60,Cedrus RB-830,400,25,597,21,-7.5,0,"HSV 300,1,1"
2,19,f,Response box,4,22,2,1,300,212,5,1,19-in. Acer V193,1280,1024,60,Cedrus RB-830,400,25,598,22,-4.5,0,"HSV 300,1,1"
2,19,f,Response box,4,23,2,0,300,284,2,1,19-in. Acer V193,1280,1024,60,Cedrus RB-830,400,25,599,23,-7.5,0,"HSV 300,1,1"
2,19,f,Response box,4,24,2,1,300,206,5,1,19-in. Acer V193,1280,1024,60,Cedrus RB-830,400,25,600,24,-4.5,0,"HSV 300,1,1"
2,19,f,Response box,4,25,2,1,240,469,5,1,19-in. Acer V193,1280,1024,60,Cedrus RB-830,400,26,601,1,-4.5,0,"HSV 240,1,1"
2,19,f,Response box,4,26,2,0,240,279,2,1,19-in. Acer V193,1280,1024,60,Cedrus RB-830,400,26,602,2,-7.5,0,"HSV 240,1,1"
2,19,f,Response box,4,27,2,1,240,245,5,1,19-in. Acer V193,1280,1024,60,Cedrus RB-830,400,26,603,3,-4.5,0,"HSV 240,1,1"
2,19,f,Response box,4,28,2,0,240,193,2,1,19-in. Acer V193,1280,1024,60,Cedrus RB-830,400,26,604,4,-7.5,0,"HSV 240,1,1"
2,19,f,Response box,4,29,2,1,240,189,5,1,19-in. Acer V193,1280,1024,60,Cedrus RB-830,400,26,605,5,-4.5,0,"HSV 240,1,1"
2,19,f,Response box,4,30,2,0,240,109,2,1,19-in. Acer V193,1280,1024,60,Cedrus RB-830,400,26,606,6,-7.5,0,"HSV 240,1,1"
2,19,f,Response box,4,31,2,1,240,145,5,1,19-in. Acer V193,1280,1024,60,Cedrus RB-830,400,26,607,7,-4.5,0,"HSV 240,1,1"
2,19,f,Response box,4,32,2,0,240,167,2,1,19-in. Acer V193,1280,1024,60,Cedrus RB-830,400,26,608,8,-7.5,0,"HSV 240,1,1"
2,19,f,Response box,4,33,2,1,240,206,5,1,19-in. Acer V193,1280,1024,60,Cedrus RB-830,400,26,609,9,-4.5,0,"HSV 240,1,1"
2,19,f,Response box,4,34,2,0,240,201,2,1,19-in. Acer V193,1280,1024,60,Cedrus RB-830,400,26,610,10,-7.5,0,"HSV 240,1,1"
2,19,f,Response box,4,35,2,1,240,211,5,1,19-in. Acer V193,1280,1024,60,Cedrus RB-830,400,26,611,11,-4.5,0,"HSV 240,1,1"
2,19,f,Response box,4,36,2,0,240,178,2,1,19-in. Acer V193,1280,1024,60,Cedrus RB-830,400,26,612,12,-7.5,0,"HSV 240,1,1"
2,19,f,Response box,4,37,2,1,240,168,5,1,19-in. Acer V193,1280,1024,60,Cedrus RB-830,400,26,613,13,-4.5,0,"HSV 240,1,1"
2,19,f,Response box,4,38,2,0,240,162,2,1,19-in. Acer V193,1280,1024,60,Cedrus RB-830,400,26,614,14,-7.5,0,"HSV 240,1,1"
2,19,f,Response box,4,39,2,1,240,240,5,1,19-in. Acer V193,1280,1024,60,Cedrus RB-830,400,26,615,15,-4.5,0,"HSV 240,1,1"
2,19,f,Response box,4,40,2,0,240,185,2,1,19-in. Acer V193,1280,1024,60,Cedrus RB-830,400,26,616,16,-7.5,0,"HSV 240,1,1"
2,19,f,Response box,4,41,2,0,240,200,5,0,19-in. Acer V193,1280,1024,60,Cedrus RB-830,400,26,617,17,-7.5,0,"HSV 240,1,1"
2,19,f,Response box,4,42,2,1,240,274,5,1,19-in. Acer V193,1280,1024,60,Cedrus RB-830,400,26,618,18,-4.5,0,"HSV 240,1,1"
2,19,f,Response box,4,43,2,0,240,128,2,1,19-in. Acer V193,1280,1024,60,Cedrus RB-830,400,26,619,19,-7.5,0,"HSV 240,1,1"
2,19,f,Response box,4,44,2,1,240,252,5,1,19-in. Acer V193,1280,1024,60,Cedrus RB-830,400,26,620,20,-4.5,0,"HSV 240,1,1"
2,19,f,Response box,4,45,2,0,240,181,2,1,19-in. Acer V193,1280,1024,60,Cedrus RB-830,400,26,621,21,-7.5,0,"HSV 240,1,1"
2,19,f,Response box,4,46,2,1,240,180,5,1,19-in. Acer V193,1280,1024,60,Cedrus RB-830,400,26,622,22,-4.5,0,"HSV 240,1,1"
2,19,f,Response box,4,47,2,0,240,174,2,1,19-in. Acer V193,1280,1024,60,Cedrus RB-830,400,26,623,23,-7.5,0,"HSV 240,1,1"
2,19,f,Response box,4,48,2,1,240,148,5,1,19-in. Acer V193,1280,1024,60,Cedrus RB-830,400,26,624,24,-4.5,0,"HSV 240,1,1"
2,19,f,Response box,4,49,2,0,60,295,2,1,19-in. Acer V193,1280,1024,60,Cedrus RB-830,400,27,625,1,-7.5,0,"HSV 60,1,1"
2,19,f,Response box,4,50,2,1,60,191,5,1,19-in. Acer V193,1280,1024,60,Cedrus RB-830,400,27,626,2,-4.5,0,"HSV 60,1,1"
2,19,f,Response box,4,51,2,0,60,119,2,1,19-in. Acer V193,1280,1024,60,Cedrus RB-830,400,27,627,3,-7.5,0,"HSV 60,1,1"
2,19,f,Response box,4,52,2,1,60,161,5,1,19-in. Acer V193,1280,1024,60,Cedrus RB-830,400,27,628,4,-4.5,0,"HSV 60,1,1"
2,19,f,Response box,4,53,2,1,60,179,2,0,19-in. Acer V193,1280,1024,60,Cedrus RB-830,400,27,629,5,-4.5,0,"HSV 60,1,1"
2,19,f,Response box,4,54,2,0,60,249,2,1,19-in. Acer V193,1280,1024,60,Cedrus RB-830,400,27,630,6,-7.5,0,"HSV 60,1,1"
2,19,f,Response box,4,55,2,0,60,91,5,0,19-in. Acer V193,1280,1024,60,Cedrus RB-830,400,27,631,7,-7.5,0,"HSV 60,1,1"
2,19,f,Response box,4,56,2,1,60,188,5,1,19-in. Acer V193,1280,1024,60,Cedrus RB-830,400,27,632,8,-4.5,0,"HSV 60,1,1"
2,19,f,Response box,4,57,2,1,60,191,2,0,19-in. Acer V193,1280,1024,60,Cedrus RB-830,400,27,633,9,-4.5,0,"HSV 60,1,1"
2,19,f,Response box,4,58,2,0,60,279,2,1,19-in. Acer V193,1280,1024,60,Cedrus RB-830,400,27,634,10,-7.5,0,"HSV 60,1,1"
2,19,f,Response box,4,59,2,0,60,197,5,0,19-in. Acer V193,1280,1024,60,Cedrus RB-830,400,27,635,11,-7.5,0,"HSV 60,1,1"
2,19,f,Response box,4,60,2,1,60,287,5,1,19-in. Acer V193,1280,1024,60,Cedrus RB-830,400,27,636,12,-4.5,0,"HSV 60,1,1"
2,19,f,Response box,4,61,2,1,60,335,5,1,19-in. Acer V193,1280,1024,60,Cedrus RB-830,400,27,637,13,-4.5,0,"HSV 60,1,1"
2,19,f,Response box,4,62,2,0,60,290,5,0,19-in. Acer V193,1280,1024,60,Cedrus RB-830,400,27,638,14,-7.5,0,"HSV 60,1,1"
2,19,f,Response box,4,63,2,1,60,316,5,1,19-in. Acer V193,1280,1024,60,Cedrus RB-830,400,27,639,15,-4.5,0,"HSV 60,1,1"
2,19,f,Response box,4,64,2,0,60,272,2,1,19-in. Acer V193,1280,1024,60,Cedrus RB-830,400,27,640,16,-7.5,0,"HSV 60,1,1"
2,19,f,Response box,4,65,2,1,60,242,5,1,19-in. Acer V193,1280,1024,60,Cedrus RB-830,400,27,641,17,-4.5,0,"HSV 60,1,1"
2,19,f,Response box,4,66,2,0,60,184,2,1,19-in. Acer V193,1280,1024,60,Cedrus RB-830,400,27,642,18,-7.5,0,"HSV 60,1,1"
2,19,f,Response box,4,67,2,1,60,252,5,1,19-in. Acer V193,1280,1024,60,Cedrus RB-830,400,27,643,19,-4.5,0,"HSV 60,1,1"
2,19,f,Response box,4,68,2,0,60,132,2,1,19-in. Acer V193,1280,1024,60,Cedrus RB-830,400,27,644,20,-7.5,0,"HSV 60,1,1"
2,19,f,Response box,4,69,2,1,60,174,5,1,19-in. Acer V193,1280,1024,60,Cedrus RB-830,400,27,645,21,-4.5,0,"HSV 60,1,1"
2,19,f,Response box,4,70,2,0,60,171,2,1,19-in. Acer V193,1280,1024,60,Cedrus RB-830,400,27,646,22,-7.5,0,"HSV 60,1,1"
2,19,f,Response box,4,71,2,0,60,168,5,0,19-in. Acer V193,1280,1024,60,Cedrus RB-830,400,27,647,23,-7.5,0,"HSV 60,1,1"
2,19,f,Response box,4,72,2,1,60,295,5,1,19-in. Acer V193,1280,1024,60,Cedrus RB-830,400,27,648,24,-4.5,0,"HSV 60,1,1"
2,19,f,Response box,4,73,2,1,360,297,5,1,19-in. Acer V193,1280,1024,60,Cedrus RB-830,400,28,649,1,-4.5,0,"HSV 360,1,1"
2,19,f,Response box,4,74,2,0,360,174,5,0,19-in. Acer V193,1280,1024,60,Cedrus RB-830,400,28,650,2,-7.5,0,"HSV 360,1,1"
2,19,f,Response box,4,75,2,0,360,276,2,1,19-in. Acer V193,1280,1024,60,Cedrus RB-830,400,28,651,3,-7.5,0,"HSV 360,1,1"
2,19,f,Response box,4,76,2,1,360,224,5,1,19-in. Acer V193,1280,1024,60,Cedrus RB-830,400,28,652,4,-4.5,0,"HSV 360,1,1"
2,19,f,Response box,4,77,2,1,360,161,2,0,19-in. Acer V193,1280,1024,60,Cedrus RB-830,400,28,653,5,-4.5,0,"HSV 360,1,1"
2,19,f,Response box,4,78,2,0,360,269,2,1,19-in. Acer V193,1280,1024,60,Cedrus RB-830,400,28,654,6,-7.5,0,"HSV 360,1,1"
2,19,f,Response box,4,79,2,0,360,240,2,1,19-in. Acer V193,1280,1024,60,Cedrus RB-830,400,28,655,7,-7.5,0,"HSV 360,1,1"
2,19,f,Response box,4,80,2,1,360,256,5,1,19-in. Acer V193,1280,1024,60,Cedrus RB-830,400,28,656,8,-4.5,0,"HSV 360,1,1"
2,19,f,Response box,4,81,2,0,360,278,2,1,19-in. Acer V193,1280,1024,60,Cedrus RB-830,400,28,657,9,-7.5,0,"HSV 360,1,1"
2,19,f,Response box,4,82,2,1,360,213,5,1,19-in. Acer V193,1280,1024,60,Cedrus RB-830,400,28,658,10,-4.5,0,"HSV 360,1,1"
2,19,f,Response box,4,83,2,0,360,188,2,1,19-in. Acer V193,1280,1024,60,Cedrus RB-830,400,28,659,11,-7.5,0,"HSV 360,1,1"
2,19,f,Response box,4,84,2,1,360,272,5,1,19-in. Acer V193,1280,1024,60,Cedrus RB-830,400,28,660,12,-4.5,0,"HSV 360,1,1"
2,19,f,Response box,4,85,2,1,360,331,5,1,19-in. Acer V193,1280,1024,60,Cedrus RB-830,400,28,661,13,-4.5,0,"HSV 360,1,1"
2,19,f,Response box,4,86,2,0,360,193,2,1,19-in. Acer V193,1280,1024,60,Cedrus RB-830,400,28,662,14,-7.5,0,"HSV 360,1,1"
2,19,f,Response box,4,87,2,0,360,273,2,1,19-in. Acer V193,1280,1024,60,Cedrus RB-830,400,28,663,15,-7.5,0,"HSV 360,1,1"
2,19,f,Response box,4,88,2,1,360,192,5,1,19-in. Acer V193,1280,1024,60,Cedrus RB-830,400,28,664,16,-4.5,0,"HSV 360,1,1"
2,19,f,Response box,4,89,2,0,360,213,2,1,19-in. Acer V193,1280,1024,60,Cedrus RB-830,400,28,665,17,-7.5,0,"HSV 360,1,1"
2,19,f,Response box,4,90,2,1,360,238,5,1,19-in. Acer V193,1280,1024,60,Cedrus RB-830,400,28,666,18,-4.5,0,"HSV 360,1,1"
2,19,f,Response box,4,91,2,0,360,263,2,1,19-in. Acer V193,1280,1024,60,Cedrus RB-830,400,28,667,19,-7.5,0,"HSV 360,1,1"
2,19,f,Response box,4,92,2,1,360,231,5,1,19-in. Acer V193,1280,1024,60,Cedrus RB-830,400,28,668,20,-4.5,0,"HSV 360,1,1"
2,19,f,Response box,4,93,2,0,360,221,2,1,19-in. Acer V193,1280,1024,60,Cedrus RB-830,400,28,669,21,-7.5,0,"HSV 360,1,1"
2,19,f,Response box,4,94,2,1,360,215,5,1,19-in. Acer V193,1280,1024,60,Cedrus RB-830,400,28,670,22,-4.5,0,"HSV 360,1,1"
2,19,f,Response box,4,95,2,1,360,381,5,1,19-in. Acer V193,1280,1024,60,Cedrus RB-830,400,28,671,23,-4.5,0,"HSV 360,1,1"
2,19,f,Response box,4,96,2,0,360,268,2,1,19-in. Acer V193,1280,1024,60,Cedrus RB-830,400,28,672,24,-7.5,0,"HSV 360,1,1"
2,19,f,Response box,4,97,2,0,120,300,2,1,19-in. Acer V193,1280,1024,60,Cedrus RB-830,400,29,673,1,-7.5,0,"HSV 120,1,1"
2,19,f,Response box,4,98,2,1,120,228,5,1,19-in. Acer V193,1280,1024,60,Cedrus RB-830,400,29,674,2,-4.5,0,"HSV 120,1,1"
2,19,f,Response box,4,99,2,0,120,161,2,1,19-in. Acer V193,1280,1024,60,Cedrus RB-830,400,29,675,3,-7.5,0,"HSV 120,1,1"
2,19,f,Response box,4,100,2,1,120,193,5,1,19-in. Acer V193,1280,1024,60,Cedrus RB-830,400,29,676,4,-4.5,0,"HSV 120,1,1"
2,19,f,Response box,4,101,2,0,120,113,2,1,19-in. Acer V193,1280,1024,60,Cedrus RB-830,400,29,677,5,-7.5,0,"HSV 120,1,1"
2,19,f,Response box,4,102,2,1,120,196,5,1,19-in. Acer V193,1280,1024,60,Cedrus RB-830,400,29,678,6,-4.5,0,"HSV 120,1,1"
2,19,f,Response box,4,103,2,1,120,351,5,1,19-in. Acer V193,1280,1024,60,Cedrus RB-830,400,29,679,7,-4.5,0,"HSV 120,1,1"
2,19,f,Response box,4,104,2,0,120,280,2,1,19-in. Acer V193,1280,1024,60,Cedrus RB-830,400,29,680,8,-7.5,0,"HSV 120,1,1"
2,19,f,Response box,4,105,2,1,120,199,5,1,19-in. Acer V193,1280,1024,60,Cedrus RB-830,400,29,681,9,-4.5,0,"HSV 120,1,1"
2,19,f,Response box,4,106,2,0,120,194,2,1,19-in. Acer V193,1280,1024,60,Cedrus RB-830,400,29,682,10,-7.5,0,"HSV 120,1,1"
2,19,f,Response box,4,107,2,0,120,193,5,0,19-in. Acer V193,1280,1024,60,Cedrus RB-830,400,29,683,11,-7.5,0,"HSV 120,1,1"
2,19,f,Response box,4,108,2,1,120,343,5,1,19-in. Acer V193,1280,1024,60,Cedrus RB-830,400,29,684,12,-4.5,0,"HSV 120,1,1"
2,19,f,Response box,4,109,2,1,120,241,2,0,19-in. Acer V193,1280,1024,60,Cedrus RB-830,400,29,685,13,-4.5,0,"HSV 120,1,1"
2,19,f,Response box,4,110,2,0,120,291,2,1,19-in. Acer V193,1280,1024,60,Cedrus RB-830,400,29,686,14,-7.5,0,"HSV 120,1,1"
2,19,f,Response box,4,111,2,1,120,276,5,1,19-in. Acer V193,1280,1024,60,Cedrus RB-830,400,29,687,15,-4.5,0,"HSV 120,1,1"
2,19,f,Response box,4,112,2,0,120,213,2,1,19-in. Acer V193,1280,1024,60,Cedrus RB-830,400,29,688,16,-7.5,0,"HSV 120,1,1"
2,19,f,Response box,4,113,2,0,120,202,5,0,19-in. Acer V193,1280,1024,60,Cedrus RB-830,400,29,689,17,-7.5,0,"HSV 120,1,1"
2,19,f,Response box,4,114,2,1,120,352,5,1,19-in. Acer V193,1280,1024,60,Cedrus RB-830,400,29,690,18,-4.5,0,"HSV 120,1,1"
2,19,f,Response box,4,115,2,0,120,199,2,1,19-in. Acer V193,1280,1024,60,Cedrus RB-830,400,29,691,19,-7.5,0,"HSV 120,1,1"
2,19,f,Response box,4,116,2,1,120,250,5,1,19-in. Acer V193,1280,1024,60,Cedrus RB-830,400,29,692,20,-4.5,0,"HSV 120,1,1"
2,19,f,Response box,4,117,2,1,120,323,5,1,19-in. Acer V193,1280,1024,60,Cedrus RB-830,400,29,693,21,-4.5,0,"HSV 120,1,1"
2,19,f,Response box,4,118,2,0,120,224,2,1,19-in. Acer V193,1280,1024,60,Cedrus RB-830,400,29,694,22,-7.5,0,"HSV 120,1,1"
2,19,f,Response box,4,119,2,1,120,241,5,1,19-in. Acer V193,1280,1024,60,Cedrus RB-830,400,29,695,23,-4.5,0,"HSV 120,1,1"
2,19,f,Response box,4,120,2,0,120,198,2,1,19-in. Acer V193,1280,1024,60,Cedrus RB-830,400,29,696,24,-7.5,0,"HSV 120,1,1"
2,19,f,Response box,4,121,2,0,180,293,2,1,19-in. Acer V193,1280,1024,60,Cedrus RB-830,400,30,697,1,-7.5,0,"HSV 180,1,1"
2,19,f,Response box,4,122,2,1,180,251,5,1,19-in. Acer V193,1280,1024,60,Cedrus RB-830,400,30,698,2,-4.5,0,"HSV 180,1,1"
2,19,f,Response box,4,123,2,1,180,225,2,0,19-in. Acer V193,1280,1024,60,Cedrus RB-830,400,30,699,3,-4.5,0,"HSV 180,1,1"
2,19,f,Response box,4,124,2,0,180,316,2,1,19-in. Acer V193,1280,1024,60,Cedrus RB-830,400,30,700,4,-7.5,0,"HSV 180,1,1"
2,19,f,Response box,4,125,2,0,180,371,2,1,19-in. Acer V193,1280,1024,60,Cedrus RB-830,400,30,701,5,-7.5,0,"HSV 180,1,1"
2,19,f,Response box,4,126,2,1,180,259,5,1,19-in. Acer V193,1280,1024,60,Cedrus RB-830,400,30,702,6,-4.5,0,"HSV 180,1,1"
2,19,f,Response box,4,127,2,1,180,298,5,1,19-in. Acer V193,1280,1024,60,Cedrus RB-830,400,30,703,7,-4.5,0,"HSV 180,1,1"
2,19,f,Response box,4,128,2,0,180,270,2,1,19-in. Acer V193,1280,1024,60,Cedrus RB-830,400,30,704,8,-7.5,0,"HSV 180,1,1"
2,19,f,Response box,4,129,2,1,180,291,5,1,19-in. Acer V193,1280,1024,60,Cedrus RB-830,400,30,705,9,-4.5,0,"HSV 180,1,1"
2,19,f,Response box,4,130,2,0,180,264,2,1,19-in. Acer V193,1280,1024,60,Cedrus RB-830,400,30,706,10,-7.5,0,"HSV 180,1,1"
2,19,f,Response box,4,131,2,0,180,323,2,1,19-in. Acer V193,1280,1024,60,Cedrus RB-830,400,30,707,11,-7.5,0,"HSV 180,1,1"
2,19,f,Response box,4,132,2,1,180,296,5,1,19-in. Acer V193,1280,1024,60,Cedrus RB-830,400,30,708,12,-4.5,0,"HSV 180,1,1"
2,19,f,Response box,4,133,2,0,180,209,2,1,19-in. Acer V193,1280,1024,60,Cedrus RB-830,400,30,709,13,-7.5,0,"HSV 180,1,1"
2,19,f,Response box,4,134,2,1,180,216,5,1,19-in. Acer V193,1280,1024,60,Cedrus RB-830,400,30,710,14,-4.5,0,"HSV 180,1,1"
2,19,f,Response box,4,135,2,0,180,230,2,1,19-in. Acer V193,1280,1024,60,Cedrus RB-830,400,30,711,15,-7.5,0,"HSV 180,1,1"
2,19,f,Response box,4,136,2,1,180,184,5,1,19-in. Acer V193,1280,1024,60,Cedrus RB-830,400,30,712,16,-4.5,0,"HSV 180,1,1"
2,19,f,Response box,4,137,2,1,180,219,2,0,19-in. Acer V193,1280,1024,60,Cedrus RB-830,400,30,713,17,-4.5,0,"HSV 180,1,1"
2,19,f,Response box,4,138,2,0,180,320,2,1,19-in. Acer V193,1280,1024,60,Cedrus RB-830,400,30,714,18,-7.5,0,"HSV 180,1,1"
2,19,f,Response box,4,139,2,1,180,241,5,1,19-in. Acer V193,1280,1024,60,Cedrus RB-830,400,30,715,19,-4.5,0,"HSV 180,1,1"
2,19,f,Response box,4,140,2,0,180,242,2,1,19-in. Acer V193,1280,1024,60,Cedrus RB-830,400,30,716,20,-7.5,0,"HSV 180,1,1"
2,19,f,Response box,4,141,2,1,180,244,5,1,19-in. Acer V193,1280,1024,60,Cedrus RB-830,400,30,717,21,-4.5,0,"HSV 180,1,1"
2,19,f,Response box,4,142,2,0,180,208,2,1,19-in. Acer V193,1280,1024,60,Cedrus RB-830,400,30,718,22,-7.5,0,"HSV 180,1,1"
2,19,f,Response box,4,143,2,0,180,287,2,1,19-in. Acer V193,1280,1024,60,Cedrus RB-830,400,30,719,23,-7.5,0,"HSV 180,1,1"
2,19,f,Response box,4,144,2,1,180,231,5,1,19-in. Acer V193,1280,1024,60,Cedrus RB-830,400,30,720,24,-4.5,0,"HSV 180,1,1"
2,19,f,Web from home,1,1,2,1,360,1731,h,1,,,,,,,31,721,1,-4.5,0,"HSV 360,1,1"
2,19,f,Web from home,1,2,2,0,360,1165,d,1,,,,,,,31,722,2,-7.5,0,"HSV 360,1,1"
2,19,f,Web from home,1,3,2,0,360,543,d,1,,,,,,,31,723,3,-7.5,0,"HSV 360,1,1"
2,19,f,Web from home,1,4,2,1,360,707,h,1,,,,,,,31,724,4,-4.5,0,"HSV 360,1,1"
2,19,f,Web from home,1,5,2,1,360,532,h,1,,,,,,,31,725,5,-4.5,0,"HSV 360,1,1"
2,19,f,Web from home,1,6,2,0,360,417,d,1,,,,,,,31,726,6,-7.5,0,"HSV 360,1,1"
2,19,f,Web from home,1,7,2,1,360,476,h,1,,,,,,,31,727,7,-4.5,0,"HSV 360,1,1"
2,19,f,Web from home,1,8,2,0,360,401,d,1,,,,,,,31,728,8,-7.5,0,"HSV 360,1,1"
2,19,f,Web from home,1,9,2,0,360,488,d,1,,,,,,,31,729,9,-7.5,0,"HSV 360,1,1"
2,19,f,Web from home,1,10,2,1,360,400,h,1,,,,,,,31,730,10,-4.5,0,"HSV 360,1,1"
2,19,f,Web from home,1,11,2,1,360,464,h,1,,,,,,,31,731,11,-4.5,0,"HSV 360,1,1"
2,19,f,Web from home,1,12,2,0,360,488,d,1,,,,,,,31,732,12,-7.5,0,"HSV 360,1,1"
2,19,f,Web from home,1,13,2,0,360,431,d,1,,,,,,,31,733,13,-7.5,0,"HSV 360,1,1"
2,19,f,Web from home,1,14,2,1,360,992,h,1,,,,,,,31,734,14,-4.5,0,"HSV 360,1,1"
2,19,f,Web from home,1,15,2,1,360,346,h,1,,,,,,,31,735,15,-4.5,0,"HSV 360,1,1"
2,19,f,Web from home,1,16,2,0,360,371,d,1,,,,,,,31,736,16,-7.5,0,"HSV 360,1,1"
2,19,f,Web from home,1,17,2,1,360,391,h,1,,,,,,,31,737,17,-4.5,0,"HSV 360,1,1"
2,19,f,Web from home,1,18,2,0,360,302,d,1,,,,,,,31,738,18,-7.5,0,"HSV 360,1,1"
2,19,f,Web from home,1,19,2,0,360,453,d,1,,,,,,,31,739,19,-7.5,0,"HSV 360,1,1"
2,19,f,Web from home,1,20,2,1,360,415,h,1,,,,,,,31,740,20,-4.5,0,"HSV 360,1,1"
2,19,f,Web from home,1,21,2,1,360,315,d,0,,,,,,,31,741,21,-4.5,0,"HSV 360,1,1"
2,19,f,Web from home,1,22,2,0,360,497,d,1,,,,,,,31,742,22,-7.5,0,"HSV 360,1,1"
2,19,f,Web from home,1,23,2,1,360,402,h,1,,,,,,,31,743,23,-4.5,0,"HSV 360,1,1"
2,19,f,Web from home,1,24,2,0,360,379,d,1,,,,,,,31,744,24,-7.5,0,"HSV 360,1,1"
2,19,f,Web from home,1,25,2,0,240,1013,d,1,,,,,,,32,745,1,-7.5,0,"HSV 240,1,1"
2,19,f,Web from home,1,26,2,1,240,456,h,1,,,,,,,32,746,2,-4.5,0,"HSV 240,1,1"
2,19,f,Web from home,1,27,2,0,240,446,d,1,,,,,,,32,747,3,-7.5,0,"HSV 240,1,1"
2,19,f,Web from home,1,28,2,1,240,378,h,1,,,,,,,32,748,4,-4.5,0,"HSV 240,1,1"
2,19,f,Web from home,1,29,2,0,240,329,d,1,,,,,,,32,749,5,-7.5,0,"HSV 240,1,1"
2,19,f,Web from home,1,30,2,1,240,379,h,1,,,,,,,32,750,6,-4.5,0,"HSV 240,1,1"
2,19,f,Web from home,1,31,2,0,240,311,d,1,,,,,,,32,751,7,-7.5,0,"HSV 240,1,1"
2,19,f,Web from home,1,32,2,1,240,285,h,1,,,,,,,32,752,8,-4.5,0,"HSV 240,1,1"
2,19,f,Web from home,1,33,2,1,240,299,d,0,,,,,,,32,753,9,-4.5,0,"HSV 240,1,1"
2,19,f,Web from home,1,34,2,0,240,502,d,1,,,,,,,32,754,10,-7.5,0,"HSV 240,1,1"
2,19,f,Web from home,1,35,2,1,240,368,h,1,,,,,,,32,755,11,-4.5,0,"HSV 240,1,1"
2,19,f,Web from home,1,36,2,0,240,395,d,1,,,,,,,32,756,12,-7.5,0,"HSV 240,1,1"
2,19,f,Web from home,1,37,2,0,240,258,h,0,,,,,,,32,757,13,-7.5,0,"HSV 240,1,1"
2,19,f,Web from home,1,38,2,1,240,384,h,1,,,,,,,32,758,14,-4.5,0,"HSV 240,1,1"
2,19,f,Web from home,1,39,2,0,240,341,d,1,,,,,,,32,759,15,-7.5,0,"HSV 240,1,1"
2,19,f,Web from home,1,40,2,1,240,328,h,1,,,,,,,32,760,16,-4.5,0,"HSV 240,1,1"
2,19,f,Web from home,1,41,2,0,240,325,d,1,,,,,,,32,761,17,-7.5,0,"HSV 240,1,1"
2,19,f,Web from home,1,42,2,1,240,248,h,1,,,,,,,32,762,18,-4.5,0,"HSV 240,1,1"
2,19,f,Web from home,1,43,2,1,240,235,d,0,,,,,,,32,763,19,-4.5,0,"HSV 240,1,1"
2,19,f,Web from home,1,44,2,0,240,500,d,1,,,,,,,32,764,20,-7.5,0,"HSV 240,1,1"
2,19,f,Web from home,1,45,2,0,240,437,d,1,,,,,,,32,765,21,-7.5,0,"HSV 240,1,1"
2,19,f,Web from home,1,46,2,1,240,412,h,1,,,,,,,32,766,22,-4.5,0,"HSV 240,1,1"
2,19,f,Web from home,1,47,2,0,240,340,d,1,,,,,,,32,767,23,-7.5,0,"HSV 240,1,1"
2,19,f,Web from home,1,48,2,1,240,356,h,1,,,,,,,32,768,24,-4.5,0,"HSV 240,1,1"
2,19,f,Web from home,1,49,2,0,120,569,d,1,,,,,,,33,769,1,-7.5,0,"HSV 120,1,1"
2,19,f,Web from home,1,50,2,1,120,381,h,1,,,,,,,33,770,2,-4.5,0,"HSV 120,1,1"
2,19,f,Web from home,1,51,2,0,120,349,d,1,,,,,,,33,771,3,-7.5,0,"HSV 120,1,1"
2,19,f,Web from home,1,52,2,1,120,315,h,1,,,,,,,33,772,4,-4.5,0,"HSV 120,1,1"
2,19,f,Web from home,1,53,2,0,120,301,d,1,,,,,,,33,773,5,-7.5,0,"HSV 120,1,1"
2,19,f,Web from home,1,54,2,1,120,316,h,1,,,,,,,33,774,6,-4.5,0,"HSV 120,1,1"
2,19,f,Web from home,1,55,2,0,120,360,d,1,,,,,,,33,775,7,-7.5,0,"HSV 120,1,1"
2,19,f,Web from home,1,56,2,1,120,317,h,1,,,,,,,33,776,8,-4.5,0,"HSV 120,1,1"
2,19,f,Web from home,1,57,2,0,120,387,d,1,,,,,,,33,777,9,-7.5,0,"HSV 120,1,1"
2,19,f,Web from home,1,58,2,1,120,285,h,1,,,,,,,33,778,10,-4.5,0,"HSV 120,1,1"
2,19,f,Web from home,1,59,2,0,120,288,d,1,,,,,,,33,779,11,-7.5,0,"HSV 120,1,1"
2,19,f,Web from home,1,60,2,1,120,360,h,1,,,,,,,33,780,12,-4.5,0,"HSV 120,1,1"
2,19,f,Web from home,1,61,2,0,120,296,d,1,,,,,,,33,781,13,-7.5,0,"HSV 120,1,1"
2,19,f,Web from home,1,62,2,1,120,369,h,1,,,,,,,33,782,14,-4.5,0,"HSV 120,1,1"
2,19,f,Web from home,1,63,2,1,120,311,d,0,,,,,,,33,783,15,-4.5,0,"HSV 120,1,1"
2,19,f,Web from home,1,64,2,0,120,459,d,1,,,,,,,33,784,16,-7.5,0,"HSV 120,1,1"
2,19,f,Web from home,1,65,2,0,120,450,d,1,,,,,,,33,785,17,-7.5,0,"HSV 120,1,1"
2,19,f,Web from home,1,66,2,1,120,330,h,1,,,,,,,33,786,18,-4.5,0,"HSV 120,1,1"
2,19,f,Web from home,1,67,2,1,120,290,d,0,,,,,,,33,787,19,-4.5,0,"HSV 120,1,1"
2,19,f,Web from home,1,68,2,0,120,356,d,1,,,,,,,33,788,20,-7.5,0,"HSV 120,1,1"
2,19,f,Web from home,1,69,2,0,120,371,h,0,,,,,,,33,789,21,-7.5,0,"HSV 120,1,1"
2,19,f,Web from home,1,70,2,1,120,380,h,1,,,,,,,33,790,22,-4.5,0,"HSV 120,1,1"
2,19,f,Web from home,1,71,2,0,120,415,d,1,,,,,,,33,791,23,-7.5,0,"HSV 120,1,1"
2,19,f,Web from home,1,72,2,1,120,401,h,1,,,,,,,33,792,24,-4.5,0,"HSV 120,1,1"
2,19,f,Web from home,1,73,2,0,300,544,d,1,,,,,,,34,793,1,-7.5,0,"HSV 300,1,1"
2,19,f,Web from home,1,74,2,1,300,441,h,1,,,,,,,34,794,2,-4.5,0,"HSV 300,1,1"
2,19,f,Web from home,1,75,2,1,300,380,h,1,,,,,,,34,795,3,-4.5,0,"HSV 300,1,1"
2,19,f,Web from home,1,76,2,0,300,370,d,1,,,,,,,34,796,4,-7.5,0,"HSV 300,1,1"
2,19,f,Web from home,1,77,2,0,300,401,d,1,,,,,,,34,797,5,-7.5,0,"HSV 300,1,1"
2,19,f,Web from home,1,78,2,1,300,386,h,1,,,,,,,34,798,6,-4.5,0,"HSV 300,1,1"
2,19,f,Web from home,1,79,2,1,300,292,d,0,,,,,,,34,799,7,-4.5,0,"HSV 300,1,1"
2,19,f,Web from home,1,80,2,0,300,445,d,1,,,,,,,34,800,8,-7.5,0,"HSV 300,1,1"
2,19,f,Web from home,1,81,2,0,300,388,d,1,,,,,,,34,801,9,-7.5,0,"HSV 300,1,1"
2,19,f,Web from home,1,82,2,1,300,390,h,1,,,,,,,34,802,10,-4.5,0,"HSV 300,1,1"
2,19,f,Web from home,1,83,2,0,300,329,d,1,,,,,,,34,803,11,-7.5,0,"HSV 300,1,1"
2,19,f,Web from home,1,84,2,1,300,389,h,1,,,,,,,34,804,12,-4.5,0,"HSV 300,1,1"
2,19,f,Web from home,1,85,2,1,300,260,d,0,,,,,,,34,805,13,-4.5,0,"HSV 300,1,1"
2,19,f,Web from home,1,86,2,0,300,415,d,1,,,,,,,34,806,14,-7.5,0,"HSV 300,1,1"
2,19,f,Web from home,1,87,2,0,300,402,d,1,,,,,,,34,807,15,-7.5,0,"HSV 300,1,1"
2,19,f,Web from home,1,88,2,1,300,396,h,1,,,,,,,34,808,16,-4.5,0,"HSV 300,1,1"
2,19,f,Web from home,1,89,2,0,300,380,d,1,,,,,,,34,809,17,-7.5,0,"HSV 300,1,1"
2,19,f,Web from home,1,90,2,1,300,343,h,1,,,,,,,34,810,18,-4.5,0,"HSV 300,1,1"
2,19,f,Web from home,1,91,2,0,300,349,d,1,,,,,,,34,811,19,-7.5,0,"HSV 300,1,1"
2,19,f,Web from home,1,92,2,1,300,305,h,1,,,,,,,34,812,20,-4.5,0,"HSV 300,1,1"
2,19,f,Web from home,1,93,2,1,300,309,d,0,,,,,,,34,813,21,-4.5,0,"HSV 300,1,1"
2,19,f,Web from home,1,94,2,0,300,415,d,1,,,,,,,34,814,22,-7.5,0,"HSV 300,1,1"
2,19,f,Web from home,1,95,2,1,300,372,h,1,,,,,,,34,815,23,-4.5,0,"HSV 300,1,1"
2,19,f,Web from home,1,96,2,0,300,274,d,1,,,,,,,34,816,24,-7.5,0,"HSV 300,1,1"
2,19,f,Web from home,1,97,2,0,180,376,d,1,,,,,,,35,817,1,-7.5,0,"HSV 180,1,1"
2,19,f,Web from home,1,98,2,1,180,339,h,1,,,,,,,35,818,2,-4.5,0,"HSV 180,1,1"
2,19,f,Web from home,1,99,2,1,180,403,h,1,,,,,,,35,819,3,-4.5,0,"HSV 180,1,1"
2,19,f,Web from home,1,100,2,0,180,317,d,1,,,,,,,35,820,4,-7.5,0,"HSV 180,1,1"
2,19,f,Web from home,1,101,2,0,180,362,d,1,,,,,,,35,821,5,-7.5,0,"HSV 180,1,1"
2,19,f,Web from home,1,102,2,1,180,353,h,1,,,,,,,35,822,6,-4.5,0,"HSV 180,1,1"
2,19,f,Web from home,1,103,2,0,180,346,d,1,,,,,,,35,823,7,-7.5,0,"HSV 180,1,1"
2,19,f,Web from home,1,104,2,1,180,307,h,1,,,,,,,35,824,8,-4.5,0,"HSV 180,1,1"
2,19,f,Web from home,1,105,2,1,180,379,d,0,,,,,,,35,825,9,-4.5,0,"HSV 180,1,1"
2,19,f,Web from home,1,106,2,0,180,403,d,1,,,,,,,35,826,10,-7.5,0,"HSV 180,1,1"
2,19,f,Web from home,1,107,2,0,180,307,h,0,,,,,,,35,827,11,-7.5,0,"HSV 180,1,1"
2,19,f,Web from home,1,108,2,1,180,412,h,1,,,,,,,35,828,12,-4.5,0,"HSV 180,1,1"
2,19,f,Web from home,1,109,2,0,180,368,d,1,,,,,,,35,829,13,-7.5,0,"HSV 180,1,1"
2,19,f,Web from home,1,110,2,1,180,386,h,1,,,,,,,35,830,14,-4.5,0,"HSV 180,1,1"
2,19,f,Web from home,1,111,2,0,180,338,d,1,,,,,,,35,831,15,-7.5,0,"HSV 180,1,1"
2,19,f,Web from home,1,112,2,1,180,386,h,1,,,,,,,35,832,16,-4.5,0,"HSV 180,1,1"
2,19,f,Web from home,1,113,2,1,180,497,h,1,,,,,,,35,833,17,-4.5,0,"HSV 180,1,1"
2,19,f,Web from home,1,114,2,0,180,370,d,1,,,,,,,35,834,18,-7.5,0,"HSV 180,1,1"
2,19,f,Web from home,1,115,2,1,180,371,h,1,,,,,,,35,835,19,-4.5,0,"HSV 180,1,1"
2,19,f,Web from home,1,116,2,0,180,350,d,1,,,,,,,35,836,20,-7.5,0,"HSV 180,1,1"
2,19,f,Web from home,1,117,2,0,180,276,h,0,,,,,,,35,837,21,-7.5,0,"HSV 180,1,1"
2,19,f,Web from home,1,118,2,1,180,503,h,1,,,,,,,35,838,22,-4.5,0,"HSV 180,1,1"
2,19,f,Web from home,1,119,2,1,180,513,h,1,,,,,,,35,839,23,-4.5,0,"HSV 180,1,1"
2,19,f,Web from home,1,120,2,0,180,355,d,1,,,,,,,35,840,24,-7.5,0,"HSV 180,1,1"
2,19,f,Web from home,1,121,2,0,60,495,d,1,,,,,,,36,841,1,-7.5,0,"HSV 60,1,1"
2,19,f,Web from home,1,122,2,1,60,394,h,1,,,,,,,36,842,2,-4.5,0,"HSV 60,1,1"
2,19,f,Web from home,1,123,2,1,60,369,h,1,,,,,,,36,843,3,-4.5,0,"HSV 60,1,1"
2,19,f,Web from home,1,124,2,0,60,340,d,1,,,,,,,36,844,4,-7.5,0,"HSV 60,1,1"
2,19,f,Web from home,1,125,2,1,60,233,h,1,,,,,,,36,845,5,-4.5,0,"HSV 60,1,1"
2,19,f,Web from home,1,126,2,0,60,297,d,1,,,,,,,36,846,6,-7.5,0,"HSV 60,1,1"
2,19,f,Web from home,1,127,2,0,60,264,h,0,,,,,,,36,847,7,-7.5,0,"HSV 60,1,1"
2,19,f,Web from home,1,128,2,1,60,375,h,1,,,,,,,36,848,8,-4.5,0,"HSV 60,1,1"
2,19,f,Web from home,1,129,2,1,60,401,h,1,,,,,,,36,849,9,-4.5,0,"HSV 60,1,1"
2,19,f,Web from home,1,130,2,0,60,359,d,1,,,,,,,36,850,10,-7.5,0,"HSV 60,1,1"
2,19,f,Web from home,1,131,2,0,60,378,d,1,,,,,,,36,851,11,-7.5,0,"HSV 60,1,1"
2,19,f,Web from home,1,132,2,1,60,367,h,1,,,,,,,36,852,12,-4.5,0,"HSV 60,1,1"
2,19,f,Web from home,1,133,2,1,60,275,d,0,,,,,,,36,853,13,-4.5,0,"HSV 60,1,1"
2,19,f,Web from home,1,134,2,0,60,454,d,1,,,,,,,36,854,14,-7.5,0,"HSV 60,1,1"
2,19,f,Web from home,1,135,2,1,60,402,h,1,,,,,,,36,855,15,-4.5,0,"HSV 60,1,1"
2,19,f,Web from home,1,136,2,0,60,349,d,1,,,,,,,36,856,16,-7.5,0,"HSV 60,1,1"
2,19,f,Web from home,1,137,2,0,60,484,d,1,,,,,,,36,857,17,-7.5,0,"HSV 60,1,1"
2,19,f,Web from home,1,138,2,1,60,347,h,1,,,,,,,36,858,18,-4.5,0,"HSV 60,1,1"
2,19,f,Web from home,1,139,2,0,60,307,d,1,,,,,,,36,859,19,-7.5,0,"HSV 60,1,1"
2,19,f,Web from home,1,140,2,1,60,319,h,1,,,,,,,36,860,20,-4.5,0,"HSV 60,1,1"
2,19,f,Web from home,1,141,2,1,60,375,h,1,,,,,,,36,861,21,-4.5,0,"HSV 60,1,1"
2,19,f,Web from home,1,142,2,0,60,312,d,1,,,,,,,36,862,22,-7.5,0,"HSV 60,1,1"
2,19,f,Web from home,1,143,2,1,60,300,h,1,,,,,,,36,863,23,-4.5,0,"HSV 60,1,1"
2,19,f,Web from home,1,144,2,0,60,282,d,1,,,,,,,36,864,24,-7.5,0,"HSV 60,1,1"
2,19,f,Keyboard,2,1,2,1,240,802,h,1,19-in. Acer V193,1280,1024,60,Genius SlimStar 100 USB keyboard,400,37,865,1,-4.5,0,"HSV 240,1,1"
2,19,f,Keyboard,2,2,2,0,240,531,d,1,19-in. Acer V193,1280,1024,60,Genius SlimStar 100 USB keyboard,400,37,866,2,-7.5,0,"HSV 240,1,1"
2,19,f,Keyboard,2,3,2,1,240,355,h,1,19-in. Acer V193,1280,1024,60,Genius SlimStar 100 USB keyboard,400,37,867,3,-4.5,0,"HSV 240,1,1"
2,19,f,Keyboard,2,4,2,0,240,328,d,1,19-in. Acer V193,1280,1024,60,Genius SlimStar 100 USB keyboard,400,37,868,4,-7.5,0,"HSV 240,1,1"
2,19,f,Keyboard,2,5,2,1,240,317,h,1,19-in. Acer V193,1280,1024,60,Genius SlimStar 100 USB keyboard,400,37,869,5,-4.5,0,"HSV 240,1,1"
2,19,f,Keyboard,2,6,2,0,240,314,d,1,19-in. Acer V193,1280,1024,60,Genius SlimStar 100 USB keyboard,400,37,870,6,-7.5,0,"HSV 240,1,1"
2,19,f,Keyboard,2,7,2,1,240,323,h,1,19-in. Acer V193,1280,1024,60,Genius SlimStar 100 USB keyboard,400,37,871,7,-4.5,0,"HSV 240,1,1"
2,19,f,Keyboard,2,8,2,0,240,372,d,1,19-in. Acer V193,1280,1024,60,Genius SlimStar 100 USB keyboard,400,37,872,8,-7.5,0,"HSV 240,1,1"
2,19,f,Keyboard,2,9,2,0,240,397,d,1,19-in. Acer V193,1280,1024,60,Genius SlimStar 100 USB keyboard,400,37,873,9,-7.5,0,"HSV 240,1,1"
2,19,f,Keyboard,2,10,2,1,240,297,h,1,19-in. Acer V193,1280,1024,60,Genius SlimStar 100 USB keyboard,400,37,874,10,-4.5,0,"HSV 240,1,1"
2,19,f,Keyboard,2,11,2,1,240,380,h,1,19-in. Acer V193,1280,1024,60,Genius SlimStar 100 USB keyboard,400,37,875,11,-4.5,0,"HSV 240,1,1"
2,19,f,Keyboard,2,12,2,0,240,294,d,1,19-in. Acer V193,1280,1024,60,Genius SlimStar 100 USB keyboard,400,37,876,12,-7.5,0,"HSV 240,1,1"
2,19,f,Keyboard,2,13,2,1,240,315,h,1,19-in. Acer V193,1280,1024,60,Genius SlimStar 100 USB keyboard,400,37,877,13,-4.5,0,"HSV 240,1,1"
2,19,f,Keyboard,2,14,2,0,240,277,d,1,19-in. Acer V193,1280,1024,60,Genius SlimStar 100 USB keyboard,400,37,878,14,-7.5,0,"HSV 240,1,1"
2,19,f,Keyboard,2,15,2,0,240,395,d,1,19-in. Acer V193,1280,1024,60,Genius SlimStar 100 USB keyboard,400,37,879,15,-7.5,0,"HSV 240,1,1"
2,19,f,Keyboard,2,16,2,1,240,313,h,1,19-in. Acer V193,1280,1024,60,Genius SlimStar 100 USB keyboard,400,37,880,16,-4.5,0,"HSV 240,1,1"
2,19,f,Keyboard,2,17,2,0,240,264,d,1,19-in. Acer V193,1280,1024,60,Genius SlimStar 100 USB keyboard,400,37,881,17,-7.5,0,"HSV 240,1,1"
2,19,f,Keyboard,2,18,2,1,240,298,h,1,19-in. Acer V193,1280,1024,60,Genius SlimStar 100 USB keyboard,400,37,882,18,-4.5,0,"HSV 240,1,1"
2,19,f,Keyboard,2,19,2,1,240,424,h,1,19-in. Acer V193,1280,1024,60,Genius SlimStar 100 USB keyboard,400,37,883,19,-4.5,0,"HSV 240,1,1"
2,19,f,Keyboard,2,20,2,0,240,294,d,1,19-in. Acer V193,1280,1024,60,Genius SlimStar 100 USB keyboard,400,37,884,20,-7.5,0,"HSV 240,1,1"
2,19,f,Keyboard,2,21,2,0,240,255,h,0,19-in. Acer V193,1280,1024,60,Genius SlimStar 100 USB keyboard,400,37,885,21,-7.5,0,"HSV 240,1,1"
2,19,f,Keyboard,2,22,2,1,240,378,h,1,19-in. Acer V193,1280,1024,60,Genius SlimStar 100 USB keyboard,400,37,886,22,-4.5,0,"HSV 240,1,1"
2,19,f,Keyboard,2,23,2,0,240,265,d,1,19-in. Acer V193,1280,1024,60,Genius SlimStar 100 USB keyboard,400,37,887,23,-7.5,0,"HSV 240,1,1"
2,19,f,Keyboard,2,24,2,1,240,288,h,1,19-in. Acer V193,1280,1024,60,Genius SlimStar 100 USB keyboard,400,37,888,24,-4.5,0,"HSV 240,1,1"
2,19,f,Keyboard,2,25,2,0,60,525,d,1,19-in. Acer V193,1280,1024,60,Genius SlimStar 100 USB keyboard,400,38,889,1,-7.5,0,"HSV 60,1,1"
2,19,f,Keyboard,2,26,2,1,60,350,h,1,19-in. Acer V193,1280,1024,60,Genius SlimStar 100 USB keyboard,400,38,890,2,-4.5,0,"HSV 60,1,1"
2,19,f,Keyboard,2,27,2,1,60,371,h,1,19-in. Acer V193,1280,1024,60,Genius SlimStar 100 USB keyboard,400,38,891,3,-4.5,0,"HSV 60,1,1"
