"participant_id","age","gender","locale","localeOrder","trialN","set_size","targetPos","targetColor","rt","answer","correct"
1,25,"f","Response box",2,1,2,0,360,510,"2",1
1,25,"f","Response box",2,2,2,1,360,371,"5",1
1,25,"f","Response box",2,3,2,0,360,284,"2",1
1,25,"f","Response box",2,4,2,1,360,217,"5",1
1,25,"f","Response box",2,5,2,1,360,235,"2",0
1,25,"f","Response box",2,6,2,0,360,315,"2",1
1,25,"f","Response box",2,7,2,0,360,307,"2",1
1,25,"f","Response box",2,8,2,1,360,266,"5",1
1,25,"f","Response box",2,9,2,1,360,287,"5",1
1,25,"f","Response box",2,10,2,0,360,310,"2",1
1,25,"f","Response box",2,11,2,0,360,335,"2",1
1,25,"f","Response box",2,12,2,1,360,375,"5",1
1,25,"f","Response box",2,13,2,1,360,288,"5",1
1,25,"f","Response box",2,14,2,0,360,274,"2",1
1,25,"f","Response box",2,15,2,1,360,235,"5",1
1,25,"f","Response box",2,16,2,0,360,251,"2",1
1,25,"f","Response box",2,17,2,1,360,279,"5",1
1,25,"f","Response box",2,18,2,0,360,231,"2",1
1,25,"f","Response box",2,19,2,1,360,199,"5",1
1,25,"f","Response box",2,20,2,0,360,240,"2",1
1,25,"f","Response box",2,21,2,0,360,368,"2",1
1,25,"f","Response box",2,22,2,1,360,243,"5",1
1,25,"f","Response box",2,23,2,1,360,287,"5",1
1,25,"f","Response box",2,24,2,0,360,247,"2",1
1,25,"f","Response box",2,25,2,1,300,309,"5",1
1,25,"f","Response box",2,26,2,0,300,265,"2",1
1,25,"f","Response box",2,27,2,0,300,277,"2",1
1,25,"f","Response box",2,28,2,1,300,252,"5",1
1,25,"f","Response box",2,29,2,0,300,271,"2",1
1,25,"f","Response box",2,30,2,1,300,240,"5",1
1,25,"f","Response box",2,31,2,1,300,286,"5",1
1,25,"f","Response box",2,32,2,0,300,262,"2",1
1,25,"f","Response box",2,33,2,1,300,270,"5",1
1,25,"f","Response box",2,34,2,0,300,262,"2",1
1,25,"f","Response box",2,35,2,1,300,291,"5",1
1,25,"f","Response box",2,36,2,0,300,229,"2",1
1,25,"f","Response box",2,37,2,1,300,228,"5",1
1,25,"f","Response box",2,38,2,0,300,233,"2",1
1,25,"f","Response box",2,39,2,1,300,235,"5",1
1,25,"f","Response box",2,40,2,0,300,227,"2",1
1,25,"f","Response box",2,41,2,1,300,211,"5",1
1,25,"f","Response box",2,42,2,0,300,218,"2",1
1,25,"f","Response box",2,43,2,0,300,410,"2",1
1,25,"f","Response box",2,44,2,1,300,242,"5",1
1,25,"f","Response box",2,45,2,0,300,272,"2",1
1,25,"f","Response box",2,46,2,1,300,250,"5",1
1,25,"f","Response box",2,47,2,1,300,304,"5",1
1,25,"f","Response box",2,48,2,0,300,235,"2",1
1,25,"f","Response box",2,49,2,0,120,298,"2",1
1,25,"f","Response box",2,50,2,1,120,253,"5",1
1,25,"f","Response box",2,51,2,0,120,236,"2",1
1,25,"f","Response box",2,52,2,1,120,231,"5",1
1,25,"f","Response box",2,53,2,0,120,268,"2",1
1,25,"f","Response box",2,54,2,1,120,277,"5",1
1,25,"f","Response box",2,55,2,0,120,234,"2",1
1,25,"f","Response box",2,56,2,1,120,245,"5",1
1,25,"f","Response box",2,57,2,0,120,225,"2",1
1,25,"f","Response box",2,58,2,1,120,244,"5",1
1,25,"f","Response box",2,59,2,1,120,324,"5",1
1,25,"f","Response box",2,60,2,0,120,253,"2",1
1,25,"f","Response box",2,61,2,0,120,299,"2",1
1,25,"f","Response box",2,62,2,1,120,215,"5",1
1,25,"f","Response box",2,63,2,1,120,259,"5",1
1,25,"f","Response box",2,64,2,0,120,199,"2",1
1,25,"f","Response box",2,65,2,0,120,313,"2",1
1,25,"f","Response box",2,66,2,1,120,229,"5",1
1,25,"f","Response box",2,67,2,0,120,272,"2",1
1,25,"f","Response box",2,68,2,1,120,231,"5",1
1,25,"f","Response box",2,69,2,0,120,232,"2",1
1,25,"f","Response box",2,70,2,1,120,457,"2",0
1,25,"f","Response box",2,71,2,1,120,306,"5",1
1,25,"f","Response box",2,72,2,0,120,248,"2",1
1,25,"f","Response box",2,73,2,1,60,276,"5",1
1,25,"f","Response box",2,74,2,0,60,243,"2",1
1,25,"f","Response box",2,75,2,1,60,258,"5",1
1,25,"f","Response box",2,76,2,0,60,263,"2",1
1,25,"f","Response box",2,77,2,1,60,238,"5",1
1,25,"f","Response box",2,78,2,0,60,264,"2",1
1,25,"f","Response box",2,79,2,0,60,301,"2",1
1,25,"f","Response box",2,80,2,1,60,219,"5",1
1,25,"f","Response box",2,81,2,0,60,270,"2",1
1,25,"f","Response box",2,82,2,1,60,237,"5",1
1,25,"f","Response box",2,83,2,0,60,259,"2",1
1,25,"f","Response box",2,84,2,1,60,207,"5",1
1,25,"f","Response box",2,85,2,1,60,194,"2",0
1,25,"f","Response box",2,86,2,0,60,387,"2",1
1,25,"f","Response box",2,87,2,1,60,1789,"5",1
1,25,"f","Response box",2,88,2,0,60,448,"2",1
1,25,"f","Response box",2,89,2,0,60,326,"2",1
1,25,"f","Response box",2,90,2,1,60,244,"5",1
1,25,"f","Response box",2,91,2,0,60,262,"2",1
1,25,"f","Response box",2,92,2,1,60,282,"5",1
1,25,"f","Response box",2,93,2,0,60,256,"2",1
1,25,"f","Response box",2,94,2,1,60,266,"5",1
1,25,"f","Response box",2,95,2,0,60,264,"2",1
1,25,"f","Response box",2,96,2,1,60,232,"5",1
1,25,"f","Response box",2,97,2,0,180,297,"2",1
1,25,"f","Response box",2,98,2,1,180,290,"5",1
1,25,"f","Response box",2,99,2,1,180,248,"5",1
1,25,"f","Response box",2,100,2,0,180,276,"2",1
1,25,"f","Response box",2,101,2,1,180,228,"5",1
1,25,"f","Response box",2,102,2,0,180,310,"2",1
1,25,"f","Response box",2,103,2,1,180,213,"5",1
1,25,"f","Response box",2,104,2,0,180,227,"2",1
1,25,"f","Response box",2,105,2,1,180,219,"5",1
1,25,"f","Response box",2,106,2,0,180,223,"2",1
1,25,"f","Response box",2,107,2,1,180,230,"5",1
1,25,"f","Response box",2,108,2,0,180,258,"2",1
1,25,"f","Response box",2,109,2,0,180,267,"2",1
1,25,"f","Response box",2,110,2,1,180,249,"5",1
1,25,"f","Response box",2,111,2,0,180,246,"2",1
1,25,"f","Response box",2,112,2,1,180,255,"5",1
1,25,"f","Response box",2,113,2,1,180,275,"5",1
1,25,"f","Response box",2,114,2,0,180,221,"2",1
1,25,"f","Response box",2,115,2,1,180,280,"5",1
1,25,"f","Response box",2,116,2,0,180,293,"2",1
1,25,"f","Response box",2,117,2,1,180,218,"5",1
1,25,"f","Response box",2,118,2,0,180,301,"2",1
1,25,"f","Response box",2,119,2,1,180,209,"5",1
1,25,"f","Response box",2,120,2,0,180,260,"2",1
1,25,"f","Response box",2,121,2,1,240,324,"5",1
1,25,"f","Response box",2,122,2,0,240,254,"2",1
1,25,"f","Response box",2,123,2,0,240,296,"2",1
1,25,"f","Response box",2,124,2,1,240,237,"5",1
1,25,"f","Response box",2,125,2,0,240,234,"2",1
1,25,"f","Response box",2,126,2,1,240,220,"5",1
1,25,"f","Response box",2,127,2,0,240,229,"2",1
1,25,"f","Response box",2,128,2,1,240,246,"5",1
1,25,"f","Response box",2,129,2,0,240,233,"2",1
1,25,"f","Response box",2,130,2,1,240,197,"5",1
1,25,"f","Response box",2,131,2,0,240,234,"2",1
1,25,"f","Response box",2,132,2,1,240,221,"5",1
1,25,"f","Response box",2,133,2,1,240,329,"5",1
1,25,"f","Response box",2,134,2,0,240,254,"2",1
1,25,"f","Response box",2,135,2,1,240,238,"5",1
1,25,"f","Response box",2,136,2,0,240,212,"2",1
1,25,"f","Response box",2,137,2,1,240,216,"5",1
1,25,"f","Response box",2,138,2,0,240,228,"2",1
1,25,"f","Response box",2,139,2,1,240,241,"5",1
1,25,"f","Response box",2,140,2,0,240,200,"2",1
1,25,"f","Response box",2,141,2,0,240,51,"5",0
1,25,"f","Response box",2,142,2,1,240,251,"5",1
1,25,"f","Response box",2,143,2,1,240,272,"5",1
1,25,"f","Response box",2,144,2,0,240,261,"2",1
1,25,"1","Web from home",3,1,2,1,300,965,"h",1
1,25,"1","Web from home",3,2,2,0,300,500,"d",1
1,25,"1","Web from home",3,3,2,1,300,402,"h",1
1,25,"1","Web from home",3,4,2,0,300,393,"d",1
1,25,"1","Web from home",3,5,2,0,300,536,"d",1
1,25,"1","Web from home",3,6,2,1,300,356,"h",1
1,25,"1","Web from home",3,7,2,1,300,414,"h",1
1,25,"1","Web from home",3,8,2,0,300,418,"d",1
1,25,"1","Web from home",3,9,2,0,300,487,"d",1
1,25,"1","Web from home",3,10,2,1,300,368,"h",1
1,25,"1","Web from home",3,11,2,1,300,413,"h",1
1,25,"1","Web from home",3,12,2,0,300,355,"d",1
1,25,"1","Web from home",3,13,2,1,300,369,"h",1
1,25,"1","Web from home",3,14,2,0,300,379,"d",1
1,25,"1","Web from home",3,15,2,1,300,373,"h",1
1,25,"1","Web from home",3,16,2,0,300,346,"d",1
1,25,"1","Web from home",3,17,2,0,300,471,"d",1
1,25,"1","Web from home",3,18,2,1,300,313,"h",1
1,25,"1","Web from home",3,19,2,0,300,351,"d",1
1,25,"1","Web from home",3,20,2,1,300,395,"h",1
1,25,"1","Web from home",3,21,2,0,300,387,"d",1
1,25,"1","Web from home",3,22,2,1,300,397,"h",1
1,25,"1","Web from home",3,23,2,0,300,361,"d",1
1,25,"1","Web from home",3,24,2,1,300,353,"h",1
1,25,"1","Web from home",3,25,2,1,120,514,"h",1
1,25,"1","Web from home",3,26,2,0,120,358,"d",1
1,25,"1","Web from home",3,27,2,0,120,353,"d",1
1,25,"1","Web from home",3,28,2,1,120,339,"h",1
1,25,"1","Web from home",3,29,2,0,120,353,"d",1
1,25,"1","Web from home",3,30,2,1,120,291,"h",1
1,25,"1","Web from home",3,31,2,1,120,468,"h",1
1,25,"1","Web from home",3,32,2,0,120,343,"d",1
1,25,"1","Web from home",3,33,2,1,120,374,"h",1
1,25,"1","Web from home",3,34,2,0,120,353,"d",1
1,25,"1","Web from home",3,35,2,0,120,430,"d",1
1,25,"1","Web from home",3,36,2,1,120,361,"h",1
1,25,"1","Web from home",3,37,2,0,120,570,"d",1
1,25,"1","Web from home",3,38,2,1,120,354,"h",1
1,25,"1","Web from home",3,39,2,0,120,322,"d",1
1,25,"1","Web from home",3,40,2,1,120,351,"h",1
1,25,"1","Web from home",3,41,2,0,120,330,"d",1
1,25,"1","Web from home",3,42,2,1,120,337,"h",1
1,25,"1","Web from home",3,43,2,0,120,322,"d",1
1,25,"1","Web from home",3,44,2,1,120,309,"h",1
1,25,"1","Web from home",3,45,2,1,120,338,"h",1
1,25,"1","Web from home",3,46,2,0,120,323,"d",1
1,25,"1","Web from home",3,47,2,1,120,324,"h",1
1,25,"1","Web from home",3,48,2,0,120,353,"d",1
1,25,"1","Web from home",3,49,2,0,240,576,"d",1
1,25,"1","Web from home",3,50,2,1,240,382,"h",1
1,25,"1","Web from home",3,51,2,1,240,322,"h",1
1,25,"1","Web from home",3,52,2,0,240,317,"d",1
1,25,"1","Web from home",3,53,2,1,240,302,"h",1
1,25,"1","Web from home",3,54,2,0,240,312,"d",1
1,25,"1","Web from home",3,55,2,1,240,260,"h",1
1,25,"1","Web from home",3,56,2,0,240,252,"d",1
1,25,"1","Web from home",3,57,2,0,240,303,"h",0
1,25,"1","Web from home",3,58,2,1,240,362,"h",1
1,25,"1","Web from home",3,59,2,0,240,323,"d",1
1,25,"1","Web from home",3,60,2,1,240,303,"h",1
1,25,"1","Web from home",3,61,2,0,240,323,"d",1
1,25,"1","Web from home",3,62,2,1,240,353,"h",1
1,25,"1","Web from home",3,63,2,0,240,298,"d",1
1,25,"1","Web from home",3,64,2,1,240,310,"h",1
1,25,"1","Web from home",3,65,2,1,240,506,"h",1
1,25,"1","Web from home",3,66,2,0,240,354,"d",1
1,25,"1","Web from home",3,67,2,1,240,351,"h",1
1,25,"1","Web from home",3,68,2,0,240,375,"d",1
1,25,"1","Web from home",3,69,2,0,240,445,"d",1
1,25,"1","Web from home",3,70,2,1,240,319,"h",1
1,25,"1","Web from home",3,71,2,0,240,329,"d",1
1,25,"1","Web from home",3,72,2,1,240,319,"h",1
1,25,"1","Web from home",3,73,2,0,60,502,"d",1
1,25,"1","Web from home",3,74,2,1,60,369,"h",1
1,25,"1","Web from home",3,75,2,0,60,271,"d",1
1,25,"1","Web from home",3,76,2,1,60,297,"h",1
1,25,"1","Web from home",3,77,2,0,60,269,"d",1
1,25,"1","Web from home",3,78,2,1,60,265,"h",1
1,25,"1","Web from home",3,79,2,1,60,384,"h",1
1,25,"1","Web from home",3,80,2,0,60,355,"d",1
1,25,"1","Web from home",3,81,2,1,60,282,"h",1
1,25,"1","Web from home",3,82,2,0,60,351,"d",1
1,25,"1","Web from home",3,83,2,0,60,406,"d",1
1,25,"1","Web from home",3,84,2,1,60,312,"h",1
1,25,"1","Web from home",3,85,2,1,60,362,"h",1
1,25,"1","Web from home",3,86,2,0,60,324,"d",1
1,25,"1","Web from home",3,87,2,0,60,369,"d",1
1,25,"1","Web from home",3,88,2,1,60,312,"h",1
1,25,"1","Web from home",3,89,2,0,60,364,"d",1
1,25,"1","Web from home",3,90,2,1,60,254,"h",1
1,25,"1","Web from home",3,91,2,1,60,353,"h",1
1,25,"1","Web from home",3,92,2,0,60,329,"h",0
1,25,"1","Web from home",3,93,2,1,60,403,"h",1
1,25,"1","Web from home",3,94,2,0,60,281,"d",1
1,25,"1","Web from home",3,95,2,0,60,384,"d",1
1,25,"1","Web from home",3,96,2,1,60,345,"h",1
1,25,"1","Web from home",3,97,2,1,360,510,"h",1
1,25,"1","Web from home",3,98,2,0,360,334,"d",1
1,25,"1","Web from home",3,99,2,0,360,318,"d",1
1,25,"1","Web from home",3,100,2,1,360,378,"h",1
1,25,"1","Web from home",3,101,2,1,360,322,"h",1
1,25,"1","Web from home",3,102,2,0,360,314,"d",1
1,25,"1","Web from home",3,103,2,1,360,373,"h",1
1,25,"1","Web from home",3,104,2,0,360,357,"d",1
1,25,"1","Web from home",3,105,2,1,360,370,"d",0
1,25,"1","Web from home",3,106,2,0,360,412,"d",1
1,25,"1","Web from home",3,107,2,0,360,298,"h",0
1,25,"1","Web from home",3,108,2,1,360,378,"h",1
1,25,"1","Web from home",3,109,2,0,360,329,"d",1
1,25,"1","Web from home",3,110,2,1,360,338,"h",1
1,25,"1","Web from home",3,111,2,0,360,358,"d",1
1,25,"1","Web from home",3,112,2,1,360,375,"h",1
1,25,"1","Web from home",3,113,2,0,360,334,"d",1
1,25,"1","Web from home",3,114,2,1,360,400,"h",1
1,25,"1","Web from home",3,115,2,0,360,364,"d",1
1,25,"1","Web from home",3,116,2,1,360,368,"h",1
1,25,"1","Web from home",3,117,2,0,360,486,"d",1
1,25,"1","Web from home",3,118,2,1,360,338,"h",1
1,25,"1","Web from home",3,119,2,0,360,382,"d",1
1,25,"1","Web from home",3,120,2,1,360,342,"h",1
1,25,"1","Web from home",3,121,2,0,180,666,"d",1
1,25,"1","Web from home",3,122,2,1,180,308,"h",1
1,25,"1","Web from home",3,123,2,1,180,373,"h",1
1,25,"1","Web from home",3,124,2,0,180,317,"d",1
1,25,"1","Web from home",3,125,2,0,180,442,"d",1
1,25,"1","Web from home",3,126,2,1,180,288,"h",1
1,25,"1","Web from home",3,127,2,1,180,434,"h",1
1,25,"1","Web from home",3,128,2,0,180,418,"d",1
1,25,"1","Web from home",3,129,2,0,180,390,"d",1
1,25,"1","Web from home",3,130,2,1,180,355,"h",1
1,25,"1","Web from home",3,131,2,0,180,357,"d",1
1,25,"1","Web from home",3,132,2,1,180,294,"h",1
1,25,"1","Web from home",3,133,2,0,180,337,"d",1
1,25,"1","Web from home",3,134,2,1,180,323,"h",1
1,25,"1","Web from home",3,135,2,1,180,399,"h",1
1,25,"1","Web from home",3,136,2,0,180,363,"d",1
1,25,"1","Web from home",3,137,2,1,180,341,"h",1
1,25,"1","Web from home",3,138,2,0,180,328,"d",1
1,25,"1","Web from home",3,139,2,1,180,323,"h",1
1,25,"1","Web from home",3,140,2,0,180,319,"d",1
1,25,"1","Web from home",3,141,2,0,180,328,"h",0
1,25,"1","Web from home",3,142,2,1,180,365,"h",1
1,25,"1","Web from home",3,143,2,0,180,319,"d",1
1,25,"1","Web from home",3,144,2,1,180,348,"h",1
1,25,"f","Keyboard",1,1,2,0,360,1553,"d",1
1,25,"f","Keyboard",1,2,2,1,360,1039,"h",1
1,25,"f","Keyboard",1,3,2,1,360,1109,"d",0
1,25,"f","Keyboard",1,4,2,0,360,794,"d",1
1,25,"f","Keyboard",1,5,2,0,360,543,"d",1
1,25,"f","Keyboard",1,6,2,1,360,444,"h",1
1,25,"f","Keyboard",1,7,2,0,360,409,"d",1
1,25,"f","Keyboard",1,8,2,1,360,378,"h",1
1,25,"f","Keyboard",1,9,2,0,360,352,"d",1
1,25,"f","Keyboard",1,10,2,1,360,300,"h",1
1,25,"f","Keyboard",1,11,2,0,360,282,"d",1
1,25,"f","Keyboard",1,12,2,1,360,255,"h",1
1,25,"f","Keyboard",1,13,2,0,360,252,"d",1
1,25,"f","Keyboard",1,14,2,1,360,253,"h",1
1,25,"f","Keyboard",1,15,2,1,360,225,"d",0
1,25,"f","Keyboard",1,16,2,0,360,376,"d",1
1,25,"f","Keyboard",1,17,2,1,360,303,"h",1
1,25,"f","Keyboard",1,18,2,0,360,301,"d",1
1,25,"f","Keyboard",1,19,2,1,360,290,"h",1
1,25,"f","Keyboard",1,20,2,0,360,275,"d",1
1,25,"f","Keyboard",1,21,2,0,360,267,"h",0
1,25,"f","Keyboard",1,22,2,1,360,531,"h",1
1,25,"f","Keyboard",1,23,2,0,360,316,"d",1
1,25,"f","Keyboard",1,24,2,1,360,324,"h",1
1,25,"f","Keyboard",1,25,2,0,300,1020,"d",1
1,25,"f","Keyboard",1,26,2,1,300,959,"h",1
1,25,"f","Keyboard",1,27,2,0,300,329,"d",1
1,25,"f","Keyboard",1,28,2,1,300,303,"h",1
1,25,"f","Keyboard",1,29,2,0,300,279,"d",1
1,25,"f","Keyboard",1,30,2,1,300,349,"h",1
1,25,"f","Keyboard",1,31,2,0,300,317,"d",1
1,25,"f","Keyboard",1,32,2,1,300,294,"h",1
1,25,"f","Keyboard",1,33,2,1,300,297,"d",0
1,25,"f","Keyboard",1,34,2,0,300,417,"d",1
1,25,"f","Keyboard",1,35,2,0,300,433,"d",1
1,25,"f","Keyboard",1,36,2,1,300,332,"h",1
1,25,"f","Keyboard",1,37,2,1,300,339,"h",1
1,25,"f","Keyboard",1,38,2,0,300,325,"d",1
1,25,"f","Keyboard",1,39,2,0,300,413,"d",1
1,25,"f","Keyboard",1,40,2,1,300,314,"h",1
1,25,"f","Keyboard",1,41,2,1,300,373,"h",1
1,25,"f","Keyboard",1,42,2,0,300,347,"d",1
1,25,"f","Keyboard",1,43,2,0,300,437,"d",1
1,25,"f","Keyboard",1,44,2,1,300,308,"h",1
1,25,"f","Keyboard",1,45,2,1,300,338,"h",1
1,25,"f","Keyboard",1,46,2,0,300,320,"d",1
1,25,"f","Keyboard",1,47,2,1,300,366,"h",1
1,25,"f","Keyboard",1,48,2,0,300,306,"d",1
1,25,"f","Keyboard",1,49,2,0,180,881,"d",1
1,25,"f","Keyboard",1,50,2,1,180,657,"h",1
1,25,"f","Keyboard",1,51,2,0,180,323,"d",1
1,25,"f","Keyboard",1,52,2,1,180,276,"h",1
1,25,"f","Keyboard",1,53,2,1,180,288,"d",0
1,25,"f","Keyboard",1,54,2,0,180,343,"d",1
1,25,"f","Keyboard",1,55,2,1,180,340,"h",1
1,25,"f","Keyboard",1,56,2,0,180,372,"d",1
1,25,"f","Keyboard",1,57,2,0,180,368,"d",1
1,25,"f","Keyboard",1,58,2,1,180,361,"h",1
1,25,"f","Keyboard",1,59,2,1,180,304,"h",1
1,25,"f","Keyboard",1,60,2,0,180,349,"d",1
1,25,"f","Keyboard",1,61,2,0,180,374,"d",1
1,25,"f","Keyboard",1,62,2,1,180,290,"h",1
1,25,"f","Keyboard",1,63,2,1,180,233,"h",1
1,25,"f","Keyboard",1,64,2,0,180,274,"d",1
1,25,"f","Keyboard",1,65,2,1,180,244,"d",0
1,25,"f","Keyboard",1,66,2,0,180,335,"d",1
1,25,"f","Keyboard",1,67,2,1,180,350,"h",1
1,25,"f","Keyboard",1,68,2,0,180,289,"d",1
1,25,"f","Keyboard",1,69,2,0,180,346,"d",1
1,25,"f","Keyboard",1,70,2,1,180,339,"h",1
1,25,"f","Keyboard",1,71,2,1,180,321,"h",1
1,25,"f","Keyboard",1,72,2,0,180,342,"d",1
1,25,"f","Keyboard",1,73,2,1,240,438,"h",1
1,25,"f","Keyboard",1,74,2,0,240,342,"d",1
1,25,"f","Keyboard",1,75,2,0,240,310,"h",0
1,25,"f","Keyboard",1,76,2,1,240,381,"h",1
1,25,"f","Keyboard",1,77,2,1,240,323,"h",1
1,25,"f","Keyboard",1,78,2,0,240,311,"d",1
1,25,"f","Keyboard",1,79,2,0,240,377,"d",1
1,25,"f","Keyboard",1,80,2,1,240,348,"h",1
1,25,"f","Keyboard",1,81,2,1,240,301,"h",1
1,25,"f","Keyboard",1,82,2,0,240,308,"d",1
1,25,"f","Keyboard",1,83,2,0,240,360,"d",1
1,25,"f","Keyboard",1,84,2,1,240,300,"h",1
1,25,"f","Keyboard",1,85,2,0,240,354,"d",1
1,25,"f","Keyboard",1,86,2,1,240,272,"h",1
1,25,"f","Keyboard",1,87,2,1,240,393,"h",1
1,25,"f","Keyboard",1,88,2,0,240,297,"d",1
1,25,"f","Keyboard",1,89,2,0,240,304,"d",1
1,25,"f","Keyboard",1,90,2,1,240,334,"h",1
1,25,"f","Keyboard",1,91,2,0,240,394,"d",1
1,25,"f","Keyboard",1,92,2,1,240,301,"h",1
1,25,"f","Keyboard",1,93,2,1,240,333,"h",1
1,25,"f","Keyboard",1,94,2,0,240,307,"d",1
1,25,"f","Keyboard",1,95,2,0,240,334,"d",1
1,25,"f","Keyboard",1,96,2,1,240,329,"h",1
1,25,"f","Keyboard",1,97,2,0,120,416,"d",1
1,25,"f","Keyboard",1,98,2,1,120,382,"h",1
1,25,"f","Keyboard",1,99,2,0,120,328,"d",1
1,25,"f","Keyboard",1,100,2,1,120,276,"h",1
1,25,"f","Keyboard",1,101,2,0,120,293,"d",1
1,25,"f","Keyboard",1,102,2,1,120,293,"h",1
1,25,"f","Keyboard",1,103,2,1,120,401,"h",1
1,25,"f","Keyboard",1,104,2,0,120,337,"d",1
1,25,"f","Keyboard",1,105,2,0,120,358,"d",1
1,25,"f","Keyboard",1,106,2,1,120,281,"h",1
1,25,"f","Keyboard",1,107,2,0,120,366,"d",1
1,25,"f","Keyboard",1,108,2,1,120,259,"h",1
1,25,"f","Keyboard",1,109,2,1,120,328,"h",1
1,25,"f","Keyboard",1,110,2,0,120,302,"d",1
1,25,"f","Keyboard",1,111,2,1,120,242,"h",1
1,25,"f","Keyboard",1,112,2,0,120,303,"h",0
1,25,"f","Keyboard",1,113,2,1,120,310,"d",0
1,25,"f","Keyboard",1,114,2,0,120,332,"d",1
1,25,"f","Keyboard",1,115,2,1,120,331,"h",1
1,25,"f","Keyboard",1,116,2,0,120,299,"d",1
1,25,"f","Keyboard",1,117,2,1,120,306,"h",1
1,25,"f","Keyboard",1,118,2,0,120,296,"d",1
1,25,"f","Keyboard",1,119,2,0,120,321,"d",1
1,25,"f","Keyboard",1,120,2,1,120,367,"h",1
1,25,"f","Keyboard",1,121,2,0,60,411,"d",1
1,25,"f","Keyboard",1,122,2,1,60,309,"h",1
1,25,"f","Keyboard",1,123,2,0,60,292,"d",1
1,25,"f","Keyboard",1,124,2,1,60,278,"h",1
1,25,"f","Keyboard",1,125,2,0,60,266,"d",1
1,25,"f","Keyboard",1,126,2,1,60,281,"h",1
1,25,"f","Keyboard",1,127,2,0,60,316,"d",1
1,25,"f","Keyboard",1,128,2,1,60,288,"h",1
1,25,"f","Keyboard",1,129,2,1,60,259,"d",0
1,25,"f","Keyboard",1,130,2,0,60,588,"d",1
1,25,"f","Keyboard",1,131,2,0,60,379,"d",1
1,25,"f","Keyboard",1,132,2,1,60,313,"h",1
1,25,"f","Keyboard",1,133,2,0,60,307,"d",1
1,25,"f","Keyboard",1,134,2,1,60,290,"h",1
1,25,"f","Keyboard",1,135,2,0,60,312,"d",1
1,25,"f","Keyboard",1,136,2,1,60,295,"h",1
1,25,"f","Keyboard",1,137,2,0,60,288,"d",1
1,25,"f","Keyboard",1,138,2,1,60,310,"h",1
1,25,"f","Keyboard",1,139,2,0,60,275,"d",1
1,25,"f","Keyboard",1,140,2,1,60,273,"h",1
1,25,"f","Keyboard",1,141,2,0,60,354,"d",1
1,25,"f","Keyboard",1,142,2,1,60,295,"h",1
1,25,"f","Keyboard",1,143,2,0,60,252,"d",1
1,25,"f","Keyboard",1,144,2,1,60,235,"h",1
1,25,"1","Web from lab",4,1,2,1,240,1204,"h",1
1,25,"1","Web from lab",4,2,2,0,240,621,"d",1
1,25,"1","Web from lab",4,3,2,1,240,461,"h",1
1,25,"1","Web from lab",4,4,2,0,240,404,"d",1
1,25,"1","Web from lab",4,5,2,1,240,372,"h",1
1,25,"1","Web from lab",4,6,2,0,240,428,"d",1
1,25,"1","Web from lab",4,7,2,1,240,417,"h",1
1,25,"1","Web from lab",4,8,2,0,240,457,"d",1
1,25,"1","Web from lab",4,9,2,0,240,429,"d",1
1,25,"1","Web from lab",4,10,2,1,240,426,"h",1
1,25,"1","Web from lab",4,11,2,1,240,450,"h",1
1,25,"1","Web from lab",4,12,2,0,240,483,"d",1
1,25,"1","Web from lab",4,13,2,0,240,421,"d",1
1,25,"1","Web from lab",4,14,2,1,240,387,"h",1
1,25,"1","Web from lab",4,15,2,0,240,398,"d",1
1,25,"1","Web from lab",4,16,2,1,240,400,"h",1
1,25,"1","Web from lab",4,17,2,0,240,363,"d",1
1,25,"1","Web from lab",4,18,2,1,240,382,"h",1
1,25,"1","Web from lab",4,19,2,0,240,392,"d",1
1,25,"1","Web from lab",4,20,2,1,240,362,"h",1
1,25,"1","Web from lab",4,21,2,0,240,363,"d",1
1,25,"1","Web from lab",4,22,2,1,240,382,"h",1
1,25,"1","Web from lab",4,23,2,0,240,831,"d",1
1,25,"1","Web from lab",4,24,2,1,240,417,"h",1
1,25,"1","Web from lab",4,25,2,1,300,591,"h",1
1,25,"1","Web from lab",4,26,2,0,300,399,"d",1
1,25,"1","Web from lab",4,27,2,0,300,385,"d",1
1,25,"1","Web from lab",4,28,2,1,300,346,"h",1
1,25,"1","Web from lab",4,29,2,0,300,352,"d",1
1,25,"1","Web from lab",4,30,2,1,300,364,"h",1
1,25,"1","Web from lab",4,31,2,1,300,403,"h",1
1,25,"1","Web from lab",4,32,2,0,300,352,"d",1
1,25,"1","Web from lab",4,33,2,0,300,384,"d",1
1,25,"1","Web from lab",4,34,2,1,300,324,"h",1
1,25,"1","Web from lab",4,35,2,0,300,374,"d",1
1,25,"1","Web from lab",4,36,2,1,300,374,"h",1
1,25,"1","Web from lab",4,37,2,0,300,344,"d",1
1,25,"1","Web from lab",4,38,2,1,300,340,"h",1
1,25,"1","Web from lab",4,39,2,0,300,361,"d",1
1,25,"1","Web from lab",4,40,2,1,300,359,"h",1
1,25,"1","Web from lab",4,41,2,0,300,340,"d",1
1,25,"1","Web from lab",4,42,2,1,300,330,"h",1
1,25,"1","Web from lab",4,43,2,0,300,362,"d",1
1,25,"1","Web from lab",4,44,2,1,300,379,"h",1
1,25,"1","Web from lab",4,45,2,0,300,378,"d",1
1,25,"1","Web from lab",4,46,2,1,300,381,"h",1
1,25,"1","Web from lab",4,47,2,0,300,393,"d",1
1,25,"1","Web from lab",4,48,2,1,300,409,"h",1
1,25,"1","Web from lab",4,49,2,1,120,585,"h",1
1,25,"1","Web from lab",4,50,2,0,120,373,"d",1
1,25,"1","Web from lab",4,51,2,0,120,381,"d",1
1,25,"1","Web from lab",4,52,2,1,120,385,"h",1
1,25,"1","Web from lab",4,53,2,0,120,389,"d",1
1,25,"1","Web from lab",4,54,2,1,120,355,"h",1
1,25,"1","Web from lab",4,55,2,1,120,436,"h",1
1,25,"1","Web from lab",4,56,2,0,120,369,"d",1
1,25,"1","Web from lab",4,57,2,1,120,314,"h",1
1,25,"1","Web from lab",4,58,2,0,120,346,"d",1
1,25,"1","Web from lab",4,59,2,1,120,338,"h",1
1,25,"1","Web from lab",4,60,2,0,120,353,"d",1
1,25,"1","Web from lab",4,61,2,1,120,365,"h",1
1,25,"1","Web from lab",4,62,2,0,120,334,"d",1
1,25,"1","Web from lab",4,63,2,1,120,345,"h",1
1,25,"1","Web from lab",4,64,2,0,120,388,"d",1
1,25,"1","Web from lab",4,65,2,1,120,344,"h",1
1,25,"1","Web from lab",4,66,2,0,120,341,"d",1
1,25,"1","Web from lab",4,67,2,0,120,414,"d",1
1,25,"1","Web from lab",4,68,2,1,120,339,"h",1
1,25,"1","Web from lab",4,69,2,1,120,378,"h",1
1,25,"1","Web from lab",4,70,2,0,120,343,"d",1
1,25,"1","Web from lab",4,71,2,1,120,330,"h",1
1,25,"1","Web from lab",4,72,2,0,120,323,"d",1
1,25,"1","Web from lab",4,73,2,1,180,347,"h",1
1,25,"1","Web from lab",4,74,2,0,180,313,"d",1
1,25,"1","Web from lab",4,75,2,1,180,309,"h",1
1,25,"1","Web from lab",4,76,2,0,180,356,"d",1
1,25,"1","Web from lab",4,77,2,1,180,301,"h",1
1,25,"1","Web from lab",4,78,2,0,180,281,"d",1
1,25,"1","Web from lab",4,79,2,1,180,325,"h",1
1,25,"1","Web from lab",4,80,2,0,180,348,"d",1
1,25,"1","Web from lab",4,81,2,0,180,454,"d",1
1,25,"1","Web from lab",4,82,2,1,180,345,"h",1
1,25,"1","Web from lab",4,83,2,1,180,360,"h",1
1,25,"1","Web from lab",4,84,2,0,180,390,"d",1
1,25,"1","Web from lab",4,85,2,0,180,396,"d",1
1,25,"1","Web from lab",4,86,2,1,180,369,"h",1
1,25,"1","Web from lab",4,87,2,1,180,327,"h",1
1,25,"1","Web from lab",4,88,2,0,180,371,"d",1
1,25,"1","Web from lab",4,89,2,0,180,416,"d",1
1,25,"1","Web from lab",4,90,2,1,180,356,"h",1
1,25,"1","Web from lab",4,91,2,0,180,371,"d",1
1,25,"1","Web from lab",4,92,2,1,180,421,"h",1
1,25,"1","Web from lab",4,93,2,1,180,331,"h",1
1,25,"1","Web from lab",4,94,2,0,180,366,"d",1
1,25,"1","Web from lab",4,95,2,1,180,326,"h",1
1,25,"1","Web from lab",4,96,2,0,180,371,"d",1
1,25,"1","Web from lab",4,97,2,0,360,473,"d",1
1,25,"1","Web from lab",4,98,2,1,360,320,"h",1
1,25,"1","Web from lab",4,99,2,1,360,326,"h",1
1,25,"1","Web from lab",4,100,2,0,360,315,"d",1
1,25,"1","Web from lab",4,101,2,1,360,309,"h",1
1,25,"1","Web from lab",4,102,2,0,360,411,"d",1
1,25,"1","Web from lab",4,103,2,0,360,381,"d",1
1,25,"1","Web from lab",4,104,2,1,360,318,"h",1
1,25,"1","Web from lab",4,105,2,1,360,326,"h",1
1,25,"1","Web from lab",4,106,2,0,360,363,"d",1
1,25,"1","Web from lab",4,107,2,0,360,386,"d",1
1,25,"1","Web from lab",4,108,2,1,360,363,"h",1
1,25,"1","Web from lab",4,109,2,1,360,367,"h",1
1,25,"1","Web from lab",4,110,2,0,360,359,"d",1
1,25,"1","Web from lab",4,111,2,1,360,379,"h",1
1,25,"1","Web from lab",4,112,2,0,360,363,"d",1
1,25,"1","Web from lab",4,113,2,1,360,359,"h",1
1,25,"1","Web from lab",4,114,2,0,360,373,"d",1
1,25,"1","Web from lab",4,115,2,1,360,329,"h",1
1,25,"1","Web from lab",4,116,2,0,360,362,"d",1
1,25,"1","Web from lab",4,117,2,0,360,428,"d",1
1,25,"1","Web from lab",4,118,2,1,360,354,"h",1
1,25,"1","Web from lab",4,119,2,0,360,377,"d",1
1,25,"1","Web from lab",4,120,2,1,360,360,"h",1
1,25,"1","Web from lab",4,121,2,1,60,505,"h",1
1,25,"1","Web from lab",4,122,2,0,60,334,"d",1
1,25,"1","Web from lab",4,123,2,1,60,339,"h",1
1,25,"1","Web from lab",4,124,2,0,60,361,"d",1
1,25,"1","Web from lab",4,125,2,0,60,334,"d",1
1,25,"1","Web from lab",4,126,2,1,60,309,"h",1
1,25,"1","Web from lab",4,127,2,0,60,352,"d",1
1,25,"1","Web from lab",4,128,2,1,60,307,"h",1
1,25,"1","Web from lab",4,129,2,1,60,407,"h",1
1,25,"1","Web from lab",4,130,2,0,60,377,"d",1
1,25,"1","Web from lab",4,131,2,1,60,323,"h",1
1,25,"1","Web from lab",4,132,2,0,60,360,"d",1
1,25,"1","Web from lab",4,133,2,0,60,367,"d",1
1,25,"1","Web from lab",4,134,2,1,60,345,"h",1
1,25,"1","Web from lab",4,135,2,1,60,316,"h",1
1,25,"1","Web from lab",4,136,2,0,60,369,"d",1
1,25,"1","Web from lab",4,137,2,1,60,367,"h",1
1,25,"1","Web from lab",4,138,2,0,60,324,"d",1
1,25,"1","Web from lab",4,139,2,0,60,382,"d",1
1,25,"1","Web from lab",4,140,2,1,60,337,"h",1
1,25,"1","Web from lab",4,141,2,1,60,326,"h",1
1,25,"1","Web from lab",4,142,2,0,60,361,"d",1
1,25,"1","Web from lab",4,143,2,1,60,312,"h",1
1,25,"1","Web from lab",4,144,2,0,60,338,"d",1
2,19,"f","Response box",4,1,2,1,300,70,"2",0
2,19,"f","Response box",4,2,2,0,300,336,"2",1
2,19,"f","Response box",4,3,2,0,300,341,"2",1
2,19,"f","Response box",4,4,2,1,300,253,"5",1
2,19,"f","Response box",4,5,2,1,300,337,"5",1
2,19,"f","Response box",4,6,2,0,300,234,"2",1
2,19,"f","Response box",4,7,2,0,300,257,"2",1
2,19,"f","Response box",4,8,2,1,300,240,"5",1
2,19,"f","Response box",4,9,2,0,300,263,"2",1
2,19,"f","Response box",4,10,2,1,300,234,"5",1
2,19,"f","Response box",4,11,2,0,300,195,"2",1
2,19,"f","Response box",4,12,2,1,300,206,"5",1
2,19,"f","Response box",4,13,2,1,300,163,"2",0
2,19,"f","Response box",4,14,2,0,300,278,"2",1
2,19,"f","Response box",4,15,2,1,300,222,"5",1
2,19,"f","Response box",4,16,2,0,300,186,"2",1
2,19,"f","Response box",4,17,2,1,300,190,"5",1
2,19,"f","Response box",4,18,2,0,300,179,"2",1
2,19,"f","Response box",4,19,2,0,300,172,"5",0
2,19,"f","Response box",4,20,2,1,300,313,"5",1
2,19,"f","Response box",4,21,2,0,300,193,"2",1
2,19,"f","Response box",4,22,2,1,300,212,"5",1
2,19,"f","Response box",4,23,2,0,300,284,"2",1
2,19,"f","Response box",4,24,2,1,300,206,"5",1
2,19,"f","Response box",4,25,2,1,240,469,"5",1
2,19,"f","Response box",4,26,2,0,240,279,"2",1
2,19,"f","Response box",4,27,2,1,240,245,"5",1
2,19,"f","Response box",4,28,2,0,240,193,"2",1
2,19,"f","Response box",4,29,2,1,240,189,"5",1
2,19,"f","Response box",4,30,2,0,240,109,"2",1
2,19,"f","Response box",4,31,2,1,240,145,"5",1
2,19,"f","Response box",4,32,2,0,240,167,"2",1
2,19,"f","Response box",4,33,2,1,240,206,"5",1
2,19,"f","Response box",4,34,2,0,240,201,"2",1
2,19,"f","Response box",4,35,2,1,240,211,"5",1
2,19,"f","Response box",4,36,2,0,240,178,"2",1
2,19,"f","Response box",4,37,2,1,240,168,"5",1
2,19,"f","Response box",4,38,2,0,240,162,"2",1
2,19,"f","Response box",4,39,2,1,240,240,"5",1
2,19,"f","Response box",4,40,2,0,240,185,"2",1
2,19,"f","Response box",4,41,2,0,240,200,"5",0
2,19,"f","Response box",4,42,2,1,240,274,"5",1
2,19,"f","Response box",4,43,2,0,240,128,"2",1
2,19,"f","Response box",4,44,2,1,240,252,"5",1
2,19,"f","Response box",4,45,2,0,240,181,"2",1
2,19,"f","Response box",4,46,2,1,240,180,"5",1
2,19,"f","Response box",4,47,2,0,240,174,"2",1
2,19,"f","Response box",4,48,2,1,240,148,"5",1
2,19,"f","Response box",4,49,2,0,60,295,"2",1
2,19,"f","Response box",4,50,2,1,60,191,"5",1
2,19,"f","Response box",4,51,2,0,60,119,"2",1
2,19,"f","Response box",4,52,2,1,60,161,"5",1
2,19,"f","Response box",4,53,2,1,60,179,"2",0
2,19,"f","Response box",4,54,2,0,60,249,"2",1
2,19,"f","Response box",4,55,2,0,60,91,"5",0
2,19,"f","Response box",4,56,2,1,60,188,"5",1
2,19,"f","Response box",4,57,2,1,60,191,"2",0
2,19,"f","Response box",4,58,2,0,60,279,"2",1
2,19,"f","Response box",4,59,2,0,60,197,"5",0
2,19,"f","Response box",4,60,2,1,60,287,"5",1
2,19,"f","Response box",4,61,2,1,60,335,"5",1
2,19,"f","Response box",4,62,2,0,60,290,"5",0
2,19,"f","Response box",4,63,2,1,60,316,"5",1
2,19,"f","Response box",4,64,2,0,60,272,"2",1
2,19,"f","Response box",4,65,2,1,60,242,"5",1
2,19,"f","Response box",4,66,2,0,60,184,"2",1
2,19,"f","Response box",4,67,2,1,60,252,"5",1
2,19,"f","Response box",4,68,2,0,60,132,"2",1
2,19,"f","Response box",4,69,2,1,60,174,"5",1
2,19,"f","Response box",4,70,2,0,60,171,"2",1
2,19,"f","Response box",4,71,2,0,60,168,"5",0
2,19,"f","Response box",4,72,2,1,60,295,"5",1
2,19,"f","Response box",4,73,2,1,360,297,"5",1
2,19,"f","Response box",4,74,2,0,360,174,"5",0
2,19,"f","Response box",4,75,2,0,360,276,"2",1
2,19,"f","Response box",4,76,2,1,360,224,"5",1
2,19,"f","Response box",4,77,2,1,360,161,"2",0
2,19,"f","Response box",4,78,2,0,360,269,"2",1
2,19,"f","Response box",4,79,2,0,360,240,"2",1
2,19,"f","Response box",4,80,2,1,360,256,"5",1
2,19,"f","Response box",4,81,2,0,360,278,"2",1
2,19,"f","Response box",4,82,2,1,360,213,"5",1
2,19,"f","Response box",4,83,2,0,360,188,"2",1
2,19,"f","Response box",4,84,2,1,360,272,"5",1
2,19,"f","Response box",4,85,2,1,360,331,"5",1
2,19,"f","Response box",4,86,2,0,360,193,"2",1
2,19,"f","Response box",4,87,2,0,360,273,"2",1
2,19,"f","Response box",4,88,2,1,360,192,"5",1
2,19,"f","Response box",4,89,2,0,360,213,"2",1
2,19,"f","Response box",4,90,2,1,360,238,"5",1
2,19,"f","Response box",4,91,2,0,360,263,"2",1
2,19,"f","Response box",4,92,2,1,360,231,"5",1
2,19,"f","Response box",4,93,2,0,360,221,"2",1
2,19,"f","Response box",4,94,2,1,360,215,"5",1
2,19,"f","Response box",4,95,2,1,360,381,"5",1
2,19,"f","Response box",4,96,2,0,360,268,"2",1
2,19,"f","Response box",4,97,2,0,120,300,"2",1
2,19,"f","Response box",4,98,2,1,120,228,"5",1
2,19,"f","Response box",4,99,2,0,120,161,"2",1
2,19,"f","Response box",4,100,2,1,120,193,"5",1
2,19,"f","Response box",4,101,2,0,120,113,"2",1
2,19,"f","Response box",4,102,2,1,120,196,"5",1
2,19,"f","Response box",4,103,2,1,120,351,"5",1
2,19,"f","Response box",4,104,2,0,120,280,"2",1
2,19,"f","Response box",4,105,2,1,120,199,"5",1
2,19,"f","Response box",4,106,2,0,120,194,"2",1
2,19,"f","Response box",4,107,2,0,120,193,"5",0
2,19,"f","Response box",4,108,2,1,120,343,"5",1
2,19,"f","Response box",4,109,2,1,120,241,"2",0
2,19,"f","Response box",4,110,2,0,120,291,"2",1
2,19,"f","Response box",4,111,2,1,120,276,"5",1
2,19,"f","Response box",4,112,2,0,120,213,"2",1
2,19,"f","Response box",4,113,2,0,120,202,"5",0
2,19,"f","Response box",4,114,2,1,120,352,"5",1
2,19,"f","Response box",4,115,2,0,120,199,"2",1
2,19,"f","Response box",4,116,2,1,120,250,"5",1
2,19,"f","Response box",4,117,2,1,120,323,"5",1
2,19,"f","Response box",4,118,2,0,120,224,"2",1
2,19,"f","Response box",4,119,2,1,120,241,"5",1
2,19,"f","Response box",4,120,2,0,120,198,"2",1
2,19,"f","Response box",4,121,2,0,180,293,"2",1
2,19,"f","Response box",4,122,2,1,180,251,"5",1
2,19,"f","Response box",4,123,2,1,180,225,"2",0
2,19,"f","Response box",4,124,2,0,180,316,"2",1
2,19,"f","Response box",4,125,2,0,180,371,"2",1
2,19,"f","Response box",4,126,2,1,180,259,"5",1
2,19,"f","Response box",4,127,2,1,180,298,"5",1
2,19,"f","Response box",4,128,2,0,180,270,"2",1
2,19,"f","Response box",4,129,2,1,180,291,"5",1
2,19,"f","Response box",4,130,2,0,180,264,"2",1
2,19,"f","Response box",4,131,2,0,180,323,"2",1
2,19,"f","Response box",4,132,2,1,180,296,"5",1
2,19,"f","Response box",4,133,2,0,180,209,"2",1
2,19,"f","Response box",4,134,2,1,180,216,"5",1
2,19,"f","Response box",4,135,2,0,180,230,"2",1
2,19,"f","Response box",4,136,2,1,180,184,"5",1
2,19,"f","Response box",4,137,2,1,180,219,"2",0
2,19,"f","Response box",4,138,2,0,180,320,"2",1
2,19,"f","Response box",4,139,2,1,180,241,"5",1
2,19,"f","Response box",4,140,2,0,180,242,"2",1
2,19,"f","Response box",4,141,2,1,180,244,"5",1
2,19,"f","Response box",4,142,2,0,180,208,"2",1
2,19,"f","Response box",4,143,2,0,180,287,"2",1
2,19,"f","Response box",4,144,2,1,180,231,"5",1
2,19,"1","Web from home",1,1,2,1,360,1731,"h",1
2,19,"1","Web from home",1,2,2,0,360,1165,"d",1
2,19,"1","Web from home",1,3,2,0,360,543,"d",1
2,19,"1","Web from home",1,4,2,1,360,707,"h",1
2,19,"1","Web from home",1,5,2,1,360,532,"h",1
2,19,"1","Web from home",1,6,2,0,360,417,"d",1
2,19,"1","Web from home",1,7,2,1,360,476,"h",1
2,19,"1","Web from home",1,8,2,0,360,401,"d",1
2,19,"1","Web from home",1,9,2,0,360,488,"d",1
2,19,"1","Web from home",1,10,2,1,360,400,"h",1
2,19,"1","Web from home",1,11,2,1,360,464,"h",1
2,19,"1","Web from home",1,12,2,0,360,488,"d",1
2,19,"1","Web from home",1,13,2,0,360,431,"d",1
2,19,"1","Web from home",1,14,2,1,360,992,"h",1
2,19,"1","Web from home",1,15,2,1,360,346,"h",1
2,19,"1","Web from home",1,16,2,0,360,371,"d",1
2,19,"1","Web from home",1,17,2,1,360,391,"h",1
2,19,"1","Web from home",1,18,2,0,360,302,"d",1
2,19,"1","Web from home",1,19,2,0,360,453,"d",1
2,19,"1","Web from home",1,20,2,1,360,415,"h",1
2,19,"1","Web from home",1,21,2,1,360,315,"d",0
2,19,"1","Web from home",1,22,2,0,360,497,"d",1
2,19,"1","Web from home",1,23,2,1,360,402,"h",1
2,19,"1","Web from home",1,24,2,0,360,379,"d",1
2,19,"1","Web from home",1,25,2,0,240,1013,"d",1
2,19,"1","Web from home",1,26,2,1,240,456,"h",1
2,19,"1","Web from home",1,27,2,0,240,446,"d",1
2,19,"1","Web from home",1,28,2,1,240,378,"h",1
2,19,"1","Web from home",1,29,2,0,240,329,"d",1
2,19,"1","Web from home",1,30,2,1,240,379,"h",1
2,19,"1","Web from home",1,31,2,0,240,311,"d",1
2,19,"1","Web from home",1,32,2,1,240,285,"h",1
2,19,"1","Web from home",1,33,2,1,240,299,"d",0
2,19,"1","Web from home",1,34,2,0,240,502,"d",1
2,19,"1","Web from home",1,35,2,1,240,368,"h",1
2,19,"1","Web from home",1,36,2,0,240,395,"d",1
2,19,"1","Web from home",1,37,2,0,240,258,"h",0
2,19,"1","Web from home",1,38,2,1,240,384,"h",1
2,19,"1","Web from home",1,39,2,0,240,341,"d",1
2,19,"1","Web from home",1,40,2,1,240,328,"h",1
2,19,"1","Web from home",1,41,2,0,240,325,"d",1
2,19,"1","Web from home",1,42,2,1,240,248,"h",1
2,19,"1","Web from home",1,43,2,1,240,235,"d",0
2,19,"1","Web from home",1,44,2,0,240,500,"d",1
2,19,"1","Web from home",1,45,2,0,240,437,"d",1
2,19,"1","Web from home",1,46,2,1,240,412,"h",1
2,19,"1","Web from home",1,47,2,0,240,340,"d",1
2,19,"1","Web from home",1,48,2,1,240,356,"h",1
2,19,"1","Web from home",1,49,2,0,120,569,"d",1
2,19,"1","Web from home",1,50,2,1,120,381,"h",1
2,19,"1","Web from home",1,51,2,0,120,349,"d",1
2,19,"1","Web from home",1,52,2,1,120,315,"h",1
2,19,"1","Web from home",1,53,2,0,120,301,"d",1
2,19,"1","Web from home",1,54,2,1,120,316,"h",1
2,19,"1","Web from home",1,55,2,0,120,360,"d",1
2,19,"1","Web from home",1,56,2,1,120,317,"h",1
2,19,"1","Web from home",1,57,2,0,120,387,"d",1
2,19,"1","Web from home",1,58,2,1,120,285,"h",1
2,19,"1","Web from home",1,59,2,0,120,288,"d",1
2,19,"1","Web from home",1,60,2,1,120,360,"h",1
2,19,"1","Web from home",1,61,2,0,120,296,"d",1
2,19,"1","Web from home",1,62,2,1,120,369,"h",1
2,19,"1","Web from home",1,63,2,1,120,311,"d",0
2,19,"1","Web from home",1,64,2,0,120,459,"d",1
2,19,"1","Web from home",1,65,2,0,120,450,"d",1
2,19,"1","Web from home",1,66,2,1,120,330,"h",1
2,19,"1","Web from home",1,67,2,1,120,290,"d",0
2,19,"1","Web from home",1,68,2,0,120,356,"d",1
2,19,"1","Web from home",1,69,2,0,120,371,"h",0
2,19,"1","Web from home",1,70,2,1,120,380,"h",1
2,19,"1","Web from home",1,71,2,0,120,415,"d",1
2,19,"1","Web from home",1,72,2,1,120,401,"h",1
2,19,"1","Web from home",1,73,2,0,300,544,"d",1
2,19,"1","Web from home",1,74,2,1,300,441,"h",1
2,19,"1","Web from home",1,75,2,1,300,380,"h",1
2,19,"1","Web from home",1,76,2,0,300,370,"d",1
2,19,"1","Web from home",1,77,2,0,300,401,"d",1
2,19,"1","Web from home",1,78,2,1,300,386,"h",1
2,19,"1","Web from home",1,79,2,1,300,292,"d",0
2,19,"1","Web from home",1,80,2,0,300,445,"d",1
2,19,"1","Web from home",1,81,2,0,300,388,"d",1
2,19,"1","Web from home",1,82,2,1,300,390,"h",1
2,19,"1","Web from home",1,83,2,0,300,329,"d",1
2,19,"1","Web from home",1,84,2,1,300,389,"h",1
2,19,"1","Web from home",1,85,2,1,300,260,"d",0
2,19,"1","Web from home",1,86,2,0,300,415,"d",1
2,19,"1","Web from home",1,87,2,0,300,402,"d",1
2,19,"1","Web from home",1,88,2,1,300,396,"h",1
2,19,"1","Web from home",1,89,2,0,300,380,"d",1
2,19,"1","Web from home",1,90,2,1,300,343,"h",1
2,19,"1","Web from home",1,91,2,0,300,349,"d",1
2,19,"1","Web from home",1,92,2,1,300,305,"h",1
2,19,"1","Web from home",1,93,2,1,300,309,"d",0
2,19,"1","Web from home",1,94,2,0,300,415,"d",1
2,19,"1","Web from home",1,95,2,1,300,372,"h",1
2,19,"1","Web from home",1,96,2,0,300,274,"d",1
2,19,"1","Web from home",1,97,2,0,180,376,"d",1
2,19,"1","Web from home",1,98,2,1,180,339,"h",1
2,19,"1","Web from home",1,99,2,1,180,403,"h",1
2,19,"1","Web from home",1,100,2,0,180,317,"d",1
2,19,"1","Web from home",1,101,2,0,180,362,"d",1
2,19,"1","Web from home",1,102,2,1,180,353,"h",1
2,19,"1","Web from home",1,103,2,0,180,346,"d",1
2,19,"1","Web from home",1,104,2,1,180,307,"h",1
2,19,"1","Web from home",1,105,2,1,180,379,"d",0
2,19,"1","Web from home",1,106,2,0,180,403,"d",1
2,19,"1","Web from home",1,107,2,0,180,307,"h",0
2,19,"1","Web from home",1,108,2,1,180,412,"h",1
2,19,"1","Web from home",1,109,2,0,180,368,"d",1
2,19,"1","Web from home",1,110,2,1,180,386,"h",1
2,19,"1","Web from home",1,111,2,0,180,338,"d",1
2,19,"1","Web from home",1,112,2,1,180,386,"h",1
2,19,"1","Web from home",1,113,2,1,180,497,"h",1
2,19,"1","Web from home",1,114,2,0,180,370,"d",1
2,19,"1","Web from home",1,115,2,1,180,371,"h",1
2,19,"1","Web from home",1,116,2,0,180,350,"d",1
2,19,"1","Web from home",1,117,2,0,180,276,"h",0
2,19,"1","Web from home",1,118,2,1,180,503,"h",1
2,19,"1","Web from home",1,119,2,1,180,513,"h",1
2,19,"1","Web from home",1,120,2,0,180,355,"d",1
2,19,"1","Web from home",1,121,2,0,60,495,"d",1
2,19,"1","Web from home",1,122,2,1,60,394,"h",1
2,19,"1","Web from home",1,123,2,1,60,369,"h",1
2,19,"1","Web from home",1,124,2,0,60,340,"d",1
2,19,"1","Web from home",1,125,2,1,60,233,"h",1
2,19,"1","Web from home",1,126,2,0,60,297,"d",1
2,19,"1","Web from home",1,127,2,0,60,264,"h",0
2,19,"1","Web from home",1,128,2,1,60,375,"h",1
2,19,"1","Web from home",1,129,2,1,60,401,"h",1
2,19,"1","Web from home",1,130,2,0,60,359,"d",1
2,19,"1","Web from home",1,131,2,0,60,378,"d",1
2,19,"1","Web from home",1,132,2,1,60,367,"h",1
2,19,"1","Web from home",1,133,2,1,60,275,"d",0
2,19,"1","Web from home",1,134,2,0,60,454,"d",1
2,19,"1","Web from home",1,135,2,1,60,402,"h",1
2,19,"1","Web from home",1,136,2,0,60,349,"d",1
2,19,"1","Web from home",1,137,2,0,60,484,"d",1
2,19,"1","Web from home",1,138,2,1,60,347,"h",1
2,19,"1","Web from home",1,139,2,0,60,307,"d",1
2,19,"1","Web from home",1,140,2,1,60,319,"h",1
2,19,"1","Web from home",1,141,2,1,60,375,"h",1
2,19,"1","Web from home",1,142,2,0,60,312,"d",1
2,19,"1","Web from home",1,143,2,1,60,300,"h",1
2,19,"1","Web from home",1,144,2,0,60,282,"d",1
2,19,"f","Keyboard",2,1,2,1,240,802,"h",1
2,19,"f","Keyboard",2,2,2,0,240,531,"d",1
2,19,"f","Keyboard",2,3,2,1,240,355,"h",1
2,19,"f","Keyboard",2,4,2,0,240,328,"d",1
2,19,"f","Keyboard",2,5,2,1,240,317,"h",1
2,19,"f","Keyboard",2,6,2,0,240,314,"d",1
2,19,"f","Keyboard",2,7,2,1,240,323,"h",1
2,19,"f","Keyboard",2,8,2,0,240,372,"d",1
2,19,"f","Keyboard",2,9,2,0,240,397,"d",1
2,19,"f","Keyboard",2,10,2,1,240,297,"h",1
2,19,"f","Keyboard",2,11,2,1,240,380,"h",1
2,19,"f","Keyboard",2,12,2,0,240,294,"d",1
2,19,"f","Keyboard",2,13,2,1,240,315,"h",1
2,19,"f","Keyboard",2,14,2,0,240,277,"d",1
2,19,"f","Keyboard",2,15,2,0,240,395,"d",1
2,19,"f","Keyboard",2,16,2,1,240,313,"h",1
2,19,"f","Keyboard",2,17,2,0,240,264,"d",1
2,19,"f","Keyboard",2,18,2,1,240,298,"h",1
2,19,"f","Keyboard",2,19,2,1,240,424,"h",1
2,19,"f","Keyboard",2,20,2,0,240,294,"d",1
2,19,"f","Keyboard",2,21,2,0,240,255,"h",0
2,19,"f","Keyboard",2,22,2,1,240,378,"h",1
2,19,"f","Keyboard",2,23,2,0,240,265,"d",1
2,19,"f","Keyboard",2,24,2,1,240,288,"h",1
2,19,"f","Keyboard",2,25,2,0,60,525,"d",1
2,19,"f","Keyboard",2,26,2,1,60,350,"h",1
2,19,"f","Keyboard",2,27,2,1,60,371,"h",1
2,19,"f","Keyboard",2,28,2,0,60,335,"d",1
2,19,"f","Keyboard",2,29,2,1,60,269,"h",1
2,19,"f","Keyboard",2,30,2,0,60,281,"d",1
2,19,"f","Keyboard",2,31,2,0,60,359,"d",1
2,19,"f","Keyboard",2,32,2,1,60,320,"h",1
2,19,"f","Keyboard",2,33,2,1,60,359,"h",1
2,19,"f","Keyboard",2,34,2,0,60,343,"d",1
2,19,"f","Keyboard",2,35,2,0,60,343,"d",1
2,19,"f","Keyboard",2,36,2,1,60,279,"h",1
2,19,"f","Keyboard",2,37,2,0,60,278,"d",1
2,19,"f","Keyboard",2,38,2,1,60,284,"h",1
2,19,"f","Keyboard",2,39,2,0,60,300,"d",1
2,19,"f","Keyboard",2,40,2,1,60,246,"h",1
2,19,"f","Keyboard",2,41,2,1,60,365,"h",1
2,19,"f","Keyboard",2,42,2,0,60,262,"h",0
2,19,"f","Keyboard",2,43,2,1,60,402,"h",1
2,19,"f","Keyboard",2,44,2,0,60,325,"d",1
2,19,"f","Keyboard",2,45,2,1,60,299,"h",1
2,19,"f","Keyboard",2,46,2,0,60,288,"d",1
2,19,"f","Keyboard",2,47,2,0,60,382,"d",1
2,19,"f","Keyboard",2,48,2,1,60,255,"h",1
2,19,"f","Keyboard",2,49,2,0,360,458,"d",1
2,19,"f","Keyboard",2,50,2,1,360,256,"h",1
2,19,"f","Keyboard",2,51,2,1,360,282,"d",0
2,19,"f","Keyboard",2,52,2,0,360,382,"d",1
2,19,"f","Keyboard",2,53,2,0,360,252,"h",0
2,19,"f","Keyboard",2,54,2,1,360,356,"h",1
2,19,"f","Keyboard",2,55,2,0,360,322,"d",1
2,19,"f","Keyboard",2,56,2,1,360,278,"h",1
2,19,"f","Keyboard",2,57,2,1,360,456,"h",1
2,19,"f","Keyboard",2,58,2,0,360,322,"d",1
2,19,"f","Keyboard",2,59,2,0,360,390,"d",1
2,19,"f","Keyboard",2,60,2,1,360,488,"h",1
2,19,"f","Keyboard",2,61,2,1,360,281,"d",0
2,19,"f","Keyboard",2,62,2,0,360,374,"d",1
2,19,"f","Keyboard",2,63,2,1,360,352,"h",1
2,19,"f","Keyboard",2,64,2,0,360,252,"d",1
2,19,"f","Keyboard",2,65,2,1,360,327,"h",1
2,19,"f","Keyboard",2,66,2,0,360,315,"d",1
2,19,"f","Keyboard",2,67,2,0,360,418,"d",1
2,19,"f","Keyboard",2,68,2,1,360,298,"h",1
2,19,"f","Keyboard",2,69,2,1,360,380,"h",1
2,19,"f","Keyboard",2,70,2,0,360,308,"d",1
2,19,"f","Keyboard",2,71,2,1,360,367,"h",1
2,19,"f","Keyboard",2,72,2,0,360,297,"d",1
2,19,"f","Keyboard",2,73,2,1,180,410,"h",1
2,19,"f","Keyboard",2,74,2,0,180,347,"d",1
2,19,"f","Keyboard",2,75,2,1,180,269,"h",1
2,19,"f","Keyboard",2,76,2,0,180,277,"d",1
2,19,"f","Keyboard",2,77,2,0,180,305,"d",1
2,19,"f","Keyboard",2,78,2,1,180,303,"h",1
2,19,"f","Keyboard",2,79,2,0,180,303,"d",1
2,19,"f","Keyboard",2,80,2,1,180,296,"h",1
2,19,"f","Keyboard",2,81,2,0,180,336,"d",1
2,19,"f","Keyboard",2,82,2,1,180,241,"h",1
2,19,"f","Keyboard",2,83,2,0,180,252,"d",1
2,19,"f","Keyboard",2,84,2,1,180,275,"h",1
2,19,"f","Keyboard",2,85,2,0,180,288,"d",1
2,19,"f","Keyboard",2,86,2,1,180,285,"h",1
2,19,"f","Keyboard",2,87,2,0,180,301,"d",1
2,19,"f","Keyboard",2,88,2,1,180,284,"h",1
2,19,"f","Keyboard",2,89,2,0,180,272,"d",1
2,19,"f","Keyboard",2,90,2,1,180,321,"h",1
2,19,"f","Keyboard",2,91,2,1,180,403,"h",1
2,19,"f","Keyboard",2,92,2,0,180,285,"d",1
2,19,"f","Keyboard",2,93,2,0,180,374,"d",1
2,19,"f","Keyboard",2,94,2,1,180,262,"h",1
2,19,"f","Keyboard",2,95,2,0,180,324,"d",1
2,19,"f","Keyboard",2,96,2,1,180,269,"h",1
2,19,"f","Keyboard",2,97,2,0,120,344,"d",1
2,19,"f","Keyboard",2,98,2,1,120,298,"h",1
2,19,"f","Keyboard",2,99,2,1,120,359,"h",1
2,19,"f","Keyboard",2,100,2,0,120,253,"d",1
2,19,"f","Keyboard",2,101,2,0,120,461,"d",1
2,19,"f","Keyboard",2,102,2,1,120,281,"h",1
2,19,"f","Keyboard",2,103,2,0,120,268,"d",1
2,19,"f","Keyboard",2,104,2,1,120,273,"h",1
2,19,"f","Keyboard",2,105,2,0,120,279,"d",1
2,19,"f","Keyboard",2,106,2,1,120,253,"h",1
2,19,"f","Keyboard",2,107,2,0,120,211,"d",1
2,19,"f","Keyboard",2,108,2,1,120,269,"h",1
2,19,"f","Keyboard",2,109,2,0,120,252,"d",1
2,19,"f","Keyboard",2,110,2,1,120,238,"h",1
2,19,"f","Keyboard",2,111,2,0,120,234,"d",1
2,19,"f","Keyboard",2,112,2,1,120,272,"h",1
2,19,"f","Keyboard",2,113,2,1,120,458,"h",1
2,19,"f","Keyboard",2,114,2,0,120,458,"d",1
2,19,"f","Keyboard",2,115,2,0,120,281,"h",0
2,19,"f","Keyboard",2,116,2,1,120,338,"h",1
2,19,"f","Keyboard",2,117,2,0,120,313,"d",1
2,19,"f","Keyboard",2,118,2,1,120,260,"h",1
2,19,"f","Keyboard",2,119,2,0,120,207,"d",1
2,19,"f","Keyboard",2,120,2,1,120,259,"h",1
2,19,"f","Keyboard",2,121,2,0,300,365,"d",1
2,19,"f","Keyboard",2,122,2,1,300,302,"h",1
2,19,"f","Keyboard",2,123,2,0,300,183,"d",1
2,19,"f","Keyboard",2,124,2,1,300,246,"h",1
2,19,"f","Keyboard",2,125,2,1,300,386,"h",1
2,19,"f","Keyboard",2,126,2,0,300,263,"d",1
2,19,"f","Keyboard",2,127,2,1,300,206,"h",1
2,19,"f","Keyboard",2,128,2,0,300,207,"d",1
2,19,"f","Keyboard",2,129,2,1,300,233,"h",1
2,19,"f","Keyboard",2,130,2,0,300,184,"d",1
2,19,"f","Keyboard",2,131,2,1,300,222,"h",1
2,19,"f","Keyboard",2,132,2,0,300,271,"d",1
2,19,"f","Keyboard",2,133,2,0,300,248,"h",0
2,19,"f","Keyboard",2,134,2,1,300,349,"h",1
2,19,"f","Keyboard",2,135,2,0,300,346,"d",1
2,19,"f","Keyboard",2,136,2,1,300,282,"h",1
2,19,"f","Keyboard",2,137,2,0,300,324,"d",1
2,19,"f","Keyboard",2,138,2,1,300,6,"h",1
2,19,"f","Keyboard",2,139,2,1,300,368,"h",1
2,19,"f","Keyboard",2,140,2,0,300,298,"d",1
2,19,"f","Keyboard",2,141,2,1,300,294,"h",1
2,19,"f","Keyboard",2,142,2,0,300,291,"d",1
2,19,"f","Keyboard",2,143,2,1,300,356,"h",1
2,19,"f","Keyboard",2,144,2,0,300,343,"d",1
2,19,"1","Web from lab",3,1,2,1,180,3399,"h",1
2,19,"1","Web from lab",3,2,2,0,180,881,"d",1
2,19,"1","Web from lab",3,3,2,1,180,370,"h",1
2,19,"1","Web from lab",3,4,2,0,180,338,"d",1
2,19,"1","Web from lab",3,5,2,1,180,336,"h",1
2,19,"1","Web from lab",3,6,2,0,180,358,"d",1
2,19,"1","Web from lab",3,7,2,0,180,294,"h",0
2,19,"1","Web from lab",3,8,2,1,180,378,"h",1
2,19,"1","Web from lab",3,9,2,1,180,388,"h",1
2,19,"1","Web from lab",3,10,2,0,180,361,"d",1
2,19,"1","Web from lab",3,11,2,0,180,364,"d",1
2,19,"1","Web from lab",3,12,2,1,180,348,"h",1
2,19,"1","Web from lab",3,13,2,1,180,351,"h",1
2,19,"1","Web from lab",3,14,2,0,180,332,"d",1
2,19,"1","Web from lab",3,15,2,1,180,334,"h",1
2,19,"1","Web from lab",3,16,2,0,180,304,"d",1
2,19,"1","Web from lab",3,17,2,0,180,418,"d",1
2,19,"1","Web from lab",3,18,2,1,180,325,"h",1
2,19,"1","Web from lab",3,19,2,1,180,235,"d",0
2,19,"1","Web from lab",3,20,2,0,180,391,"d",1
2,19,"1","Web from lab",3,21,2,0,180,272,"h",0
2,19,"1","Web from lab",3,22,2,1,180,340,"h",1
2,19,"1","Web from lab",3,23,2,0,180,344,"d",1
2,19,"1","Web from lab",3,24,2,1,180,346,"h",1
2,19,"1","Web from lab",3,25,2,0,60,576,"d",1
2,19,"1","Web from lab",3,26,2,1,60,379,"h",1
2,19,"1","Web from lab",3,27,2,0,60,328,"d",1
2,19,"1","Web from lab",3,28,2,1,60,289,"h",1
2,19,"1","Web from lab",3,29,2,0,60,271,"d",1
2,19,"1","Web from lab",3,30,2,1,60,335,"h",1
2,19,"1","Web from lab",3,31,2,1,60,400,"h",1
2,19,"1","Web from lab",3,32,2,0,60,814,"d",1
2,19,"1","Web from lab",3,33,2,1,60,358,"h",1
2,19,"1","Web from lab",3,34,2,0,60,364,"d",1
2,19,"1","Web from lab",3,35,2,0,60,390,"d",1
2,19,"1","Web from lab",3,36,2,1,60,307,"h",1
2,19,"1","Web from lab",3,37,2,1,60,288,"d",0
2,19,"1","Web from lab",3,38,2,0,60,349,"d",1
2,19,"1","Web from lab",3,39,2,1,60,310,"h",1
2,19,"1","Web from lab",3,40,2,0,60,276,"d",1
2,19,"1","Web from lab",3,41,2,1,60,248,"h",1
2,19,"1","Web from lab",3,42,2,0,60,238,"d",1
2,19,"1","Web from lab",3,43,2,1,60,199,"h",1
2,19,"1","Web from lab",3,44,2,0,60,267,"d",1
2,19,"1","Web from lab",3,45,2,0,60,213,"h",0
2,19,"1","Web from lab",3,46,2,1,60,369,"h",1
2,19,"1","Web from lab",3,47,2,1,60,271,"d",0
2,19,"1","Web from lab",3,48,2,0,60,378,"d",1
2,19,"1","Web from lab",3,49,2,1,300,453,"h",1
2,19,"1","Web from lab",3,50,2,0,300,292,"d",1
2,19,"1","Web from lab",3,51,2,1,300,330,"h",1
2,19,"1","Web from lab",3,52,2,0,300,259,"d",1
2,19,"1","Web from lab",3,53,2,1,300,299,"h",1
2,19,"1","Web from lab",3,54,2,0,300,223,"d",1
2,19,"1","Web from lab",3,55,2,0,300,252,"h",0
2,19,"1","Web from lab",3,56,2,1,300,299,"h",1
2,19,"1","Web from lab",3,57,2,0,300,256,"d",1
2,19,"1","Web from lab",3,58,2,1,300,275,"h",1
2,19,"1","Web from lab",3,59,2,1,300,251,"d",0
2,19,"1","Web from lab",3,60,2,0,300,393,"d",1
2,19,"1","Web from lab",3,61,2,1,300,299,"h",1
2,19,"1","Web from lab",3,62,2,0,300,336,"d",1
2,19,"1","Web from lab",3,63,2,0,300,399,"d",1
2,19,"1","Web from lab",3,64,2,1,300,377,"h",1
2,19,"1","Web from lab",3,65,2,0,300,292,"d",1
2,19,"1","Web from lab",3,66,2,1,300,299,"h",1
2,19,"1","Web from lab",3,67,2,0,300,332,"d",1
2,19,"1","Web from lab",3,68,2,1,300,336,"h",1
2,19,"1","Web from lab",3,69,2,0,300,252,"d",1
2,19,"1","Web from lab",3,70,2,1,300,232,"h",1
2,19,"1","Web from lab",3,71,2,1,300,325,"d",0
2,19,"1","Web from lab",3,72,2,0,300,532,"d",1
2,19,"1","Web from lab",3,73,2,1,120,716,"h",1
2,19,"1","Web from lab",3,74,2,0,120,364,"d",1
2,19,"1","Web from lab",3,75,2,1,120,282,"h",1
2,19,"1","Web from lab",3,76,2,0,120,202,"d",1
2,19,"1","Web from lab",3,77,2,0,120,426,"d",1
2,19,"1","Web from lab",3,78,2,1,120,270,"h",1
2,19,"1","Web from lab",3,79,2,1,120,447,"h",1
2,19,"1","Web from lab",3,80,2,0,120,288,"d",1
2,19,"1","Web from lab",3,81,2,1,120,291,"h",1
2,19,"1","Web from lab",3,82,2,0,120,371,"d",1
2,19,"1","Web from lab",3,83,2,1,120,344,"h",1
2,19,"1","Web from lab",3,84,2,0,120,223,"d",1
2,19,"1","Web from lab",3,85,2,0,120,217,"h",0
2,19,"1","Web from lab",3,86,2,1,120,428,"h",1
2,19,"1","Web from lab",3,87,2,0,120,299,"d",1
2,19,"1","Web from lab",3,88,2,1,120,289,"h",1
2,19,"1","Web from lab",3,89,2,1,120,286,"d",0
2,19,"1","Web from lab",3,90,2,0,120,394,"d",1
2,19,"1","Web from lab",3,91,2,0,120,310,"h",0
2,19,"1","Web from lab",3,92,2,1,120,431,"h",1
2,19,"1","Web from lab",3,93,2,1,120,411,"h",1
2,19,"1","Web from lab",3,94,2,0,120,364,"d",1
2,19,"1","Web from lab",3,95,2,1,120,375,"h",1
2,19,"1","Web from lab",3,96,2,0,120,316,"d",1
2,19,"1","Web from lab",3,97,2,0,360,594,"d",1
2,19,"1","Web from lab",3,98,2,1,360,354,"h",1
2,19,"1","Web from lab",3,99,2,0,360,296,"d",1
2,19,"1","Web from lab",3,100,2,1,360,317,"h",1
2,19,"1","Web from lab",3,101,2,1,360,393,"h",1
2,19,"1","Web from lab",3,102,2,0,360,411,"d",1
2,19,"1","Web from lab",3,103,2,0,360,310,"h",0
2,19,"1","Web from lab",3,104,2,1,360,428,"h",1
2,19,"1","Web from lab",3,105,2,1,360,418,"h",1
2,19,"1","Web from lab",3,106,2,0,360,354,"d",1
2,19,"1","Web from lab",3,107,2,0,360,473,"d",1
2,19,"1","Web from lab",3,108,2,1,360,288,"h",1
2,19,"1","Web from lab",3,109,2,1,360,353,"h",1
2,19,"1","Web from lab",3,110,2,0,360,375,"d",1
2,19,"1","Web from lab",3,111,2,1,360,343,"h",1
2,19,"1","Web from lab",3,112,2,0,360,383,"d",1
2,19,"1","Web from lab",3,113,2,0,360,467,"d",1
2,19,"1","Web from lab",3,114,2,1,360,357,"h",1
2,19,"1","Web from lab",3,115,2,0,360,346,"d",1
2,19,"1","Web from lab",3,116,2,1,360,326,"h",1
2,19,"1","Web from lab",3,117,2,1,360,378,"h",1
2,19,"1","Web from lab",3,118,2,0,360,288,"d",1
2,19,"1","Web from lab",3,119,2,1,360,343,"h",1
2,19,"1","Web from lab",3,120,2,0,360,231,"d",1
2,19,"1","Web from lab",3,121,2,1,240,443,"h",1
2,19,"1","Web from lab",3,122,2,0,240,234,"d",1
2,19,"1","Web from lab",3,123,2,1,240,299,"h",1
2,19,"1","Web from lab",3,124,2,0,240,274,"d",1
2,19,"1","Web from lab",3,125,2,0,240,260,"h",0
2,19,"1","Web from lab",3,126,2,1,240,432,"h",1
2,19,"1","Web from lab",3,127,2,1,240,187,"d",0
2,19,"1","Web from lab",3,128,2,0,240,407,"d",1
2,19,"1","Web from lab",3,129,2,0,240,372,"d",1
2,19,"1","Web from lab",3,130,2,1,240,356,"h",1
2,19,"1","Web from lab",3,131,2,1,240,264,"d",0
2,19,"1","Web from lab",3,132,2,0,240,394,"d",1
2,19,"1","Web from lab",3,133,2,0,240,428,"d",1
2,19,"1","Web from lab",3,134,2,1,240,462,"h",1
2,19,"1","Web from lab",3,135,2,0,240,360,"d",1
2,19,"1","Web from lab",3,136,2,1,240,332,"h",1
2,19,"1","Web from lab",3,137,2,0,240,320,"d",1
2,19,"1","Web from lab",3,138,2,1,240,321,"h",1
2,19,"1","Web from lab",3,139,2,0,240,267,"d",1
2,19,"1","Web from lab",3,140,2,1,240,335,"h",1
2,19,"1","Web from lab",3,141,2,0,240,292,"d",1
2,19,"1","Web from lab",3,142,2,1,240,325,"h",1
2,19,"1","Web from lab",3,143,2,1,240,245,"d",0
2,19,"1","Web from lab",3,144,2,0,240,380,"d",1
3,19,"f","Response box",2,1,2,0,120,365,"2",1
3,19,"f","Response box",2,2,2,1,120,405,"5",1
3,19,"f","Response box",2,3,2,0,120,284,"2",1
3,19,"f","Response box",2,4,2,1,120,204,"5",1
3,19,"f","Response box",2,5,2,1,120,166,"2",0
3,19,"f","Response box",2,6,2,0,120,350,"2",1
3,19,"f","Response box",2,7,2,1,120,263,"5",1
3,19,"f","Response box",2,8,2,0,120,200,"2",1
3,19,"f","Response box",2,9,2,0,120,240,"2",1
3,19,"f","Response box",2,10,2,1,120,206,"5",1
3,19,"f","Response box",2,11,2,0,120,133,"2",1
3,19,"f","Response box",2,12,2,1,120,139,"5",1
3,19,"f","Response box",2,13,2,0,120,118,"2",1
3,19,"f","Response box",2,14,2,1,120,153,"5",1
3,19,"f","Response box",2,15,2,1,120,142,"2",0
3,19,"f","Response box",2,16,2,0,120,293,"2",1
3,19,"f","Response box",2,17,2,0,120,219,"2",1
3,19,"f","Response box",2,18,2,1,120,250,"5",1
3,19,"f","Response box",2,19,2,1,120,253,"5",1
3,19,"f","Response box",2,20,2,0,120,148,"2",1
3,19,"f","Response box",2,21,2,0,120,164,"5",0
3,19,"f","Response box",2,22,2,1,120,291,"5",1
3,19,"f","Response box",2,23,2,1,120,171,"2",0
3,19,"f","Response box",2,24,2,0,120,274,"2",1
3,19,"f","Response box",2,25,2,1,300,228,"5",1
3,19,"f","Response box",2,26,2,0,300,201,"2",1
3,19,"f","Response box",2,27,2,1,300,160,"2",0
3,19,"f","Response box",2,28,2,0,300,266,"2",1
3,19,"f","Response box",2,29,2,1,300,201,"5",1
3,19,"f","Response box",2,30,2,0,300,211,"2",1
3,19,"f","Response box",2,31,2,1,300,194,"5",1
3,19,"f","Response box",2,32,2,0,300,232,"2",1
3,19,"f","Response box",2,33,2,1,300,124,"5",1
3,19,"f","Response box",2,34,2,0,300,235,"5",0
3,19,"f","Response box",2,35,2,1,300,238,"5",1
3,19,"f","Response box",2,36,2,0,300,226,"2",1
3,19,"f","Response box",2,37,2,1,300,323,"5",1
3,19,"f","Response box",2,38,2,0,300,236,"2",1
3,19,"f","Response box",2,39,2,0,300,171,"5",0
3,19,"f","Response box",2,40,2,1,300,185,"5",1
3,19,"f","Response box",2,41,2,0,300,191,"2",1
3,19,"f","Response box",2,42,2,1,300,191,"5",1
3,19,"f","Response box",2,43,2,0,300,191,"2",1
3,19,"f","Response box",2,44,2,1,300,178,"5",1
3,19,"f","Response box",2,45,2,1,300,159,"2",0
3,19,"f","Response box",2,46,2,0,300,294,"2",1
3,19,"f","Response box",2,47,2,0,300,285,"2",1
3,19,"f","Response box",2,48,2,1,300,208,"5",1
3,19,"f","Response box",2,49,2,1,360,228,"5",1
3,19,"f","Response box",2,50,2,0,360,159,"2",1
3,19,"f","Response box",2,51,2,1,360,140,"5",1
3,19,"f","Response box",2,52,2,0,360,130,"2",1
3,19,"f","Response box",2,53,2,1,360,77,"5",1
3,19,"f","Response box",2,54,2,0,360,229,"2",1
3,19,"f","Response box",2,55,2,0,360,111,"5",0
3,19,"f","Response box",2,56,2,1,360,196,"5",1
3,19,"f","Response box",2,57,2,0,360,169,"2",1
3,19,"f","Response box",2,58,2,1,360,155,"5",1
3,19,"f","Response box",2,59,2,0,360,244,"2",1
3,19,"f","Response box",2,60,2,1,360,92,"5",1
3,19,"f","Response box",2,61,2,0,360,179,"2",1
3,19,"f","Response box",2,62,2,1,360,137,"5",1
3,19,"f","Response box",2,63,2,0,360,207,"2",1
3,19,"f","Response box",2,64,2,1,360,143,"5",1
3,19,"f","Response box",2,65,2,1,360,150,"2",0
3,19,"f","Response box",2,66,2,0,360,325,"2",1
3,19,"f","Response box",2,67,2,1,360,130,"5",1
3,19,"f","Response box",2,68,2,0,360,219,"2",1
3,19,"f","Response box",2,69,2,1,360,149,"5",1
3,19,"f","Response box",2,70,2,0,360,127,"2",1
3,19,"f","Response box",2,71,2,0,360,180,"5",0
3,19,"f","Response box",2,72,2,1,360,401,"5",1
3,19,"f","Response box",2,73,2,1,240,254,"5",1
3,19,"f","Response box",2,74,2,0,240,114,"2",1
3,19,"f","Response box",2,75,2,0,240,93,"5",0
3,19,"f","Response box",2,76,2,1,240,197,"5",1
3,19,"f","Response box",2,77,2,1,240,250,"5",1
3,19,"f","Response box",2,78,2,0,240,124,"2",1
3,19,"f","Response box",2,79,2,1,240,242,"5",1
3,19,"f","Response box",2,80,2,0,240,96,"2",1
3,19,"f","Response box",2,81,2,1,240,162,"5",1
3,19,"f","Response box",2,82,2,0,240,177,"2",1
3,19,"f","Response box",2,83,2,0,240,190,"2",1
3,19,"f","Response box",2,84,2,1,240,165,"5",1
3,19,"f","Response box",2,85,2,1,240,190,"5",1
3,19,"f","Response box",2,86,2,0,240,179,"5",0
3,19,"f","Response box",2,87,2,0,240,260,"2",1
3,19,"f","Response box",2,88,2,1,240,151,"5",1
3,19,"f","Response box",2,89,2,0,240,178,"5",0
3,19,"f","Response box",2,90,2,1,240,182,"5",1
3,19,"f","Response box",2,91,2,1,240,118,"2",0
3,19,"f","Response box",2,92,2,0,240,392,"2",1
3,19,"f","Response box",2,93,2,0,240,200,"5",0
3,19,"f","Response box",2,94,2,1,240,196,"5",1
3,19,"f","Response box",2,95,2,1,240,177,"2",0
3,19,"f","Response box",2,96,2,0,240,263,"2",1
3,19,"f","Response box",2,97,2,0,60,271,"2",1
3,19,"f","Response box",2,98,2,1,60,267,"5",1
3,19,"f","Response box",2,99,2,0,60,243,"2",1
3,19,"f","Response box",2,100,2,1,60,150,"5",1
3,19,"f","Response box",2,101,2,1,60,242,"5",1
3,19,"f","Response box",2,102,2,0,60,373,"2",1
3,19,"f","Response box",2,103,2,1,60,191,"5",1
3,19,"f","Response box",2,104,2,0,60,212,"2",1
3,19,"f","Response box",2,105,2,0,60,137,"5",0
3,19,"f","Response box",2,106,2,1,60,276,"5",1
3,19,"f","Response box",2,107,2,0,60,163,"2",1
3,19,"f","Response box",2,108,2,1,60,112,"5",1
3,19,"f","Response box",2,109,2,0,60,155,"2",1
3,19,"f","Response box",2,110,2,1,60,118,"5",1
3,19,"f","Response box",2,111,2,0,60,155,"2",1
3,19,"f","Response box",2,112,2,1,60,192,"2",0
3,19,"f","Response box",2,113,2,0,60,251,"2",1
3,19,"f","Response box",2,114,2,1,60,178,"5",1
3,19,"f","Response box",2,115,2,0,60,152,"2",1
3,19,"f","Response box",2,116,2,1,60,214,"5",1
3,19,"f","Response box",2,117,2,1,60,214,"5",1
3,19,"f","Response box",2,118,2,0,60,255,"2",1
3,19,"f","Response box",2,119,2,0,60,179,"2",1
3,19,"f","Response box",2,120,2,1,60,133,"5",1
3,19,"f","Response box",2,121,2,1,180,235,"5",1
3,19,"f","Response box",2,122,2,0,180,93,"2",1
3,19,"f","Response box",2,123,2,1,180,137,"5",1
3,19,"f","Response box",2,124,2,0,180,299,"2",1
3,19,"f","Response box",2,125,2,0,180,168,"5",0
3,19,"f","Response box",2,126,2,1,180,208,"5",1
3,19,"f","Response box",2,127,2,1,180,126,"2",0
3,19,"f","Response box",2,128,2,0,180,285,"2",1
3,19,"f","Response box",2,129,2,1,180,173,"5",1
3,19,"f","Response box",2,130,2,0,180,222,"2",1
3,19,"f","Response box",2,131,2,1,180,92,"5",1
3,19,"f","Response box",2,132,2,0,180,72,"2",1
3,19,"f","Response box",2,133,2,0,180,161,"5",0
3,19,"f","Response box",2,134,2,1,180,228,"5",1
3,19,"f","Response box",2,135,2,1,180,86,"2",0
3,19,"f","Response box",2,136,2,0,180,185,"5",0
3,19,"f","Response box",2,137,2,0,180,283,"2",1
3,19,"f","Response box",2,138,2,1,180,142,"5",1
3,19,"f","Response box",2,139,2,1,180,174,"2",0
3,19,"f","Response box",2,140,2,0,180,238,"2",1
3,19,"f","Response box",2,141,2,0,180,165,"5",0
3,19,"f","Response box",2,142,2,1,180,300,"5",1
3,19,"f","Response box",2,143,2,0,180,205,"2",1
3,19,"f","Response box",2,144,2,1,180,164,"5",1
3,19,"f","Web from home",3,1,2,1,180,620,"h",1
3,19,"f","Web from home",3,2,2,0,180,388,"d",1
3,19,"f","Web from home",3,3,2,0,180,374,"d",1
3,19,"f","Web from home",3,4,2,1,180,312,"h",1
3,19,"f","Web from home",3,5,2,1,180,342,"h",1
3,19,"f","Web from home",3,6,2,0,180,318,"d",1
3,19,"f","Web from home",3,7,2,0,180,343,"d",1
3,19,"f","Web from home",3,8,2,1,180,327,"h",1
3,19,"f","Web from home",3,9,2,0,180,215,"d",1
3,19,"f","Web from home",3,10,2,1,180,240,"h",1
3,19,"f","Web from home",3,11,2,0,180,343,"d",1
3,19,"f","Web from home",3,12,2,1,180,239,"h",1
3,19,"f","Web from home",3,13,2,0,180,376,"d",1
3,19,"f","Web from home",3,14,2,1,180,344,"h",1
3,19,"f","Web from home",3,15,2,0,180,319,"d",1
3,19,"f","Web from home",3,16,2,1,180,385,"h",1
3,19,"f","Web from home",3,17,2,0,180,184,"d",1
3,19,"f","Web from home",3,18,2,1,180,216,"h",1
3,19,"f","Web from home",3,19,2,1,180,192,"d",0
3,19,"f","Web from home",3,20,2,0,180,317,"d",1
3,19,"f","Web from home",3,21,2,0,180,248,"h",0
3,19,"f","Web from home",3,22,2,1,180,374,"h",1
3,19,"f","Web from home",3,23,2,0,180,352,"d",1
3,19,"f","Web from home",3,24,2,1,180,272,"h",1
3,19,"f","Web from home",3,25,2,1,60,383,"h",1
3,19,"f","Web from home",3,26,2,0,60,289,"d",1
3,19,"f","Web from home",3,27,2,1,60,345,"h",1
3,19,"f","Web from home",3,28,2,0,60,312,"d",1
3,19,"f","Web from home",3,29,2,0,60,369,"d",1
3,19,"f","Web from home",3,30,2,1,60,233,"h",1
3,19,"f","Web from home",3,31,2,1,60,264,"d",0
3,19,"f","Web from home",3,32,2,0,60,391,"d",1
3,19,"f","Web from home",3,33,2,0,60,215,"h",0
3,19,"f","Web from home",3,34,2,1,60,342,"h",1
3,19,"f","Web from home",3,35,2,1,60,239,"d",0
3,19,"f","Web from home",3,36,2,0,60,294,"d",1
3,19,"f","Web from home",3,37,2,0,60,352,"d",1
3,19,"f","Web from home",3,38,2,1,60,272,"h",1
3,19,"f","Web from home",3,39,2,1,60,327,"h",1
3,19,"f","Web from home",3,40,2,0,60,272,"d",1
3,19,"f","Web from home",3,41,2,1,60,271,"d",0
3,19,"f","Web from home",3,42,2,0,60,390,"d",1
3,19,"f","Web from home",3,43,2,1,60,488,"h",1
3,19,"f","Web from home",3,44,2,0,60,184,"d",1
3,19,"f","Web from home",3,45,2,1,60,272,"h",1
3,19,"f","Web from home",3,46,2,0,60,296,"d",1
3,19,"f","Web from home",3,47,2,0,60,448,"d",1
3,19,"f","Web from home",3,48,2,1,60,303,"h",1
3,19,"f","Web from home",3,49,2,1,120,367,"h",1
3,19,"f","Web from home",3,50,2,0,120,337,"d",1
3,19,"f","Web from home",3,51,2,1,120,217,"h",1
3,19,"f","Web from home",3,52,2,0,120,281,"d",1
3,19,"f","Web from home",3,53,2,1,120,265,"h",1
3,19,"f","Web from home",3,54,2,0,120,207,"d",1
3,19,"f","Web from home",3,55,2,1,120,209,"d",0
3,19,"f","Web from home",3,56,2,0,120,326,"d",1
3,19,"f","Web from home",3,57,2,0,120,233,"h",0
3,19,"f","Web from home",3,58,2,1,120,304,"h",1
3,19,"f","Web from home",3,59,2,0,120,229,"d",1
3,19,"f","Web from home",3,60,2,1,120,299,"h",1
3,19,"f","Web from home",3,61,2,1,120,351,"h",1
3,19,"f","Web from home",3,62,2,0,120,311,"d",1
3,19,"f","Web from home",3,63,2,0,120,263,"h",0
3,19,"f","Web from home",3,64,2,1,120,318,"h",1
3,19,"f","Web from home",3,65,2,0,120,216,"d",1
3,19,"f","Web from home",3,66,2,1,120,263,"h",1
3,19,"f","Web from home",3,67,2,1,120,400,"h",1
3,19,"f","Web from home",3,68,2,0,120,280,"d",1
3,19,"f","Web from home",3,69,2,0,120,272,"h",0
3,19,"f","Web from home",3,70,2,1,120,334,"h",1
3,19,"f","Web from home",3,71,2,0,120,336,"d",1
3,19,"f","Web from home",3,72,2,1,120,249,"h",1
3,19,"f","Web from home",3,73,2,1,240,471,"h",1
3,19,"f","Web from home",3,74,2,0,240,360,"d",1
3,19,"f","Web from home",3,75,2,0,240,336,"d",1
3,19,"f","Web from home",3,76,2,1,240,321,"h",1
3,19,"f","Web from home",3,77,2,0,240,265,"d",1
3,19,"f","Web from home",3,78,2,1,240,217,"h",1
3,19,"f","Web from home",3,79,2,0,240,328,"d",1
3,19,"f","Web from home",3,80,2,1,240,337,"h",1
3,19,"f","Web from home",3,81,2,0,240,312,"d",1
3,19,"f","Web from home",3,82,2,1,240,329,"h",1
3,19,"f","Web from home",3,83,2,0,240,297,"d",1
3,19,"f","Web from home",3,84,2,1,240,288,"h",1
3,19,"f","Web from home",3,85,2,1,240,297,"h",1
3,19,"f","Web from home",3,86,2,0,240,336,"d",1
3,19,"f","Web from home",3,87,2,0,240,272,"d",1
3,19,"f","Web from home",3,88,2,1,240,279,"h",1
3,19,"f","Web from home",3,89,2,0,240,272,"d",1
3,19,"f","Web from home",3,90,2,1,240,320,"h",1
3,19,"f","Web from home",3,91,2,1,240,688,"h",1
3,19,"f","Web from home",3,92,2,0,240,231,"d",1
3,19,"f","Web from home",3,93,2,0,240,487,"d",1
3,19,"f","Web from home",3,94,2,1,240,233,"h",1
3,19,"f","Web from home",3,95,2,1,240,337,"h",1
3,19,"f","Web from home",3,96,2,0,240,312,"d",1
3,19,"f","Web from home",3,97,2,1,300,535,"h",1
3,19,"f","Web from home",3,98,2,0,300,328,"d",1
3,19,"f","Web from home",3,99,2,0,300,368,"d",1
3,19,"f","Web from home",3,100,2,1,300,321,"h",1
3,19,"f","Web from home",3,101,2,1,300,280,"h",1
3,19,"f","Web from home",3,102,2,0,300,279,"d",1
3,19,"f","Web from home",3,103,2,1,300,280,"h",1
3,19,"f","Web from home",3,104,2,0,300,224,"d",1
3,19,"f","Web from home",3,105,2,1,300,272,"h",1
3,19,"f","Web from home",3,106,2,0,300,225,"d",1
3,19,"f","Web from home",3,107,2,0,300,256,"h",0
3,19,"f","Web from home",3,108,2,1,300,271,"h",1
3,19,"f","Web from home",3,109,2,0,300,297,"d",1
3,19,"f","Web from home",3,110,2,1,300,193,"h",1
3,19,"f","Web from home",3,111,2,0,300,201,"d",1
3,19,"f","Web from home",3,112,2,1,300,209,"h",1
3,19,"f","Web from home",3,113,2,0,300,225,"d",1
3,19,"f","Web from home",3,114,2,1,300,208,"h",1
3,19,"f","Web from home",3,115,2,1,300,137,"d",0
3,19,"f","Web from home",3,116,2,0,300,367,"d",1
3,19,"f","Web from home",3,117,2,1,300,208,"h",1
3,19,"f","Web from home",3,118,2,0,300,137,"d",1
3,19,"f","Web from home",3,119,2,0,300,224,"h",0
3,19,"f","Web from home",3,120,2,1,300,359,"h",1
3,19,"f","Web from home",3,121,2,0,360,308,"d",1
3,19,"f","Web from home",3,122,2,1,360,324,"h",1
3,19,"f","Web from home",3,123,2,0,360,133,"d",1
3,19,"f","Web from home",3,124,2,1,360,223,"h",1
3,19,"f","Web from home",3,125,2,0,360,328,"d",1
3,19,"f","Web from home",3,126,2,1,360,191,"h",1
3,19,"f","Web from home",3,127,2,0,360,288,"d",1
3,19,"f","Web from home",3,128,2,1,360,296,"h",1
3,19,"f","Web from home",3,129,2,1,360,272,"h",1
3,19,"f","Web from home",3,130,2,0,360,288,"d",1
3,19,"f","Web from home",3,131,2,0,360,345,"d",1
3,19,"f","Web from home",3,132,2,1,360,231,"h",1
3,19,"f","Web from home",3,133,2,0,360,227,"d",1
3,19,"f","Web from home",3,134,2,1,360,269,"h",1
3,19,"f","Web from home",3,135,2,1,360,288,"d",0
3,19,"f","Web from home",3,136,2,0,360,303,"d",1
3,19,"f","Web from home",3,137,2,1,360,216,"h",1
3,19,"f","Web from home",3,138,2,0,360,353,"d",1
3,19,"f","Web from home",3,139,2,1,360,337,"h",1
3,19,"f","Web from home",3,140,2,0,360,136,"d",1
3,19,"f","Web from home",3,141,2,0,360,216,"h",0
3,19,"f","Web from home",3,142,2,1,360,262,"d",0
3,19,"f","Web from home",3,143,2,1,360,350,"h",1
3,19,"f","Web from home",3,144,2,0,360,231,"d",1
3,19,"f","Keyboard",1,1,2,1,60,15074,"h",1
3,19,"f","Keyboard",1,2,2,0,60,1050,"d",1
3,19,"f","Keyboard",1,3,2,1,60,1320,"h",1
3,19,"f","Keyboard",1,4,2,0,60,757,"d",1
3,19,"f","Keyboard",1,5,2,1,60,552,"h",1
3,19,"f","Keyboard",1,6,2,0,60,603,"d",1
3,19,"f","Keyboard",1,7,2,0,60,849,"d",1
3,19,"f","Keyboard",1,8,2,1,60,496,"h",1
3,19,"f","Keyboard",1,9,2,1,60,665,"h",1
3,19,"f","Keyboard",1,10,2,0,60,499,"d",1
3,19,"f","Keyboard",1,11,2,1,60,441,"h",1
3,19,"f","Keyboard",1,12,2,0,60,481,"d",1
3,19,"f","Keyboard",1,13,2,0,60,433,"d",1
3,19,"f","Keyboard",1,14,2,1,60,461,"h",1
3,19,"f","Keyboard",1,15,2,1,60,429,"h",1
3,19,"f","Keyboard",1,16,2,0,60,468,"d",1
3,19,"f","Keyboard",1,17,2,1,60,394,"h",1
3,19,"f","Keyboard",1,18,2,0,60,354,"d",1
3,19,"f","Keyboard",1,19,2,0,60,365,"d",1
3,19,"f","Keyboard",1,20,2,1,60,449,"h",1
3,19,"f","Keyboard",1,21,2,1,60,502,"h",1
3,19,"f","Keyboard",1,22,2,0,60,290,"d",1
3,19,"f","Keyboard",1,23,2,0,60,321,"d",1
3,19,"f","Keyboard",1,24,2,1,60,326,"h",1
3,19,"f","Keyboard",1,25,2,0,360,689,"d",1
3,19,"f","Keyboard",1,26,2,1,360,403,"h",1
3,19,"f","Keyboard",1,27,2,1,360,341,"h",1
3,19,"f","Keyboard",1,28,2,0,360,286,"d",1
3,19,"f","Keyboard",1,29,2,0,360,305,"d",1
3,19,"f","Keyboard",1,30,2,1,360,298,"h",1
3,19,"f","Keyboard",1,31,2,0,360,283,"d",1
3,19,"f","Keyboard",1,32,2,1,360,248,"h",1
3,19,"f","Keyboard",1,33,2,1,360,336,"h",1
3,19,"f","Keyboard",1,34,2,0,360,291,"d",1
3,19,"f","Keyboard",1,35,2,1,360,275,"h",1
3,19,"f","Keyboard",1,36,2,0,360,287,"d",1
3,19,"f","Keyboard",1,37,2,0,360,329,"d",1
3,19,"f","Keyboard",1,38,2,1,360,323,"h",1
3,19,"f","Keyboard",1,39,2,0,360,264,"d",1
3,19,"f","Keyboard",1,40,2,1,360,209,"h",1
3,19,"f","Keyboard",1,41,2,1,360,259,"h",1
3,19,"f","Keyboard",1,42,2,0,360,270,"d",1
3,19,"f","Keyboard",1,43,2,0,360,230,"d",1
3,19,"f","Keyboard",1,44,2,1,360,270,"h",1
3,19,"f","Keyboard",1,45,2,1,360,419,"h",1
3,19,"f","Keyboard",1,46,2,0,360,247,"d",1
3,19,"f","Keyboard",1,47,2,0,360,346,"d",1
3,19,"f","Keyboard",1,48,2,1,360,216,"h",1
3,19,"f","Keyboard",1,49,2,0,120,372,"d",1
3,19,"f","Keyboard",1,50,2,1,120,258,"d",0
3,19,"f","Keyboard",1,51,2,1,120,358,"h",1
3,19,"f","Keyboard",1,52,2,0,120,341,"d",1
3,19,"f","Keyboard",1,53,2,0,120,325,"d",1
3,19,"f","Keyboard",1,54,2,1,120,337,"h",1
3,19,"f","Keyboard",1,55,2,0,120,286,"d",1
3,19,"f","Keyboard",1,56,2,1,120,280,"h",1
3,19,"f","Keyboard",1,57,2,1,120,245,"d",0
3,19,"f","Keyboard",1,58,2,0,120,67,"h",0
3,19,"f","Keyboard",1,59,2,0,120,381,"d",1
3,19,"f","Keyboard",1,60,2,1,120,325,"h",1
3,19,"f","Keyboard",1,61,2,0,120,312,"d",1
3,19,"f","Keyboard",1,62,2,1,120,255,"h",1
3,19,"f","Keyboard",1,63,2,0,120,539,"d",1
3,19,"f","Keyboard",1,64,2,1,120,270,"h",1
3,19,"f","Keyboard",1,65,2,0,120,284,"d",1
3,19,"f","Keyboard",1,66,2,1,120,253,"h",1
3,19,"f","Keyboard",1,67,2,1,120,309,"d",0
3,19,"f","Keyboard",1,68,2,0,120,529,"d",1
3,19,"f","Keyboard",1,69,2,1,120,310,"h",1
3,19,"f","Keyboard",1,70,2,0,120,363,"d",1
3,19,"f","Keyboard",1,71,2,0,120,616,"d",1
3,19,"f","Keyboard",1,72,2,1,120,281,"h",1
3,19,"f","Keyboard",1,73,2,0,240,532,"d",1
3,19,"f","Keyboard",1,74,2,1,240,311,"h",1
3,19,"f","Keyboard",1,75,2,1,240,210,"d",0
3,19,"f","Keyboard",1,76,2,0,240,354,"d",1
3,19,"f","Keyboard",1,77,2,1,240,664,"h",1
3,19,"f","Keyboard",1,78,2,0,240,371,"d",1
3,19,"f","Keyboard",1,79,2,0,240,427,"d",1
3,19,"f","Keyboard",1,80,2,1,240,340,"h",1
3,19,"f","Keyboard",1,81,2,1,240,350,"h",1
3,19,"f","Keyboard",1,82,2,0,240,334,"d",1
3,19,"f","Keyboard",1,83,2,0,240,372,"d",1
3,19,"f","Keyboard",1,84,2,1,240,345,"h",1
3,19,"f","Keyboard",1,85,2,1,240,358,"h",1
3,19,"f","Keyboard",1,86,2,0,240,254,"d",1
3,19,"f","Keyboard",1,87,2,1,240,319,"h",1
3,19,"f","Keyboard",1,88,2,0,240,272,"d",1
3,19,"f","Keyboard",1,89,2,1,240,266,"h",1
3,19,"f","Keyboard",1,90,2,0,240,262,"d",1
3,19,"f","Keyboard",1,91,2,0,240,414,"d",1
3,19,"f","Keyboard",1,92,2,1,240,303,"h",1
3,19,"f","Keyboard",1,93,2,1,240,381,"h",1
3,19,"f","Keyboard",1,94,2,0,240,332,"d",1
3,19,"f","Keyboard",1,95,2,1,240,319,"h",1
3,19,"f","Keyboard",1,96,2,0,240,362,"d",1
3,19,"f","Keyboard",1,97,2,0,180,1141,"d",1
3,19,"f","Keyboard",1,98,2,1,180,700,"h",1
3,19,"f","Keyboard",1,99,2,0,180,332,"d",1
3,19,"f","Keyboard",1,100,2,1,180,204,"h",1
3,19,"f","Keyboard",1,101,2,0,180,203,"d",1
3,19,"f","Keyboard",1,102,2,1,180,230,"h",1
3,19,"f","Keyboard",1,103,2,0,180,346,"d",1
3,19,"f","Keyboard",1,104,2,1,180,291,"h",1
3,19,"f","Keyboard",1,105,2,0,180,300,"d",1
3,19,"f","Keyboard",1,106,2,1,180,274,"h",1
3,19,"f","Keyboard",1,107,2,1,180,332,"h",1
3,19,"f","Keyboard",1,108,2,0,180,305,"d",1
3,19,"f","Keyboard",1,109,2,0,180,575,"d",1
3,19,"f","Keyboard",1,110,2,1,180,266,"h",1
3,19,"f","Keyboard",1,111,2,1,180,287,"h",1
3,19,"f","Keyboard",1,112,2,0,180,293,"d",1
3,19,"f","Keyboard",1,113,2,0,180,385,"d",1
3,19,"f","Keyboard",1,114,2,1,180,283,"h",1
3,19,"f","Keyboard",1,115,2,0,180,273,"d",1
3,19,"f","Keyboard",1,116,2,1,180,256,"h",1
3,19,"f","Keyboard",1,117,2,1,180,367,"h",1
3,19,"f","Keyboard",1,118,2,0,180,548,"d",1
3,19,"f","Keyboard",1,119,2,1,180,235,"h",1
3,19,"f","Keyboard",1,120,2,0,180,211,"d",1
3,19,"f","Keyboard",1,121,2,1,300,313,"h",1
3,19,"f","Keyboard",1,122,2,0,300,356,"d",1
3,19,"f","Keyboard",1,123,2,1,300,202,"h",1
3,19,"f","Keyboard",1,124,2,0,300,239,"d",1
3,19,"f","Keyboard",1,125,2,1,300,198,"h",1
3,19,"f","Keyboard",1,126,2,0,300,189,"d",1
3,19,"f","Keyboard",1,127,2,0,300,252,"h",0
3,19,"f","Keyboard",1,128,2,1,300,611,"h",1
3,19,"f","Keyboard",1,129,2,1,300,329,"h",1
3,19,"f","Keyboard",1,130,2,0,300,359,"d",1
3,19,"f","Keyboard",1,131,2,0,300,342,"d",1
3,19,"f","Keyboard",1,132,2,1,300,344,"h",1
3,19,"f","Keyboard",1,133,2,1,300,282,"h",1
3,19,"f","Keyboard",1,134,2,0,300,309,"d",1
3,19,"f","Keyboard",1,135,2,0,300,330,"d",1
3,19,"f","Keyboard",1,136,2,1,300,346,"h",1
3,19,"f","Keyboard",1,137,2,1,300,366,"h",1
3,19,"f","Keyboard",1,138,2,0,300,320,"d",1
3,19,"f","Keyboard",1,139,2,1,300,307,"h",1
3,19,"f","Keyboard",1,140,2,0,300,257,"d",1
3,19,"f","Keyboard",1,141,2,1,300,300,"h",1
3,19,"f","Keyboard",1,142,2,0,300,281,"d",1
3,19,"f","Keyboard",1,143,2,1,300,257,"h",1
3,19,"f","Keyboard",1,144,2,0,300,257,"d",1
3,19,"f","Web from lab",4,1,2,1,180,354,"h",1
3,19,"f","Web from lab",4,2,2,0,180,318,"d",1
3,19,"f","Web from lab",4,3,2,0,180,199,"h",0
3,19,"f","Web from lab",4,4,2,1,180,292,"h",1
3,19,"f","Web from lab",4,5,2,1,180,363,"h",1
3,19,"f","Web from lab",4,6,2,0,180,276,"d",1
3,19,"f","Web from lab",4,7,2,0,180,323,"d",1
3,19,"f","Web from lab",4,8,2,1,180,305,"h",1
3,19,"f","Web from lab",4,9,2,0,180,344,"d",1
3,19,"f","Web from lab",4,10,2,1,180,265,"h",1
3,19,"f","Web from lab",4,11,2,1,180,332,"h",1
3,19,"f","Web from lab",4,12,2,0,180,280,"d",1
3,19,"f","Web from lab",4,13,2,1,180,292,"h",1
3,19,"f","Web from lab",4,14,2,0,180,363,"d",1
3,19,"f","Web from lab",4,15,2,0,180,253,"h",0
3,19,"f","Web from lab",4,16,2,1,180,274,"h",1
3,19,"f","Web from lab",4,17,2,1,180,228,"d",0
3,19,"f","Web from lab",4,18,2,0,180,371,"d",1
3,19,"f","Web from lab",4,19,2,0,180,354,"d",1
3,19,"f","Web from lab",4,20,2,1,180,274,"h",1
3,19,"f","Web from lab",4,21,2,0,180,313,"d",1
3,19,"f","Web from lab",4,22,2,1,180,267,"h",1
3,19,"f","Web from lab",4,23,2,1,180,388,"d",0
3,19,"f","Web from lab",4,24,2,0,180,381,"d",1
3,19,"f","Web from lab",4,25,2,1,300,305,"h",1
3,19,"f","Web from lab",4,26,2,0,300,287,"d",1
3,19,"f","Web from lab",4,27,2,0,300,268,"d",1
3,19,"f","Web from lab",4,28,2,1,300,320,"h",1
3,19,"f","Web from lab",4,29,2,0,300,367,"d",1
3,19,"f","Web from lab",4,30,2,1,300,203,"h",1
3,19,"f","Web from lab",4,31,2,1,300,456,"h",1
3,19,"f","Web from lab",4,32,2,0,300,269,"d",1
3,19,"f","Web from lab",4,33,2,0,300,261,"h",0
3,19,"f","Web from lab",4,34,2,1,300,335,"h",1
3,19,"f","Web from lab",4,35,2,1,300,342,"h",1
3,19,"f","Web from lab",4,36,2,0,300,274,"d",1
3,19,"f","Web from lab",4,37,2,0,300,349,"d",1
3,19,"f","Web from lab",4,38,2,1,300,334,"h",1
3,19,"f","Web from lab",4,39,2,1,300,313,"h",1
3,19,"f","Web from lab",4,40,2,0,300,338,"d",1
3,19,"f","Web from lab",4,41,2,1,300,289,"h",1
3,19,"f","Web from lab",4,42,2,0,300,265,"d",1
3,19,"f","Web from lab",4,43,2,1,300,307,"h",1
3,19,"f","Web from lab",4,44,2,0,300,220,"d",1
3,19,"f","Web from lab",4,45,2,0,300,485,"d",1
3,19,"f","Web from lab",4,46,2,1,300,261,"h",1
3,19,"f","Web from lab",4,47,2,0,300,391,"d",1
3,19,"f","Web from lab",4,48,2,1,300,273,"h",1
3,19,"f","Web from lab",4,49,2,1,120,696,"h",1
3,19,"f","Web from lab",4,50,2,0,120,233,"d",1
3,19,"f","Web from lab",4,51,2,0,120,367,"d",1
3,19,"f","Web from lab",4,52,2,1,120,277,"h",1
3,19,"f","Web from lab",4,53,2,1,120,215,"d",0
3,19,"f","Web from lab",4,54,2,0,120,255,"d",1
3,19,"f","Web from lab",4,55,2,0,120,338,"d",1
3,19,"f","Web from lab",4,56,2,1,120,220,"h",1
3,19,"f","Web from lab",4,57,2,1,120,280,"h",1
3,19,"f","Web from lab",4,58,2,0,120,262,"d",1
3,19,"f","Web from lab",4,59,2,1,120,291,"h",1
3,19,"f","Web from lab",4,60,2,0,120,281,"d",1
3,19,"f","Web from lab",4,61,2,0,120,434,"d",1
3,19,"f","Web from lab",4,62,2,1,120,226,"h",1
3,19,"f","Web from lab",4,63,2,1,120,246,"d",0
3,19,"f","Web from lab",4,64,2,0,120,281,"d",1
3,19,"f","Web from lab",4,65,2,0,120,355,"d",1
3,19,"f","Web from lab",4,66,2,1,120,207,"h",1
3,19,"f","Web from lab",4,67,2,1,120,315,"h",1
3,19,"f","Web from lab",4,68,2,0,120,226,"d",1
3,19,"f","Web from lab",4,69,2,0,120,287,"d",1
3,19,"f","Web from lab",4,70,2,1,120,258,"h",1
3,19,"f","Web from lab",4,71,2,0,120,248,"h",0
3,19,"f","Web from lab",4,72,2,1,120,385,"h",1
3,19,"f","Web from lab",4,73,2,1,360,365,"h",1
3,19,"f","Web from lab",4,74,2,0,360,372,"d",1
3,19,"f","Web from lab",4,75,2,0,360,232,"d",1
3,19,"f","Web from lab",4,76,2,1,360,256,"h",1
3,19,"f","Web from lab",4,77,2,1,360,247,"h",1
3,19,"f","Web from lab",4,78,2,0,360,231,"d",1
3,19,"f","Web from lab",4,79,2,1,360,396,"h",1
3,19,"f","Web from lab",4,80,2,0,360,332,"d",1
3,19,"f","Web from lab",4,81,2,0,360,348,"d",1
3,19,"f","Web from lab",4,82,2,1,360,273,"h",1
3,19,"f","Web from lab",4,83,2,0,360,277,"d",1
3,19,"f","Web from lab",4,84,2,1,360,317,"h",1
3,19,"f","Web from lab",4,85,2,1,360,387,"h",1
3,19,"f","Web from lab",4,86,2,0,360,244,"d",1
3,19,"f","Web from lab",4,87,2,0,360,472,"d",1
3,19,"f","Web from lab",4,88,2,1,360,255,"h",1
3,19,"f","Web from lab",4,89,2,1,360,381,"h",1
3,19,"f","Web from lab",4,90,2,0,360,301,"d",1
3,19,"f","Web from lab",4,91,2,0,360,331,"d",1
3,19,"f","Web from lab",4,92,2,1,360,277,"h",1
3,19,"f","Web from lab",4,93,2,1,360,290,"h",1
3,19,"f","Web from lab",4,94,2,0,360,319,"d",1
3,19,"f","Web from lab",4,95,2,0,360,245,"d",1
3,19,"f","Web from lab",4,96,2,1,360,261,"h",1
3,19,"f","Web from lab",4,97,2,0,240,378,"d",1
3,19,"f","Web from lab",4,98,2,1,240,411,"h",1
3,19,"f","Web from lab",4,99,2,1,240,269,"h",1
3,19,"f","Web from lab",4,100,2,0,240,323,"d",1
3,19,"f","Web from lab",4,101,2,1,240,358,"h",1
3,19,"f","Web from lab",4,102,2,0,240,298,"d",1
3,19,"f","Web from lab",4,103,2,1,240,252,"h",1
3,19,"f","Web from lab",4,104,2,0,240,230,"d",1
3,19,"f","Web from lab",4,105,2,1,240,241,"h",1
3,19,"f","Web from lab",4,106,2,0,240,305,"d",1
3,19,"f","Web from lab",4,107,2,0,240,346,"d",1
3,19,"f","Web from lab",4,108,2,1,240,230,"h",1
3,19,"f","Web from lab",4,109,2,1,240,266,"h",1
3,19,"f","Web from lab",4,110,2,0,240,268,"d",1
3,19,"f","Web from lab",4,111,2,0,240,230,"d",1
3,19,"f","Web from lab",4,112,2,1,240,262,"h",1
3,19,"f","Web from lab",4,113,2,0,240,413,"d",1
3,19,"f","Web from lab",4,114,2,1,240,244,"h",1
3,19,"f","Web from lab",4,115,2,0,240,331,"d",1
3,19,"f","Web from lab",4,116,2,1,240,225,"h",1
3,19,"f","Web from lab",4,117,2,0,240,229,"d",1
3,19,"f","Web from lab",4,118,2,1,240,309,"h",1
3,19,"f","Web from lab",4,119,2,0,240,366,"d",1
3,19,"f","Web from lab",4,120,2,1,240,363,"h",1
3,19,"f","Web from lab",4,121,2,0,60,408,"d",1
3,19,"f","Web from lab",4,122,2,1,60,244,"h",1
3,19,"f","Web from lab",4,123,2,1,60,488,"h",1
3,19,"f","Web from lab",4,124,2,0,60,303,"d",1
3,19,"f","Web from lab",4,125,2,0,60,245,"h",0
3,19,"f","Web from lab",4,126,2,1,60,335,"h",1
3,19,"f","Web from lab",4,127,2,1,60,229,"d",0
3,19,"f","Web from lab",4,128,2,0,60,358,"d",1
3,19,"f","Web from lab",4,129,2,0,60,316,"d",1
3,19,"f","Web from lab",4,130,2,1,60,220,"h",1
3,19,"f","Web from lab",4,131,2,0,60,198,"h",0
3,19,"f","Web from lab",4,132,2,1,60,297,"h",1
3,19,"f","Web from lab",4,133,2,0,60,391,"d",1
3,19,"f","Web from lab",4,134,2,1,60,364,"h",1
3,19,"f","Web from lab",4,135,2,1,60,316,"h",1
3,19,"f","Web from lab",4,136,2,0,60,252,"d",1
3,19,"f","Web from lab",4,137,2,1,60,352,"h",1
3,19,"f","Web from lab",4,138,2,0,60,287,"d",1
3,19,"f","Web from lab",4,139,2,1,60,298,"h",1
3,19,"f","Web from lab",4,140,2,0,60,341,"d",1
3,19,"f","Web from lab",4,141,2,0,60,302,"d",1
3,19,"f","Web from lab",4,142,2,1,60,223,"h",1
3,19,"f","Web from lab",4,143,2,1,60,313,"h",1
3,19,"f","Web from lab",4,144,2,0,60,177,"d",1
4,22,"m","Response box",1,1,2,1,180,2720,"2",0
4,22,"m","Response box",1,2,2,0,180,5659,"2",1
4,22,"m","Response box",1,3,2,0,180,685,"2",1
4,22,"m","Response box",1,4,2,1,180,1134,"5",1
4,22,"m","Response box",1,5,2,1,180,625,"5",1
4,22,"m","Response box",1,6,2,0,180,838,"2",1
4,22,"m","Response box",1,7,2,1,180,429,"5",1
4,22,"m","Response box",1,8,2,0,180,487,"2",1
4,22,"m","Response box",1,9,2,1,180,416,"5",1
4,22,"m","Response box",1,10,2,0,180,419,"2",1
4,22,"m","Response box",1,11,2,1,180,338,"5",1
4,22,"m","Response box",1,12,2,0,180,300,"2",1
4,22,"m","Response box",1,13,2,0,180,529,"2",1
4,22,"m","Response box",1,14,2,1,180,417,"5",1
4,22,"m","Response box",1,15,2,0,180,310,"2",1
4,22,"m","Response box",1,16,2,1,180,335,"5",1
4,22,"m","Response box",1,17,2,1,180,347,"5",1
4,22,"m","Response box",1,18,2,0,180,358,"2",1
4,22,"m","Response box",1,19,2,0,180,383,"2",1
4,22,"m","Response box",1,20,2,1,180,305,"5",1
4,22,"m","Response box",1,21,2,1,180,322,"5",1
4,22,"m","Response box",1,22,2,0,180,319,"2",1
4,22,"m","Response box",1,23,2,0,180,312,"2",1
4,22,"m","Response box",1,24,2,1,180,286,"5",1
4,22,"m","Response box",1,25,2,1,360,696,"5",1
4,22,"m","Response box",1,26,2,0,360,461,"2",1
4,22,"m","Response box",1,27,2,1,360,447,"5",1
4,22,"m","Response box",1,28,2,0,360,457,"2",1
4,22,"m","Response box",1,29,2,0,360,557,"2",1
4,22,"m","Response box",1,30,2,1,360,366,"5",1
4,22,"m","Response box",1,31,2,1,360,452,"5",1
4,22,"m","Response box",1,32,2,0,360,369,"2",1
4,22,"m","Response box",1,33,2,0,360,339,"2",1
4,22,"m","Response box",1,34,2,1,360,331,"5",1
4,22,"m","Response box",1,35,2,0,360,318,"2",1
4,22,"m","Response box",1,36,2,1,360,357,"5",1
4,22,"m","Response box",1,37,2,1,360,478,"5",1
4,22,"m","Response box",1,38,2,0,360,400,"2",1
4,22,"m","Response box",1,39,2,1,360,334,"5",1
4,22,"m","Response box",1,40,2,0,360,285,"2",1
4,22,"m","Response box",1,41,2,1,360,303,"5",1
4,22,"m","Response box",1,42,2,0,360,265,"2",1
4,22,"m","Response box",1,43,2,0,360,370,"2",1
4,22,"m","Response box",1,44,2,1,360,388,"5",1
4,22,"m","Response box",1,45,2,1,360,356,"5",1
4,22,"m","Response box",1,46,2,0,360,308,"2",1
4,22,"m","Response box",1,47,2,0,360,355,"2",1
4,22,"m","Response box",1,48,2,1,360,323,"5",1
4,22,"m","Response box",1,49,2,1,120,361,"5",1
4,22,"m","Response box",1,50,2,0,120,311,"2",1
4,22,"m","Response box",1,51,2,0,120,309,"2",1
4,22,"m","Response box",1,52,2,1,120,271,"5",1
4,22,"m","Response box",1,53,2,1,120,282,"5",1
4,22,"m","Response box",1,54,2,0,120,247,"2",1
4,22,"m","Response box",1,55,2,0,120,271,"2",1
4,22,"m","Response box",1,56,2,1,120,215,"5",1
4,22,"m","Response box",1,57,2,0,120,379,"2",1
4,22,"m","Response box",1,58,2,1,120,313,"5",1
4,22,"m","Response box",1,59,2,0,120,273,"2",1
4,22,"m","Response box",1,60,2,1,120,304,"5",1
4,22,"m","Response box",1,61,2,1,120,324,"5",1
4,22,"m","Response box",1,62,2,0,120,274,"2",1
4,22,"m","Response box",1,63,2,1,120,302,"5",1
4,22,"m","Response box",1,64,2,0,120,293,"2",1
4,22,"m","Response box",1,65,2,0,120,288,"2",1
4,22,"m","Response box",1,66,2,1,120,317,"5",1
4,22,"m","Response box",1,67,2,0,120,270,"2",1
4,22,"m","Response box",1,68,2,1,120,263,"5",1
4,22,"m","Response box",1,69,2,0,120,263,"2",1
4,22,"m","Response box",1,70,2,1,120,273,"5",1
4,22,"m","Response box",1,71,2,1,120,319,"5",1
4,22,"m","Response box",1,72,2,0,120,284,"2",1
4,22,"m","Response box",1,73,2,1,60,334,"5",1
4,22,"m","Response box",1,74,2,0,60,231,"2",1
4,22,"m","Response box",1,75,2,0,60,325,"2",1
4,22,"m","Response box",1,76,2,1,60,280,"5",1
4,22,"m","Response box",1,77,2,1,60,252,"5",1
4,22,"m","Response box",1,78,2,0,60,421,"2",1
4,22,"m","Response box",1,79,2,1,60,281,"5",1
4,22,"m","Response box",1,80,2,0,60,295,"2",1
4,22,"m","Response box",1,81,2,0,60,285,"2",1
4,22,"m","Response box",1,82,2,1,60,311,"5",1
4,22,"m","Response box",1,83,2,0,60,265,"2",1
4,22,"m","Response box",1,84,2,1,60,319,"5",1
4,22,"m","Response box",1,85,2,1,60,285,"5",1
4,22,"m","Response box",1,86,2,0,60,264,"2",1
4,22,"m","Response box",1,87,2,0,60,294,"2",1
4,22,"m","Response box",1,88,2,1,60,328,"5",1
4,22,"m","Response box",1,89,2,1,60,389,"5",1
4,22,"m","Response box",1,90,2,0,60,279,"2",1
4,22,"m","Response box",1,91,2,0,60,372,"2",1
4,22,"m","Response box",1,92,2,1,60,338,"5",1
4,22,"m","Response box",1,93,2,1,60,591,"5",1
4,22,"m","Response box",1,94,2,0,60,380,"2",1
4,22,"m","Response box",1,95,2,0,60,318,"5",0
4,22,"m","Response box",1,96,2,1,60,569,"5",1
4,22,"m","Response box",1,97,2,1,240,303,"5",1
4,22,"m","Response box",1,98,2,0,240,273,"2",1
4,22,"m","Response box",1,99,2,0,240,257,"2",1
4,22,"m","Response box",1,100,2,1,240,319,"5",1
4,22,"m","Response box",1,101,2,1,240,284,"5",1
4,22,"m","Response box",1,102,2,0,240,237,"2",1
4,22,"m","Response box",1,103,2,0,240,323,"2",1
4,22,"m","Response box",1,104,2,1,240,232,"5",1
4,22,"m","Response box",1,105,2,0,240,175,"2",1
4,22,"m","Response box",1,106,2,1,240,191,"5",1
4,22,"m","Response box",1,107,2,0,240,222,"2",1
4,22,"m","Response box",1,108,2,1,240,183,"5",1
4,22,"m","Response box",1,109,2,0,240,195,"2",1
4,22,"m","Response box",1,110,2,1,240,188,"5",1
4,22,"m","Response box",1,111,2,1,240,209,"2",0
4,22,"m","Response box",1,112,2,0,240,374,"2",1
4,22,"m","Response box",1,113,2,1,240,116,"5",1
4,22,"m","Response box",1,114,2,0,240,166,"2",1
4,22,"m","Response box",1,115,2,1,240,190,"5",1
4,22,"m","Response box",1,116,2,0,240,179,"2",1
4,22,"m","Response box",1,117,2,1,240,155,"5",1
4,22,"m","Response box",1,118,2,0,240,130,"2",1
4,22,"m","Response box",1,119,2,1,240,121,"5",1
4,22,"m","Response box",1,120,2,0,240,230,"2",1
4,22,"m","Response box",1,121,2,0,300,344,"2",1
4,22,"m","Response box",1,122,2,1,300,171,"5",1
4,22,"m","Response box",1,123,2,1,300,161,"2",0
4,22,"m","Response box",1,124,2,0,300,416,"2",1
4,22,"m","Response box",1,125,2,0,300,366,"2",1
4,22,"m","Response box",1,126,2,1,300,290,"5",1
4,22,"m","Response box",1,127,2,1,300,289,"5",1
4,22,"m","Response box",1,128,2,0,300,298,"2",1
4,22,"m","Response box",1,129,2,1,300,244,"5",1
4,22,"m","Response box",1,130,2,0,300,276,"2",1
4,22,"m","Response box",1,131,2,0,300,329,"2",1
4,22,"m","Response box",1,132,2,1,300,259,"5",1
4,22,"m","Response box",1,133,2,1,300,270,"5",1
4,22,"m","Response box",1,134,2,0,300,354,"2",1
4,22,"m","Response box",1,135,2,1,300,244,"5",1
4,22,"m","Response box",1,136,2,0,300,212,"2",1
4,22,"m","Response box",1,137,2,1,300,288,"5",1
4,22,"m","Response box",1,138,2,0,300,229,"2",1
4,22,"m","Response box",1,139,2,1,300,263,"5",1
4,22,"m","Response box",1,140,2,0,300,271,"2",1
4,22,"m","Response box",1,141,2,0,300,346,"2",1
4,22,"m","Response box",1,142,2,1,300,290,"5",1
4,22,"m","Response box",1,143,2,0,300,227,"2",1
4,22,"m","Response box",1,144,2,1,300,273,"5",1
4,22,"m","Web from home",4,1,2,0,360,687,"d",1
4,22,"m","Web from home",4,2,2,1,360,429,"h",1
4,22,"m","Web from home",4,3,2,1,360,312,"d",0
4,22,"m","Web from home",4,4,2,0,360,389,"d",1
4,22,"m","Web from home",4,5,2,1,360,362,"h",1
4,22,"m","Web from home",4,6,2,0,360,348,"d",1
4,22,"m","Web from home",4,7,2,1,360,346,"h",1
4,22,"m","Web from home",4,8,2,0,360,310,"d",1
4,22,"m","Web from home",4,9,2,0,360,396,"d",1
4,22,"m","Web from home",4,10,2,1,360,307,"h",1
4,22,"m","Web from home",4,11,2,0,360,312,"d",1
4,22,"m","Web from home",4,12,2,1,360,324,"h",1
4,22,"m","Web from home",4,13,2,0,360,295,"d",1
4,22,"m","Web from home",4,14,2,1,360,270,"h",1
4,22,"m","Web from home",4,15,2,0,360,302,"d",1
4,22,"m","Web from home",4,16,2,1,360,297,"h",1
4,22,"m","Web from home",4,17,2,0,360,282,"d",1
4,22,"m","Web from home",4,18,2,1,360,332,"h",1
4,22,"m","Web from home",4,19,2,0,360,268,"d",1
4,22,"m","Web from home",4,20,2,1,360,297,"h",1
4,22,"m","Web from home",4,21,2,1,360,279,"d",0
4,22,"m","Web from home",4,22,2,0,360,312,"d",1
4,22,"m","Web from home",4,23,2,0,360,372,"d",1
4,22,"m","Web from home",4,24,2,1,360,293,"h",1
4,22,"m","Web from home",4,25,2,0,60,557,"d",1
4,22,"m","Web from home",4,26,2,1,60,336,"h",1
4,22,"m","Web from home",4,27,2,1,60,411,"h",1
4,22,"m","Web from home",4,28,2,0,60,283,"d",1
4,22,"m","Web from home",4,29,2,1,60,326,"h",1
4,22,"m","Web from home",4,30,2,0,60,304,"d",1
4,22,"m","Web from home",4,31,2,1,60,326,"h",1
4,22,"m","Web from home",4,32,2,0,60,316,"d",1
4,22,"m","Web from home",4,33,2,1,60,287,"h",1
4,22,"m","Web from home",4,34,2,0,60,256,"d",1
4,22,"m","Web from home",4,35,2,1,60,252,"h",1
4,22,"m","Web from home",4,36,2,0,60,332,"d",1
4,22,"m","Web from home",4,37,2,0,60,363,"d",1
4,22,"m","Web from home",4,38,2,1,60,264,"h",1
4,22,"m","Web from home",4,39,2,1,60,315,"h",1
4,22,"m","Web from home",4,40,2,0,60,223,"d",1
4,22,"m","Web from home",4,41,2,0,60,347,"d",1
4,22,"m","Web from home",4,42,2,1,60,280,"h",1
4,22,"m","Web from home",4,43,2,0,60,327,"d",1
4,22,"m","Web from home",4,44,2,1,60,265,"h",1
4,22,"m","Web from home",4,45,2,1,60,338,"h",1
4,22,"m","Web from home",4,46,2,0,60,297,"d",1
4,22,"m","Web from home",4,47,2,0,60,363,"d",1
4,22,"m","Web from home",4,48,2,1,60,286,"h",1
4,22,"m","Web from home",4,49,2,0,180,570,"d",1
4,22,"m","Web from home",4,50,2,1,180,436,"h",1
4,22,"m","Web from home",4,51,2,0,180,313,"d",1
4,22,"m","Web from home",4,52,2,1,180,278,"h",1
4,22,"m","Web from home",4,53,2,0,180,310,"d",1
4,22,"m","Web from home",4,54,2,1,180,296,"h",1
4,22,"m","Web from home",4,55,2,1,180,506,"d",0
4,22,"m","Web from home",4,56,2,0,180,319,"d",1
4,22,"m","Web from home",4,57,2,0,180,294,"d",1
4,22,"m","Web from home",4,58,2,1,180,339,"h",1
4,22,"m","Web from home",4,59,2,1,180,272,"d",0
4,22,"m","Web from home",4,60,2,0,180,344,"d",1
4,22,"m","Web from home",4,61,2,0,180,362,"d",1
4,22,"m","Web from home",4,62,2,1,180,318,"h",1
4,22,"m","Web from home",4,63,2,1,180,283,"h",1
4,22,"m","Web from home",4,64,2,0,180,340,"d",1
4,22,"m","Web from home",4,65,2,0,180,327,"d",1
4,22,"m","Web from home",4,66,2,1,180,314,"h",1
4,22,"m","Web from home",4,67,2,0,180,314,"d",1
4,22,"m","Web from home",4,68,2,1,180,303,"h",1
4,22,"m","Web from home",4,69,2,1,180,316,"h",1
4,22,"m","Web from home",4,70,2,0,180,295,"d",1
4,22,"m","Web from home",4,71,2,0,180,346,"d",1
4,22,"m","Web from home",4,72,2,1,180,257,"h",1
4,22,"m","Web from home",4,73,2,1,240,558,"h",1
4,22,"m","Web from home",4,74,2,0,240,312,"d",1
4,22,"m","Web from home",4,75,2,0,240,314,"d",1
4,22,"m","Web from home",4,76,2,1,240,292,"h",1
4,22,"m","Web from home",4,77,2,1,240,318,"h",1
4,22,"m","Web from home",4,78,2,0,240,260,"d",1
4,22,"m","Web from home",4,79,2,0,240,377,"d",1
4,22,"m","Web from home",4,80,2,1,240,281,"h",1
4,22,"m","Web from home",4,81,2,0,240,278,"d",1
4,22,"m","Web from home",4,82,2,1,240,291,"h",1
4,22,"m","Web from home",4,83,2,0,240,298,"d",1
4,22,"m","Web from home",4,84,2,1,240,275,"h",1
4,22,"m","Web from home",4,85,2,1,240,352,"h",1
4,22,"m","Web from home",4,86,2,0,240,329,"d",1
4,22,"m","Web from home",4,87,2,1,240,299,"h",1
4,22,"m","Web from home",4,88,2,0,240,304,"d",1
4,22,"m","Web from home",4,89,2,0,240,291,"h",0
4,22,"m","Web from home",4,90,2,1,240,326,"h",1
4,22,"m","Web from home",4,91,2,1,240,347,"h",1
4,22,"m","Web from home",4,92,2,0,240,298,"d",1
4,22,"m","Web from home",4,93,2,0,240,434,"d",1
4,22,"m","Web from home",4,94,2,1,240,305,"h",1
4,22,"m","Web from home",4,95,2,1,240,345,"h",1
4,22,"m","Web from home",4,96,2,0,240,284,"d",1
4,22,"m","Web from home",4,97,2,0,300,670,"d",1
4,22,"m","Web from home",4,98,2,1,300,313,"d",0
4,22,"m","Web from home",4,99,2,1,300,405,"h",1
4,22,"m","Web from home",4,100,2,0,300,304,"d",1
4,22,"m","Web from home",4,101,2,0,300,361,"d",1
4,22,"m","Web from home",4,102,2,1,300,306,"h",1
4,22,"m","Web from home",4,103,2,0,300,311,"d",1
4,22,"m","Web from home",4,104,2,1,300,291,"h",1
4,22,"m","Web from home",4,105,2,0,300,299,"d",1
4,22,"m","Web from home",4,106,2,1,300,295,"h",1
4,22,"m","Web from home",4,107,2,1,300,363,"h",1
4,22,"m","Web from home",4,108,2,0,300,240,"d",1
4,22,"m","Web from home",4,109,2,0,300,299,"h",0
4,22,"m","Web from home",4,110,2,1,300,409,"h",1
4,22,"m","Web from home",4,111,2,1,300,327,"h",1
4,22,"m","Web from home",4,112,2,0,300,300,"d",1
4,22,"m","Web from home",4,113,2,1,300,385,"h",1
4,22,"m","Web from home",4,114,2,0,300,287,"d",1
4,22,"m","Web from home",4,115,2,1,300,283,"h",1
4,22,"m","Web from home",4,116,2,0,300,317,"d",1
4,22,"m","Web from home",4,117,2,0,300,348,"d",1
4,22,"m","Web from home",4,118,2,1,300,289,"h",1
4,22,"m","Web from home",4,119,2,1,300,343,"h",1
4,22,"m","Web from home",4,120,2,0,300,272,"d",1
4,22,"m","Web from home",4,121,2,1,120,782,"h",1
4,22,"m","Web from home",4,122,2,0,120,342,"d",1
4,22,"m","Web from home",4,123,2,1,120,313,"h",1
4,22,"m","Web from home",4,124,2,0,120,296,"d",1
4,22,"m","Web from home",4,125,2,0,120,388,"d",1
4,22,"m","Web from home",4,126,2,1,120,316,"h",1
4,22,"m","Web from home",4,127,2,0,120,317,"d",1
4,22,"m","Web from home",4,128,2,1,120,276,"h",1
4,22,"m","Web from home",4,129,2,1,120,330,"h",1
4,22,"m","Web from home",4,130,2,0,120,372,"d",1
4,22,"m","Web from home",4,131,2,1,120,302,"h",1
4,22,"m","Web from home",4,132,2,0,120,304,"d",1
4,22,"m","Web from home",4,133,2,1,120,272,"h",1
4,22,"m","Web from home",4,134,2,0,120,303,"d",1
4,22,"m","Web from home",4,135,2,1,120,335,"h",1
4,22,"m","Web from home",4,136,2,0,120,263,"d",1
4,22,"m","Web from home",4,137,2,1,120,374,"h",1
4,22,"m","Web from home",4,138,2,0,120,266,"d",1
4,22,"m","Web from home",4,139,2,0,120,295,"h",0
4,22,"m","Web from home",4,140,2,1,120,341,"h",1
4,22,"m","Web from home",4,141,2,1,120,252,"d",0
4,22,"m","Web from home",4,142,2,0,120,358,"d",1
4,22,"m","Web from home",4,143,2,0,120,312,"d",1
4,22,"m","Web from home",4,144,2,1,120,339,"h",1
4,22,"m","Keyboard",3,1,2,1,120,656,"h",1
4,22,"m","Keyboard",3,2,2,0,120,677,"d",1
4,22,"m","Keyboard",3,3,2,0,120,377,"d",1
4,22,"m","Keyboard",3,4,2,1,120,289,"h",1
4,22,"m","Keyboard",3,5,2,0,120,350,"d",1
4,22,"m","Keyboard",3,6,2,1,120,318,"h",1
4,22,"m","Keyboard",3,7,2,1,120,315,"h",1
4,22,"m","Keyboard",3,8,2,0,120,309,"d",1
4,22,"m","Keyboard",3,9,2,1,120,255,"h",1
4,22,"m","Keyboard",3,10,2,0,120,263,"d",1
4,22,"m","Keyboard",3,11,2,1,120,307,"h",1
4,22,"m","Keyboard",3,12,2,0,120,282,"d",1
4,22,"m","Keyboard",3,13,2,1,120,230,"h",1
4,22,"m","Keyboard",3,14,2,0,120,253,"d",1
4,22,"m","Keyboard",3,15,2,1,120,259,"h",1
4,22,"m","Keyboard",3,16,2,0,120,277,"d",1
4,22,"m","Keyboard",3,17,2,1,120,315,"h",1
4,22,"m","Keyboard",3,18,2,0,120,233,"d",1
4,22,"m","Keyboard",3,19,2,0,120,310,"d",1
4,22,"m","Keyboard",3,20,2,1,120,257,"h",1
4,22,"m","Keyboard",3,21,2,0,120,239,"d",1
4,22,"m","Keyboard",3,22,2,1,120,235,"h",1
4,22,"m","Keyboard",3,23,2,1,120,200,"d",0
4,22,"m","Keyboard",3,24,2,0,120,352,"d",1
4,22,"m","Keyboard",3,25,2,1,300,482,"h",1
4,22,"m","Keyboard",3,26,2,0,300,299,"d",1
4,22,"m","Keyboard",3,27,2,0,300,323,"d",1
4,22,"m","Keyboard",3,28,2,1,300,282,"h",1
4,22,"m","Keyboard",3,29,2,0,300,273,"d",1
4,22,"m","Keyboard",3,30,2,1,300,358,"h",1
4,22,"m","Keyboard",3,31,2,0,300,244,"d",1
4,22,"m","Keyboard",3,32,2,1,300,279,"h",1
4,22,"m","Keyboard",3,33,2,1,300,378,"h",1
4,22,"m","Keyboard",3,34,2,0,300,284,"d",1
4,22,"m","Keyboard",3,35,2,1,300,203,"h",1
4,22,"m","Keyboard",3,36,2,0,300,266,"d",1
4,22,"m","Keyboard",3,37,2,0,300,349,"d",1
4,22,"m","Keyboard",3,38,2,1,300,270,"h",1
4,22,"m","Keyboard",3,39,2,0,300,276,"d",1
4,22,"m","Keyboard",3,40,2,1,300,245,"h",1
4,22,"m","Keyboard",3,41,2,1,300,345,"h",1
4,22,"m","Keyboard",3,42,2,0,300,277,"d",1
4,22,"m","Keyboard",3,43,2,1,300,236,"h",1
4,22,"m","Keyboard",3,44,2,0,300,273,"d",1
4,22,"m","Keyboard",3,45,2,1,300,278,"h",1
4,22,"m","Keyboard",3,46,2,0,300,299,"d",1
4,22,"m","Keyboard",3,47,2,1,300,298,"h",1
4,22,"m","Keyboard",3,48,2,0,300,277,"d",1
4,22,"m","Keyboard",3,49,2,1,180,414,"h",1
4,22,"m","Keyboard",3,50,2,0,180,290,"d",1
4,22,"m","Keyboard",3,51,2,1,180,243,"h",1
4,22,"m","Keyboard",3,52,2,0,180,246,"d",1
4,22,"m","Keyboard",3,53,2,1,180,281,"h",1
4,22,"m","Keyboard",3,54,2,0,180,211,"d",1
4,22,"m","Keyboard",3,55,2,0,180,280,"h",0
4,22,"m","Keyboard",3,56,2,1,180,363,"h",1
4,22,"m","Keyboard",3,57,2,1,180,275,"d",0
4,22,"m","Keyboard",3,58,2,0,180,343,"d",1
4,22,"m","Keyboard",3,59,2,0,180,308,"d",1
4,22,"m","Keyboard",3,60,2,1,180,327,"h",1
4,22,"m","Keyboard",3,61,2,0,180,300,"d",1
4,22,"m","Keyboard",3,62,2,1,180,239,"h",1
4,22,"m","Keyboard",3,63,2,1,180,263,"d",0
4,22,"m","Keyboard",3,64,2,0,180,311,"d",1
4,22,"m","Keyboard",3,65,2,1,180,319,"h",1
4,22,"m","Keyboard",3,66,2,0,180,291,"d",1
4,22,"m","Keyboard",3,67,2,1,180,305,"h",1
4,22,"m","Keyboard",3,68,2,0,180,299,"d",1
4,22,"m","Keyboard",3,69,2,1,180,291,"h",1
4,22,"m","Keyboard",3,70,2,0,180,273,"d",1
4,22,"m","Keyboard",3,71,2,0,180,1574,"d",1
4,22,"m","Keyboard",3,72,2,1,180,374,"h",1
4,22,"m","Keyboard",3,73,2,0,360,318,"d",1
4,22,"m","Keyboard",3,74,2,1,360,243,"h",1
4,22,"m","Keyboard",3,75,2,0,360,257,"d",1
4,22,"m","Keyboard",3,76,2,1,360,276,"h",1
4,22,"m","Keyboard",3,77,2,0,360,282,"d",1
4,22,"m","Keyboard",3,78,2,1,360,309,"h",1
4,22,"m","Keyboard",3,79,2,0,360,292,"d",1
4,22,"m","Keyboard",3,80,2,1,360,306,"h",1
4,22,"m","Keyboard",3,81,2,0,360,368,"d",1
4,22,"m","Keyboard",3,82,2,1,360,337,"h",1
4,22,"m","Keyboard",3,83,2,0,360,251,"d",1
4,22,"m","Keyboard",3,84,2,1,360,323,"h",1
4,22,"m","Keyboard",3,85,2,0,360,300,"d",1
4,22,"m","Keyboard",3,86,2,1,360,242,"h",1
4,22,"m","Keyboard",3,87,2,0,360,281,"d",1
4,22,"m","Keyboard",3,88,2,1,360,301,"h",1
4,22,"m","Keyboard",3,89,2,0,360,272,"d",1
4,22,"m","Keyboard",3,90,2,1,360,248,"h",1
4,22,"m","Keyboard",3,91,2,0,360,280,"d",1
4,22,"m","Keyboard",3,92,2,1,360,300,"h",1
4,22,"m","Keyboard",3,93,2,1,360,375,"h",1
