uid,trial,session,block,tid,chosen,rt,correct,target_color,target_sex,stim_i,im_color,im_id,im_sex,im_type,correctResponse,is_target
1,1,1,1,1,9,14879,0,1,2,1,b,41,f,same_color,,0
1,1,1,1,1,9,14879,0,1,2,2,y,79,m,same_sex,,0
1,1,1,1,1,9,14879,0,1,2,3,b,60,f,same_color,,0
1,1,1,1,1,9,14879,0,1,2,4,b,75,f,same_color,,0
1,1,1,1,1,9,14879,0,1,2,5,b,68,m,target,5,1
1,1,1,1,1,9,14879,0,1,2,6,y,25,m,same_sex,,0
1,1,1,1,1,9,14879,0,1,2,7,y,2,m,same_sex,,0
1,1,1,1,1,9,14879,0,1,2,8,b,90,f,same_color,,0
1,1,1,1,1,9,14879,0,1,2,9,y,9,m,same_sex,,0
1,2,1,1,2,5,670,0,1,2,1,b,17,m,target,1,1
1,2,1,1,2,5,670,0,1,2,2,b,49,f,same_color,,0
1,2,1,1,2,5,670,0,1,2,3,y,28,m,same_sex,,0
1,2,1,1,2,5,670,0,1,2,4,y,12,m,same_sex,,0
1,2,1,1,2,5,670,0,1,2,5,b,15,f,same_color,,0
1,2,1,1,2,5,670,0,1,2,6,b,56,f,same_color,,0
1,2,1,1,2,5,670,0,1,2,7,y,40,m,same_sex,,0
1,2,1,1,2,5,670,0,1,2,8,y,46,m,same_sex,,0
1,2,1,1,2,5,670,0,1,2,9,b,32,f,same_color,,0
1,3,1,1,3,5,137735,0,1,2,1,y,80,m,same_sex,,0
1,3,1,1,3,5,137735,0,1,2,2,b,73,f,same_color,,0
1,3,1,1,3,5,137735,0,1,2,3,b,39,m,target,3,1
1,3,1,1,3,5,137735,0,1,2,4,y,21,m,same_sex,,0
1,3,1,1,3,5,137735,0,1,2,5,b,47,f,same_color,,0
1,3,1,1,3,5,137735,0,1,2,6,y,43,m,same_sex,,0
1,3,1,1,3,5,137735,0,1,2,7,b,70,f,same_color,,0
1,3,1,1,3,5,137735,0,1,2,8,b,66,f,same_color,,0
1,3,1,1,3,5,137735,0,1,2,9,y,22,m,same_sex,,0
1,4,1,1,4,7,137781,1,1,2,1,b,3,f,same_color,,0
1,4,1,1,4,7,137781,1,1,2,2,y,30,m,same_sex,,0
1,4,1,1,4,7,137781,1,1,2,3,b,55,f,same_color,,0
1,4,1,1,4,7,137781,1,1,2,4,b,58,f,same_color,,0
1,4,1,1,4,7,137781,1,1,2,5,y,72,m,same_sex,,0
1,4,1,1,4,7,137781,1,1,2,6,y,53,m,same_sex,,0
1,4,1,1,4,7,137781,1,1,2,7,b,76,m,target,7,1
1,4,1,1,4,7,137781,1,1,2,8,b,61,f,same_color,,0
1,4,1,1,4,7,137781,1,1,2,9,y,11,m,same_sex,,0
1,5,1,1,5,5,100328,1,1,2,1,y,89,m,same_sex,,0
1,5,1,1,5,5,100328,1,1,2,2,b,63,f,same_color,,0
1,5,1,1,5,5,100328,1,1,2,3,b,83,f,same_color,,0
1,5,1,1,5,5,100328,1,1,2,4,y,54,m,same_sex,,0
1,5,1,1,5,5,100328,1,1,2,5,b,24,m,target,5,1
1,5,1,1,5,5,100328,1,1,2,6,b,67,f,same_color,,0
1,5,1,1,5,5,100328,1,1,2,7,b,31,f,same_color,,0
1,5,1,1,5,5,100328,1,1,2,8,y,85,m,same_sex,,0
1,5,1,1,5,5,100328,1,1,2,9,y,1,m,same_sex,,0
1,6,1,1,6,3,604,0,1,2,1,y,362,m,same_sex,,0
1,6,1,1,6,3,604,0,1,2,2,y,i288ta-mn,m,same_sex,,0
1,6,1,1,6,3,604,0,1,2,3,b,403,f,same_color,,0
1,6,1,1,6,3,604,0,1,2,4,y,237,m,same_sex,,0
1,6,1,1,6,3,604,0,1,2,5,y,664,m,same_sex,,0
1,6,1,1,6,3,604,0,1,2,6,b,1094,f,same_color,,0
1,6,1,1,6,3,604,0,1,2,7,b,724,m,target,7,1
1,6,1,1,6,3,604,0,1,2,8,b,1042,f,same_color,,0
1,6,1,1,6,3,604,0,1,2,9,b,208,f,same_color,,0
1,7,1,1,7,7,723,0,1,2,1,b,318,m,target,1,1
1,7,1,1,7,7,723,0,1,2,2,y,i273ua-mn,m,same_sex,,0
1,7,1,1,7,7,723,0,1,2,3,y,i036qa-mg,m,same_sex,,0
1,7,1,1,7,7,723,0,1,2,4,b,728,f,same_color,,0
1,7,1,1,7,7,723,0,1,2,5,b,i435xa-fn,f,same_color,,0
1,7,1,1,7,7,723,0,1,2,6,y,512,m,same_sex,,0
1,7,1,1,7,7,723,0,1,2,7,b,277,f,same_color,,0
1,7,1,1,7,7,723,0,1,2,8,b,154,f,same_color,,0
1,7,1,1,7,7,723,0,1,2,9,y,283,m,same_sex,,0
1,8,1,1,8,1,395,0,1,2,1,b,386,f,same_color,,0
1,8,1,1,8,1,395,0,1,2,2,y,899,m,same_sex,,0
1,8,1,1,8,1,395,0,1,2,3,y,i201ua-mg,m,same_sex,,0
1,8,1,1,8,1,395,0,1,2,4,b,172,m,target,4,1
1,8,1,1,8,1,395,0,1,2,5,y,i045qa-mn,m,same_sex,,0
1,8,1,1,8,1,395,0,1,2,6,b,910,f,same_color,,0
1,8,1,1,8,1,395,0,1,2,7,b,661,f,same_color,,0
1,8,1,1,8,1,395,0,1,2,8,b,1160,f,same_color,,0
1,8,1,1,8,1,395,0,1,2,9,y,673,m,same_sex,,0
1,9,1,1,9,9,299966,0,1,2,1,y,i064ra-mn,m,same_sex,,0
1,9,1,1,9,9,299966,0,1,2,2,b,1075,f,same_color,,0
1,9,1,1,9,9,299966,0,1,2,3,y,i289ta-mg,m,same_sex,,0
1,9,1,1,9,9,299966,0,1,2,4,y,i307ta-mg,m,same_sex,,0
1,9,1,1,9,9,299966,0,1,2,5,b,297,m,target,5,1
1,9,1,1,9,9,299966,0,1,2,6,b,681,f,same_color,,0
1,9,1,1,9,9,299966,0,1,2,7,b,452,f,same_color,,0
1,9,1,1,9,9,299966,0,1,2,8,y,1063,m,same_sex,,0
1,9,1,1,9,9,299966,0,1,2,9,b,i007ra-fn,f,same_color,,0
1,10,1,1,10,4,346834,0,1,2,1,b,20,f,same_color,,0
1,10,1,1,10,4,346834,0,1,2,2,y,625,m,same_sex,,0
1,10,1,1,10,4,346834,0,1,2,3,y,833,m,same_sex,,0
1,10,1,1,10,4,346834,0,1,2,4,b,375,f,same_color,,0
1,10,1,1,10,4,346834,0,1,2,5,b,646,m,target,5,1
1,10,1,1,10,4,346834,0,1,2,6,y,696,m,same_sex,,0
1,10,1,1,10,4,346834,0,1,2,7,b,568,f,same_color,,0
1,10,1,1,10,4,346834,0,1,2,8,y,674,m,same_sex,,0
1,10,1,1,10,4,346834,0,1,2,9,b,i076ra-fn,f,same_color,,0
1,11,1,1,11,6,141209,1,1,2,1,y,950,m,same_sex,,0
1,11,1,1,11,6,141209,1,1,2,2,y,167,m,same_sex,,0
1,11,1,1,11,6,141209,1,1,2,3,b,537,f,same_color,,0
1,11,1,1,11,6,141209,1,1,2,4,b,441,f,same_color,,0
1,11,1,1,11,6,141209,1,1,2,5,b,675,f,same_color,,0
1,11,1,1,11,6,141209,1,1,2,6,b,985,m,target,6,1
1,11,1,1,11,6,141209,1,1,2,7,y,1033,m,same_sex,,0
1,11,1,1,11,6,141209,1,1,2,8,y,i260ta-mn,m,same_sex,,0
1,11,1,1,11,6,141209,1,1,2,9,b,1181,f,same_color,,0
1,12,1,1,12,4,459262,0,1,2,1,y,1109,m,same_sex,,0
1,12,1,1,12,4,459262,0,1,2,2,y,968,m,same_sex,,0
1,12,1,1,12,4,459262,0,1,2,3,y,585,m,same_sex,,0
1,12,1,1,12,4,459262,0,1,2,4,b,i272ta-fg,f,same_color,,0
1,12,1,1,12,4,459262,0,1,2,5,b,1132,f,same_color,,0
1,12,1,1,12,4,459262,0,1,2,6,b,653,f,same_color,,0
1,12,1,1,12,4,459262,0,1,2,7,y,615,m,same_sex,,0
1,12,1,1,12,4,459262,0,1,2,8,b,461,m,target,8,1
1,12,1,1,12,4,459262,0,1,2,9,b,224,f,same_color,,0
1,13,1,1,13,9,279609,0,1,2,1,b,221,f,same_color,,0
1,13,1,1,13,9,279609,0,1,2,2,b,426,f,same_color,,0
1,13,1,1,13,9,279609,0,1,2,3,b,1100,m,target,3,1
1,13,1,1,13,9,279609,0,1,2,4,y,1055,m,same_sex,,0
1,13,1,1,13,9,279609,0,1,2,5,y,767,m,same_sex,,0
1,13,1,1,13,9,279609,0,1,2,6,y,274,m,same_sex,,0
1,13,1,1,13,9,279609,0,1,2,7,b,211,f,same_color,,0
1,13,1,1,13,9,279609,0,1,2,8,y,1143,m,same_sex,,0
1,13,1,1,13,9,279609,0,1,2,9,b,448,f,same_color,,0
1,14,1,1,14,3,952,1,1,2,1,y,741,m,same_sex,,0
1,14,1,1,14,3,952,1,1,2,2,b,84,f,same_color,,0
1,14,1,1,14,3,952,1,1,2,3,b,37,m,target,3,1
1,14,1,1,14,3,952,1,1,2,4,b,147,f,same_color,,0
1,14,1,1,14,3,952,1,1,2,5,y,582,m,same_sex,,0
1,14,1,1,14,3,952,1,1,2,6,b,564,f,same_color,,0
1,14,1,1,14,3,952,1,1,2,7,y,759,m,same_sex,,0
1,14,1,1,14,3,952,1,1,2,8,y,142,m,same_sex,,0
1,14,1,1,14,3,952,1,1,2,9,b,306,f,same_color,,0
1,15,1,1,15,9,126001,1,1,2,1,b,510,f,same_color,,0
1,15,1,1,15,9,126001,1,1,2,2,y,496,m,same_sex,,0
1,15,1,1,15,9,126001,1,1,2,3,b,i409wa-fg,f,same_color,,0
1,15,1,1,15,9,126001,1,1,2,4,y,335,m,same_sex,,0
1,15,1,1,15,9,126001,1,1,2,5,b,549,f,same_color,,0
1,15,1,1,15,9,126001,1,1,2,6,b,425,f,same_color,,0
1,15,1,1,15,9,126001,1,1,2,7,y,1186,m,same_sex,,0
1,15,1,1,15,9,126001,1,1,2,8,y,819,m,same_sex,,0
1,15,1,1,15,9,126001,1,1,2,9,b,1037,m,target,9,1
1,16,1,1,16,5,120425,1,1,2,1,b,1152,f,same_color,,0
1,16,1,1,16,5,120425,1,1,2,2,b,815,f,same_color,,0
1,16,1,1,16,5,120425,1,1,2,3,y,531,m,same_sex,,0
1,16,1,1,16,5,120425,1,1,2,4,b,i046qa-fn,f,same_color,,0
1,16,1,1,16,5,120425,1,1,2,5,b,693,m,target,5,1
1,16,1,1,16,5,120425,1,1,2,6,y,248,m,same_sex,,0
1,16,1,1,16,5,120425,1,1,2,7,y,i405xa-fn,m,same_sex,,0
1,16,1,1,16,5,120425,1,1,2,8,b,725,f,same_color,,0
1,16,1,1,16,5,120425,1,1,2,9,y,748,m,same_sex,,0
1,17,1,1,17,9,650,1,1,2,1,b,1059,f,same_color,,0
1,17,1,1,17,9,650,1,1,2,2,b,408,f,same_color,,0
1,17,1,1,17,9,650,1,1,2,3,y,865,m,same_sex,,0
1,17,1,1,17,9,650,1,1,2,4,y,i242ta-mn,m,same_sex,,0
1,17,1,1,17,9,650,1,1,2,5,b,238,f,same_color,,0
1,17,1,1,17,9,650,1,1,2,6,y,63,m,same_sex,,0
1,17,1,1,17,9,650,1,1,2,7,y,987,m,same_sex,,0
1,17,1,1,17,9,650,1,1,2,8,b,837,f,same_color,,0
1,17,1,1,17,9,650,1,1,2,9,b,323,m,target,9,1
1,18,1,1,18,1,812,1,1,2,1,b,i602za-mn,m,target,1,1
1,18,1,1,18,1,812,1,1,2,2,b,559,f,same_color,,0
1,18,1,1,18,1,812,1,1,2,3,y,i034qa-mg,m,same_sex,,0
1,18,1,1,18,1,812,1,1,2,4,y,999,m,same_sex,,0
1,18,1,1,18,1,812,1,1,2,5,y,929,m,same_sex,,0
1,18,1,1,18,1,812,1,1,2,6,b,638,f,same_color,,0
1,18,1,1,18,1,812,1,1,2,7,y,137,m,same_sex,,0
1,18,1,1,18,1,812,1,1,2,8,b,1102,f,same_color,,0
1,18,1,1,18,1,812,1,1,2,9,b,1146,f,same_color,,0
1,19,1,1,19,1,819,1,1,2,1,b,1125,m,target,1,1
1,19,1,1,19,1,819,1,1,2,2,y,678,m,same_sex,,0
1,19,1,1,19,1,819,1,1,2,3,b,840,f,same_color,,0
1,19,1,1,19,1,819,1,1,2,4,b,i446wa-fn,f,same_color,,0
1,19,1,1,19,1,819,1,1,2,5,y,345,m,same_sex,,0
1,19,1,1,19,1,819,1,1,2,6,b,41,f,same_color,,0
1,19,1,1,19,1,819,1,1,2,7,y,501,m,same_sex,,0
1,19,1,1,19,1,819,1,1,2,8,y,520,m,same_sex,,0
1,19,1,1,19,1,819,1,1,2,9,b,i444xa-fn,f,same_color,,0
1,20,1,1,20,3,980,1,1,2,1,b,541,f,same_color,,0
1,20,1,1,20,3,980,1,1,2,2,b,663,f,same_color,,0
1,20,1,1,20,3,980,1,1,2,3,b,1172,m,target,3,1
1,20,1,1,20,3,980,1,1,2,4,b,662,f,same_color,,0
1,20,1,1,20,3,980,1,1,2,5,b,262,f,same_color,,0
1,20,1,1,20,3,980,1,1,2,6,y,50,m,same_sex,,0
1,20,1,1,20,3,980,1,1,2,7,y,588,m,same_sex,,0
1,20,1,1,20,3,980,1,1,2,8,y,370,m,same_sex,,0
1,20,1,1,20,3,980,1,1,2,9,y,991,m,same_sex,,0
1,21,1,1,21,6,134737,1,1,2,1,b,1191,f,same_color,,0
1,21,1,1,21,6,134737,1,1,2,2,b,1101,f,same_color,,0
1,21,1,1,21,6,134737,1,1,2,3,y,258,m,same_sex,,0
1,21,1,1,21,6,134737,1,1,2,4,b,293,f,same_color,,0
1,21,1,1,21,6,134737,1,1,2,5,y,139,m,same_sex,,0
1,21,1,1,21,6,134737,1,1,2,6,b,486,m,target,6,1
1,21,1,1,21,6,134737,1,1,2,7,y,i044qa-mn,m,same_sex,,0
1,21,1,1,21,6,134737,1,1,2,8,y,1124,m,same_sex,,0
1,21,1,1,21,6,134737,1,1,2,9,b,419,f,same_color,,0
1,22,1,1,22,6,399335,0,1,2,1,b,i291ua-fg,f,same_color,,0
1,22,1,1,22,6,399335,0,1,2,2,y,462,m,same_sex,,0
1,22,1,1,22,6,399335,0,1,2,3,b,32,f,same_color,,0
1,22,1,1,22,6,399335,0,1,2,4,y,282,m,same_sex,,0
1,22,1,1,22,6,399335,0,1,2,5,y,988,m,same_sex,,0
1,22,1,1,22,6,399335,0,1,2,6,b,547,f,same_color,,0
1,22,1,1,22,6,399335,0,1,2,7,y,241,m,same_sex,,0
1,22,1,1,22,6,399335,0,1,2,8,b,i006ra-mn,m,target,8,1
1,22,1,1,22,6,399335,0,1,2,9,b,72,f,same_color,,0
1,23,1,1,23,4,873,0,1,2,1,b,969,f,same_color,,0
1,23,1,1,23,4,873,0,1,2,2,y,i025ra-mn,m,same_sex,,0
1,23,1,1,23,4,873,0,1,2,3,y,952,m,same_sex,,0
1,23,1,1,23,4,873,0,1,2,4,b,1103,f,same_color,,0
1,23,1,1,23,4,873,0,1,2,5,y,888,m,same_sex,,0
1,23,1,1,23,4,873,0,1,2,6,b,600,f,same_color,,0
1,23,1,1,23,4,873,0,1,2,7,b,1201,m,target,7,1
1,23,1,1,23,4,873,0,1,2,8,y,193,m,same_sex,,0
1,23,1,1,23,4,873,0,1,2,9,b,637,f,same_color,,0
1,24,1,1,24,2,184051,0,1,2,1,b,634,f,same_color,,0
1,24,1,1,24,2,184051,0,1,2,2,b,i428wa-fn,f,same_color,,0
1,24,1,1,24,2,184051,0,1,2,3,y,169,m,same_sex,,0
1,24,1,1,24,2,184051,0,1,2,4,b,10,m,target,4,1
1,24,1,1,24,2,184051,0,1,2,5,b,177,f,same_color,,0
1,24,1,1,24,2,184051,0,1,2,6,y,876,m,same_sex,,0
1,24,1,1,24,2,184051,0,1,2,7,y,272,m,same_sex,,0
1,24,1,1,24,2,184051,0,1,2,8,b,720,f,same_color,,0
1,24,1,1,24,2,184051,0,1,2,9,y,679,m,same_sex,,0
1,25,1,1,25,2,995,1,1,2,1,b,423,f,same_color,,0
1,25,1,1,25,2,995,1,1,2,2,b,503,m,target,2,1
1,25,1,1,25,2,995,1,1,2,3,y,857,m,same_sex,,0
1,25,1,1,25,2,995,1,1,2,4,b,974,f,same_color,,0
1,25,1,1,25,2,995,1,1,2,5,b,1117,f,same_color,,0
1,25,1,1,25,2,995,1,1,2,6,y,114,m,same_sex,,0
1,25,1,1,25,2,995,1,1,2,7,y,11,m,same_sex,,0
1,25,1,1,25,2,995,1,1,2,8,y,213,m,same_sex,,0
1,25,1,1,25,2,995,1,1,2,9,b,317,f,same_color,,0
1,26,1,1,26,8,723,1,1,2,1,b,1057,f,same_color,,0
1,26,1,1,26,8,723,1,1,2,2,y,608,m,same_sex,,0
1,26,1,1,26,8,723,1,1,2,3,y,828,m,same_sex,,0
1,26,1,1,26,8,723,1,1,2,4,b,456,f,same_color,,0
1,26,1,1,26,8,723,1,1,2,5,y,907,m,same_sex,,0
1,26,1,1,26,8,723,1,1,2,6,b,i026qa-fn,f,same_color,,0
1,26,1,1,26,8,723,1,1,2,7,b,1133,f,same_color,,0
1,26,1,1,26,8,723,1,1,2,8,b,304,m,target,8,1
1,26,1,1,26,8,723,1,1,2,9,y,320,m,same_sex,,0
1,27,1,1,27,2,112705,0,1,2,1,b,i425xa-mn,m,target,1,1
1,27,1,1,27,2,112705,0,1,2,2,b,858,f,same_color,,0
1,27,1,1,27,2,112705,0,1,2,3,y,545,m,same_sex,,0
1,27,1,1,27,2,112705,0,1,2,4,y,460,m,same_sex,,0
1,27,1,1,27,2,112705,0,1,2,5,b,1159,f,same_color,,0
1,27,1,1,27,2,112705,0,1,2,6,y,178,m,same_sex,,0
1,27,1,1,27,2,112705,0,1,2,7,b,831,f,same_color,,0
1,27,1,1,27,2,112705,0,1,2,8,b,1008,f,same_color,,0
1,27,1,1,27,2,112705,0,1,2,9,y,860,m,same_sex,,0
1,28,1,1,28,2,616,1,1,2,1,b,723,f,same_color,,0
1,28,1,1,28,2,616,1,1,2,2,b,233,m,target,2,1
1,28,1,1,28,2,616,1,1,2,3,b,1185,f,same_color,,0
1,28,1,1,28,2,616,1,1,2,4,y,692,m,same_sex,,0
1,28,1,1,28,2,616,1,1,2,5,b,i088qa-fn,f,same_color,,0
1,28,1,1,28,2,616,1,1,2,6,y,900,m,same_sex,,0
1,28,1,1,28,2,616,1,1,2,7,b,104,f,same_color,,0
1,28,1,1,28,2,616,1,1,2,8,y,1004,m,same_sex,,0
1,28,1,1,28,2,616,1,1,2,9,y,1053,m,same_sex,,0
1,29,1,1,29,4,108615,0,1,2,1,y,740,m,same_sex,,0
1,29,1,1,29,4,108615,0,1,2,2,y,558,m,same_sex,,0
1,29,1,1,29,4,108615,0,1,2,3,b,107,f,same_color,,0
1,29,1,1,29,4,108615,0,1,2,4,b,418,f,same_color,,0
1,29,1,1,29,4,108615,0,1,2,5,b,280,f,same_color,,0
1,29,1,1,29,4,108615,0,1,2,6,y,474,m,same_sex,,0
1,29,1,1,29,4,108615,0,1,2,7,y,853,m,same_sex,,0
1,29,1,1,29,4,108615,0,1,2,8,b,40,f,same_color,,0
1,29,1,1,29,4,108615,0,1,2,9,b,i256ua-mn,m,target,9,1
1,30,1,1,30,9,386176,0,1,2,1,y,132,m,same_sex,,0
1,30,1,1,30,9,386176,0,1,2,2,y,i052qa-mn,m,same_sex,,0
1,30,1,1,30,9,386176,0,1,2,3,b,31,f,same_color,,0
1,30,1,1,30,9,386176,0,1,2,4,b,i607ya-fn,f,same_color,,0
1,30,1,1,30,9,386176,0,1,2,5,y,983,m,same_sex,,0
1,30,1,1,30,9,386176,0,1,2,6,b,235,f,same_color,,0
1,30,1,1,30,9,386176,0,1,2,7,b,468,m,target,7,1
1,30,1,1,30,9,386176,0,1,2,8,y,784,m,same_sex,,0
1,30,1,1,30,9,386176,0,1,2,9,b,694,f,same_color,,0
1,31,1,1,31,5,58744,0,1,2,1,b,699,f,same_color,,0
1,31,1,1,31,5,58744,0,1,2,2,y,796,m,same_sex,,0
1,31,1,1,31,5,58744,0,1,2,3,b,1126,f,same_color,,0
1,31,1,1,31,5,58744,0,1,2,4,y,896,m,same_sex,,0
1,31,1,1,31,5,58744,0,1,2,5,y,710,m,same_sex,,0
1,31,1,1,31,5,58744,0,1,2,6,b,96,m,target,6,1
1,31,1,1,31,5,58744,0,1,2,7,y,770,m,same_sex,,0
1,31,1,1,31,5,58744,0,1,2,8,b,1196,f,same_color,,0
1,31,1,1,31,5,58744,0,1,2,9,b,779,f,same_color,,0
1,32,1,1,32,6,795,1,1,2,1,b,i624ya-fn,f,same_color,,0
1,32,1,1,32,6,795,1,1,2,2,b,i604za-fn,f,same_color,,0
1,32,1,1,32,6,795,1,1,2,3,y,942,m,same_sex,,0
1,32,1,1,32,6,795,1,1,2,4,b,405,f,same_color,,0
1,32,1,1,32,6,795,1,1,2,5,y,1091,m,same_sex,,0
1,32,1,1,32,6,795,1,1,2,6,b,596,m,target,6,1
1,32,1,1,32,6,795,1,1,2,7,y,i038qa-mn,m,same_sex,,0
1,32,1,1,32,6,795,1,1,2,8,b,111,f,same_color,,0
1,32,1,1,32,6,795,1,1,2,9,y,180,m,same_sex,,0
1,33,1,1,33,4,232822,0,1,2,1,b,351,f,same_color,,0
1,33,1,1,33,4,232822,0,1,2,2,b,i410wa-fn,f,same_color,,0
1,33,1,1,33,4,232822,0,1,2,3,b,658,m,target,3,1
1,33,1,1,33,4,232822,0,1,2,4,b,1165,f,same_color,,0
1,33,1,1,33,4,232822,0,1,2,5,y,159,m,same_sex,,0
1,33,1,1,33,4,232822,0,1,2,6,b,374,f,same_color,,0
1,33,1,1,33,4,232822,0,1,2,7,y,i219ta-mn,m,same_sex,,0
1,33,1,1,33,4,232822,0,1,2,8,y,475,m,same_sex,,0
1,33,1,1,33,4,232822,0,1,2,9,y,577,m,same_sex,,0
1,34,1,1,34,3,788,1,1,2,1,b,1048,f,same_color,,0
1,34,1,1,34,3,788,1,1,2,2,b,492,f,same_color,,0
1,34,1,1,34,3,788,1,1,2,3,b,912,m,target,3,1
1,34,1,1,34,3,788,1,1,2,4,y,360,m,same_sex,,0
1,34,1,1,34,3,788,1,1,2,5,b,1078,f,same_color,,0
1,34,1,1,34,3,788,1,1,2,6,y,1069,m,same_sex,,0
1,34,1,1,34,3,788,1,1,2,7,y,838,m,same_sex,,0
1,34,1,1,34,3,788,1,1,2,8,y,1010,m,same_sex,,0
1,34,1,1,34,3,788,1,1,2,9,b,495,f,same_color,,0
1,35,1,1,35,8,121827,0,1,2,1,b,832,m,target,1,1
1,35,1,1,35,8,121827,0,1,2,2,y,9,m,same_sex,,0
1,35,1,1,35,8,121827,0,1,2,3,b,530,f,same_color,,0
1,35,1,1,35,8,121827,0,1,2,4,y,i011qa-mn,m,same_sex,,0
1,35,1,1,35,8,121827,0,1,2,5,y,810,m,same_sex,,0
1,35,1,1,35,8,121827,0,1,2,6,y,338,m,same_sex,,0
1,35,1,1,35,8,121827,0,1,2,7,b,500,f,same_color,,0
1,35,1,1,35,8,121827,0,1,2,8,b,804,f,same_color,,0
1,35,1,1,35,8,121827,0,1,2,9,b,292,f,same_color,,0
1,36,1,1,36,4,862,1,1,2,1,b,420,f,same_color,,0
1,36,1,1,36,4,862,1,1,2,2,b,i018ra-fn,f,same_color,,0
1,36,1,1,36,4,862,1,1,2,3,y,550,m,same_sex,,0
1,36,1,1,36,4,862,1,1,2,4,b,490,m,target,4,1
1,36,1,1,36,4,862,1,1,2,5,b,459,f,same_color,,0
1,36,1,1,36,4,862,1,1,2,6,y,764,m,same_sex,,0
1,36,1,1,36,4,862,1,1,2,7,y,i084qa-mn,m,same_sex,,0
1,36,1,1,36,4,862,1,1,2,8,b,1194,f,same_color,,0
1,36,1,1,36,4,862,1,1,2,9,y,855,m,same_sex,,0
1,37,1,1,37,9,312863,0,1,2,1,b,i061ra-fn,f,same_color,,0
1,37,1,1,37,9,312863,0,1,2,2,b,244,f,same_color,,0
1,37,1,1,37,9,312863,0,1,2,3,y,618,m,same_sex,,0
1,37,1,1,37,9,312863,0,1,2,4,y,161,m,same_sex,,0
1,37,1,1,37,9,312863,0,1,2,5,y,144,m,same_sex,,0
1,37,1,1,37,9,312863,0,1,2,6,b,i304ua-fg,f,same_color,,0
1,37,1,1,37,9,312863,0,1,2,7,b,1000,m,target,7,1
1,37,1,1,37,9,312863,0,1,2,8,y,363,m,same_sex,,0
1,37,1,1,37,9,312863,0,1,2,9,b,1052,f,same_color,,0
1,38,1,1,38,2,756,1,1,2,1,b,996,f,same_color,,0
1,38,1,1,38,2,756,1,1,2,2,b,i270ta-mn,m,target,2,1
1,38,1,1,38,2,756,1,1,2,3,b,1019,f,same_color,,0
1,38,1,1,38,2,756,1,1,2,4,y,122,m,same_sex,,0
1,38,1,1,38,2,756,1,1,2,5,y,i228ua-mg,m,same_sex,,0
1,38,1,1,38,2,756,1,1,2,6,b,265,f,same_color,,0
1,38,1,1,38,2,756,1,1,2,7,b,i431xa-fn,f,same_color,,0
1,38,1,1,38,2,756,1,1,2,8,y,1163,m,same_sex,,0
1,38,1,1,38,2,756,1,1,2,9,y,680,m,same_sex,,0
1,39,1,1,39,3,956,0,1,2,1,y,649,m,same_sex,,0
1,39,1,1,39,3,956,0,1,2,2,y,1068,m,same_sex,,0
1,39,1,1,39,3,956,0,1,2,3,b,313,f,same_color,,0
1,39,1,1,39,3,956,0,1,2,4,b,1072,f,same_color,,0
1,39,1,1,39,3,956,0,1,2,5,b,751,m,target,5,1
1,39,1,1,39,3,956,0,1,2,6,b,i600za-fn,f,same_color,,0
1,39,1,1,39,3,956,0,1,2,7,b,i301ta-fg,f,same_color,,0
1,39,1,1,39,3,956,0,1,2,8,y,862,m,same_sex,,0
1,39,1,1,39,3,956,0,1,2,9,y,240,m,same_sex,,0
1,40,1,1,40,8,813,1,1,2,1,b,371,f,same_color,,0
1,40,1,1,40,8,813,1,1,2,2,y,1041,m,same_sex,,0
1,40,1,1,40,8,813,1,1,2,3,b,311,f,same_color,,0
1,40,1,1,40,8,813,1,1,2,4,y,368,m,same_sex,,0
1,40,1,1,40,8,813,1,1,2,5,y,1205,m,same_sex,,0
1,40,1,1,40,8,813,1,1,2,6,y,109,m,same_sex,,0
1,40,1,1,40,8,813,1,1,2,7,b,i413xa-fn,f,same_color,,0
1,40,1,1,40,8,813,1,1,2,8,b,179,m,target,8,1
1,40,1,1,40,8,813,1,1,2,9,b,412,f,same_color,,0
1,41,1,1,41,3,154376,0,1,2,1,b,i285ta-fn,f,same_color,,0
1,41,1,1,41,3,154376,0,1,2,2,y,522,m,same_sex,,0
1,41,1,1,41,3,154376,0,1,2,3,b,45,f,same_color,,0
1,41,1,1,41,3,154376,0,1,2,4,b,399,f,same_color,,0
1,41,1,1,41,3,154376,0,1,2,5,b,i078qa-fg,f,same_color,,0
1,41,1,1,41,3,154376,0,1,2,6,y,39,m,same_sex,,0
1,41,1,1,41,3,154376,0,1,2,7,b,78,m,target,7,1
1,41,1,1,41,3,154376,0,1,2,8,y,252,m,same_sex,,0
1,41,1,1,41,3,154376,0,1,2,9,y,361,m,same_sex,,0
1,42,1,1,42,1,287484,0,1,2,1,b,i210ua-fn,f,same_color,,0
1,42,1,1,42,1,287484,0,1,2,2,b,314,f,same_color,,0
1,42,1,1,42,1,287484,0,1,2,3,y,930,m,same_sex,,0
1,42,1,1,42,1,287484,0,1,2,4,y,189,m,same_sex,,0
1,42,1,1,42,1,287484,0,1,2,5,y,257,m,same_sex,,0
1,42,1,1,42,1,287484,0,1,2,6,b,i033ra-fn,f,same_color,,0
1,42,1,1,42,1,287484,0,1,2,7,y,476,m,same_sex,,0
1,42,1,1,42,1,287484,0,1,2,8,b,329,f,same_color,,0
1,42,1,1,42,1,287484,0,1,2,9,b,i002ra-mn,m,target,9,1
1,43,1,1,43,2,142083,0,1,2,1,b,704,f,same_color,,0
1,43,1,1,43,2,142083,0,1,2,2,y,64,m,same_sex,,0
1,43,1,1,43,2,142083,0,1,2,3,b,1098,m,target,3,1
1,43,1,1,43,2,142083,0,1,2,4,y,757,m,same_sex,,0
1,43,1,1,43,2,142083,0,1,2,5,y,535,m,same_sex,,0
1,43,1,1,43,2,142083,0,1,2,6,b,307,f,same_color,,0
1,43,1,1,43,2,142083,0,1,2,7,b,483,f,same_color,,0
1,43,1,1,43,2,142083,0,1,2,8,b,i609za-fg,f,same_color,,0
1,43,1,1,43,2,142083,0,1,2,9,y,809,m,same_sex,,0
1,44,1,1,44,5,205206,0,1,2,1,b,354,f,same_color,,0
1,44,1,1,44,5,205206,0,1,2,2,y,799,m,same_sex,,0
1,44,1,1,44,5,205206,0,1,2,3,y,586,m,same_sex,,0
1,44,1,1,44,5,205206,0,1,2,4,b,121,f,same_color,,0
1,44,1,1,44,5,205206,0,1,2,5,b,941,f,same_color,,0
1,44,1,1,44,5,205206,0,1,2,6,y,i041ra-mn,m,same_sex,,0
1,44,1,1,44,5,205206,0,1,2,7,b,i022qa-fn,f,same_color,,0
1,44,1,1,44,5,205206,0,1,2,8,b,i205ta-mn,m,target,8,1
1,44,1,1,44,5,205206,0,1,2,9,y,348,m,same_sex,,0
1,45,1,1,45,3,569,1,1,2,1,y,1182,m,same_sex,,0
1,45,1,1,45,3,569,1,1,2,2,b,1155,f,same_color,,0
1,45,1,1,45,3,569,1,1,2,3,b,i417xa-mn,m,target,3,1
1,45,1,1,45,3,569,1,1,2,4,b,102,f,same_color,,0
1,45,1,1,45,3,569,1,1,2,5,b,644,f,same_color,,0
1,45,1,1,45,3,569,1,1,2,6,y,i294ta-mg,m,same_sex,,0
1,45,1,1,45,3,569,1,1,2,7,y,614,m,same_sex,,0
1,45,1,1,45,3,569,1,1,2,8,b,352,f,same_color,,0
1,45,1,1,45,3,569,1,1,2,9,y,108,m,same_sex,,0
1,46,1,1,46,3,652,1,1,2,1,y,870,m,same_sex,,0
1,46,1,1,46,3,652,1,1,2,2,b,196,f,same_color,,0
1,46,1,1,46,3,652,1,1,2,3,b,275,m,target,3,1
1,46,1,1,46,3,652,1,1,2,4,y,i231ua-mn,m,same_sex,,0
1,46,1,1,46,3,652,1,1,2,5,b,576,f,same_color,,0
1,46,1,1,46,3,652,1,1,2,6,b,449,f,same_color,,0
1,46,1,1,46,3,652,1,1,2,7,y,334,m,same_sex,,0
1,46,1,1,46,3,652,1,1,2,8,b,123,f,same_color,,0
1,46,1,1,46,3,652,1,1,2,9,y,23,m,same_sex,,0
1,47,1,1,47,6,246204,0,1,2,1,y,783,m,same_sex,,0
1,47,1,1,47,6,246204,0,1,2,2,b,432,f,same_color,,0
1,47,1,1,47,6,246204,0,1,2,3,b,1007,f,same_color,,0
1,47,1,1,47,6,246204,0,1,2,4,b,762,f,same_color,,0
1,47,1,1,47,6,246204,0,1,2,5,b,624,m,target,5,1
1,47,1,1,47,6,246204,0,1,2,6,y,42,m,same_sex,,0
1,47,1,1,47,6,246204,0,1,2,7,y,i012qa-mn,m,same_sex,,0
1,47,1,1,47,6,246204,0,1,2,8,y,686,m,same_sex,,0
1,47,1,1,47,6,246204,0,1,2,9,b,i053qa-fg,f,same_color,,0
1,48,1,1,48,1,154451,0,1,2,1,b,i226ta-fg,f,same_color,,0
1,48,1,1,48,1,154451,0,1,2,2,b,986,f,same_color,,0
1,48,1,1,48,1,154451,0,1,2,3,b,1040,m,target,3,1
1,48,1,1,48,1,154451,0,1,2,4,b,589,f,same_color,,0
1,48,1,1,48,1,154451,0,1,2,5,y,i035ra-mn,m,same_sex,,0
1,48,1,1,48,1,154451,0,1,2,6,y,i440xa-mg,m,same_sex,,0
1,48,1,1,48,1,154451,0,1,2,7,b,534,f,same_color,,0
1,48,1,1,48,1,154451,0,1,2,8,y,597,m,same_sex,,0
1,48,1,1,48,1,154451,0,1,2,9,y,659,m,same_sex,,0
1,49,1,1,49,3,658,1,1,2,1,b,263,f,same_color,,0
1,49,1,1,49,3,658,1,1,2,2,b,395,f,same_color,,0
1,49,1,1,49,3,658,1,1,2,3,b,157,m,target,3,1
1,49,1,1,49,3,658,1,1,2,4,b,344,f,same_color,,0
1,49,1,1,49,3,658,1,1,2,5,b,824,f,same_color,,0
1,49,1,1,49,3,658,1,1,2,6,y,755,m,same_sex,,0
1,49,1,1,49,3,658,1,1,2,7,y,817,m,same_sex,,0
1,49,1,1,49,3,658,1,1,2,8,y,i269ua-mn,m,same_sex,,0
1,49,1,1,49,3,658,1,1,2,9,y,863,m,same_sex,,0
1,50,1,1,50,9,599,0,1,2,1,y,526,m,same_sex,,0
1,50,1,1,50,9,599,0,1,2,2,y,192,m,same_sex,,0
1,50,1,1,50,9,599,0,1,2,3,y,286,m,same_sex,,0
1,50,1,1,50,9,599,0,1,2,4,y,463,m,same_sex,,0
1,50,1,1,50,9,599,0,1,2,5,b,394,f,same_color,,0
1,50,1,1,50,9,599,0,1,2,6,b,971,f,same_color,,0
1,50,1,1,50,9,599,0,1,2,7,b,250,f,same_color,,0
1,50,1,1,50,9,599,0,1,2,8,b,55,m,target,8,1
1,50,1,1,50,9,599,0,1,2,9,b,357,f,same_color,,0
1,51,1,1,51,9,624,1,1,2,1,y,76,m,same_sex,,0
1,51,1,1,51,9,624,1,1,2,2,y,715,m,same_sex,,0
1,51,1,1,51,9,624,1,1,2,3,b,963,f,same_color,,0
1,51,1,1,51,9,624,1,1,2,4,b,i236ua-fn,f,same_color,,0
1,51,1,1,51,9,624,1,1,2,5,y,622,m,same_sex,,0
1,51,1,1,51,9,624,1,1,2,6,b,1090,f,same_color,,0
1,51,1,1,51,9,624,1,1,2,7,y,1140,m,same_sex,,0
1,51,1,1,51,9,624,1,1,2,8,b,219,f,same_color,,0
1,51,1,1,51,9,624,1,1,2,9,b,684,m,target,9,1
1,52,1,1,52,7,666,1,1,2,1,b,965,f,same_color,,0
1,52,1,1,52,7,666,1,1,2,2,b,434,f,same_color,,0
1,52,1,1,52,7,666,1,1,2,3,y,355,m,same_sex,,0
1,52,1,1,52,7,666,1,1,2,4,b,343,f,same_color,,0
1,52,1,1,52,7,666,1,1,2,5,b,557,f,same_color,,0
1,52,1,1,52,7,666,1,1,2,6,y,940,m,same_sex,,0
1,52,1,1,52,7,666,1,1,2,7,b,932,m,target,7,1
1,52,1,1,52,7,666,1,1,2,8,y,619,m,same_sex,,0
1,52,1,1,52,7,666,1,1,2,9,y,871,m,same_sex,,0
1,53,1,1,53,5,209953,0,1,2,1,b,1147,f,same_color,,0
1,53,1,1,53,5,209953,0,1,2,2,y,88,m,same_sex,,0
1,53,1,1,53,5,209953,0,1,2,3,b,702,f,same_color,,0
1,53,1,1,53,5,209953,0,1,2,4,y,1095,m,same_sex,,0
1,53,1,1,53,5,209953,0,1,2,5,b,i437xa-fn,f,same_color,,0
1,53,1,1,53,5,209953,0,1,2,6,b,613,m,target,6,1
1,53,1,1,53,5,209953,0,1,2,7,y,i223ua-mn,m,same_sex,,0
1,53,1,1,53,5,209953,0,1,2,8,b,i030qa-fg,f,same_color,,0
1,53,1,1,53,5,209953,0,1,2,9,y,519,m,same_sex,,0
1,54,1,2,54,9,636,0,1,2,1,y,834,m,same_sex,,0
1,54,1,2,54,9,636,0,1,2,2,y,1193,m,same_sex,,0
1,54,1,2,54,9,636,0,1,2,3,b,302,f,same_color,,0
1,54,1,2,54,9,636,0,1,2,4,y,533,m,same_sex,,0
1,54,1,2,54,9,636,0,1,2,5,y,994,m,same_sex,,0
1,54,1,2,54,9,636,0,1,2,6,b,400,f,same_color,,0
1,54,1,2,54,9,636,0,1,2,7,b,81,m,target,7,1
1,54,1,2,54,9,636,0,1,2,8,b,i265ta-fn,f,same_color,,0
1,54,1,2,54,9,636,0,1,2,9,b,916,f,same_color,,0
1,55,1,2,55,2,386296,0,1,2,1,b,964,m,target,1,1
1,55,1,2,55,2,386296,0,1,2,2,y,166,m,same_sex,,0
1,55,1,2,55,2,386296,0,1,2,3,b,209,f,same_color,,0
1,55,1,2,55,2,386296,0,1,2,4,y,i255ua-mn,m,same_sex,,0
1,55,1,2,55,2,386296,0,1,2,5,b,1049,f,same_color,,0
1,55,1,2,55,2,386296,0,1,2,6,b,397,f,same_color,,0
1,55,1,2,55,2,386296,0,1,2,7,b,444,f,same_color,,0
1,55,1,2,55,2,386296,0,1,2,8,y,35,m,same_sex,,0
1,55,1,2,55,2,386296,0,1,2,9,y,128,m,same_sex,,0
1,56,1,2,56,3,445,1,1,2,1,b,433,f,same_color,,0
1,56,1,2,56,3,445,1,1,2,2,y,1056,m,same_sex,,0
1,56,1,2,56,3,445,1,1,2,3,b,504,m,target,3,1
1,56,1,2,56,3,445,1,1,2,4,y,544,m,same_sex,,0
1,56,1,2,56,3,445,1,1,2,5,y,1145,m,same_sex,,0
1,56,1,2,56,3,445,1,1,2,6,b,436,f,same_color,,0
1,56,1,2,56,3,445,1,1,2,7,b,628,f,same_color,,0
1,56,1,2,56,3,445,1,1,2,8,b,648,f,same_color,,0
1,56,1,2,56,3,445,1,1,2,9,y,887,m,same_sex,,0
1,57,1,2,57,9,194749,0,1,2,1,b,1168,m,target,1,1
1,57,1,2,57,9,194749,0,1,2,2,b,i207ta-fn,f,same_color,,0
1,57,1,2,57,9,194749,0,1,2,3,y,66,m,same_sex,,0
1,57,1,2,57,9,194749,0,1,2,4,b,1016,f,same_color,,0
1,57,1,2,57,9,194749,0,1,2,5,y,933,m,same_sex,,0
1,57,1,2,57,9,194749,0,1,2,6,y,339,m,same_sex,,0
1,57,1,2,57,9,194749,0,1,2,7,b,i218ta-fn,f,same_color,,0
1,57,1,2,57,9,194749,0,1,2,8,b,385,f,same_color,,0
1,57,1,2,57,9,194749,0,1,2,9,y,869,m,same_sex,,0
1,58,1,2,58,6,129851,1,1,2,1,y,538,m,same_sex,,0
1,58,1,2,58,6,129851,1,1,2,2,y,590,m,same_sex,,0
1,58,1,2,58,6,129851,1,1,2,3,y,85,m,same_sex,,0
1,58,1,2,58,6,129851,1,1,2,4,b,288,f,same_color,,0
1,58,1,2,58,6,129851,1,1,2,5,b,i077qa-fn,f,same_color,,0
1,58,1,2,58,6,129851,1,1,2,6,b,954,m,target,6,1
1,58,1,2,58,6,129851,1,1,2,7,b,1108,f,same_color,,0
1,58,1,2,58,6,129851,1,1,2,8,b,450,f,same_color,,0
1,58,1,2,58,6,129851,1,1,2,9,y,1029,m,same_sex,,0
1,59,1,2,59,4,140441,1,1,2,1,y,i420xa-mn,m,same_sex,,0
1,59,1,2,59,4,140441,1,1,2,2,y,733,m,same_sex,,0
1,59,1,2,59,4,140441,1,1,2,3,b,214,f,same_color,,0
1,59,1,2,59,4,140441,1,1,2,4,b,800,m,target,4,1
1,59,1,2,59,4,140441,1,1,2,5,y,641,m,same_sex,,0
1,59,1,2,59,4,140441,1,1,2,6,b,60,f,same_color,,0
1,59,1,2,59,4,140441,1,1,2,7,b,112,f,same_color,,0
1,59,1,2,59,4,140441,1,1,2,8,b,i065qa-fn,f,same_color,,0
1,59,1,2,59,4,140441,1,1,2,9,y,129,m,same_sex,,0
1,60,1,2,60,6,755,1,1,2,1,b,543,f,same_color,,0
1,60,1,2,60,6,755,1,1,2,2,b,i424xa-fn,f,same_color,,0
1,60,1,2,60,6,755,1,1,2,3,y,i623za-mn,m,same_sex,,0
1,60,1,2,60,6,755,1,1,2,4,b,1166,f,same_color,,0
1,60,1,2,60,6,755,1,1,2,5,y,821,m,same_sex,,0
1,60,1,2,60,6,755,1,1,2,6,b,1189,m,target,6,1
1,60,1,2,60,6,755,1,1,2,7,y,i416xa-mn,m,same_sex,,0
1,60,1,2,60,6,755,1,1,2,8,y,1092,m,same_sex,,0
1,60,1,2,60,6,755,1,1,2,9,b,i610ya-fn,f,same_color,,0
1,61,1,2,61,2,670,0,1,2,1,b,364,m,target,1,1
1,61,1,2,61,2,670,0,1,2,2,b,i212ta-fn,f,same_color,,0
1,61,1,2,61,2,670,0,1,2,3,b,384,f,same_color,,0
1,61,1,2,61,2,670,0,1,2,4,y,711,m,same_sex,,0
1,61,1,2,61,2,670,0,1,2,5,b,454,f,same_color,,0
1,61,1,2,61,2,670,0,1,2,6,y,i246ua-mg,m,same_sex,,0
1,61,1,2,61,2,670,0,1,2,7,y,494,m,same_sex,,0
1,61,1,2,61,2,670,0,1,2,8,y,69,m,same_sex,,0
1,61,1,2,61,2,670,0,1,2,9,b,703,f,same_color,,0
1,62,1,2,62,6,17786,0,1,2,1,b,563,f,same_color,,0
1,62,1,2,62,6,17786,0,1,2,2,y,143,m,same_sex,,0
1,62,1,2,62,6,17786,0,1,2,3,y,116,m,same_sex,,0
1,62,1,2,62,6,17786,0,1,2,4,b,769,f,same_color,,0
1,62,1,2,62,6,17786,0,1,2,5,y,8,m,same_sex,,0
1,62,1,2,62,6,17786,0,1,2,6,b,382,f,same_color,,0
1,62,1,2,62,6,17786,0,1,2,7,b,270,f,same_color,,0
1,62,1,2,62,6,17786,0,1,2,8,y,1050,m,same_sex,,0
1,62,1,2,62,6,17786,0,1,2,9,b,16,m,target,9,1
1,63,1,2,63,4,114484,0,1,2,1,b,823,f,same_color,,0
1,63,1,2,63,4,114484,0,1,2,2,y,1043,m,same_sex,,0
1,63,1,2,63,4,114484,0,1,2,3,y,874,m,same_sex,,0
1,63,1,2,63,4,114484,0,1,2,4,b,327,f,same_color,,0
1,63,1,2,63,4,114484,0,1,2,5,b,i008ra-mn,m,target,5,1
1,63,1,2,63,4,114484,0,1,2,6,y,802,m,same_sex,,0
1,63,1,2,63,4,114484,0,1,2,7,b,296,f,same_color,,0
1,63,1,2,63,4,114484,0,1,2,8,b,631,f,same_color,,0
1,63,1,2,63,4,114484,0,1,2,9,y,701,m,same_sex,,0
1,64,1,2,64,4,739,1,1,2,1,y,285,m,same_sex,,0
1,64,1,2,64,4,739,1,1,2,2,y,2,m,same_sex,,0
1,64,1,2,64,4,739,1,1,2,3,b,225,f,same_color,,0
1,64,1,2,64,4,739,1,1,2,4,b,i028qa-mg,m,target,4,1
1,64,1,2,64,4,739,1,1,2,5,b,i062qa-fn,f,same_color,,0
1,64,1,2,64,4,739,1,1,2,6,y,1207,m,same_sex,,0
1,64,1,2,64,4,739,1,1,2,7,y,15,m,same_sex,,0
1,64,1,2,64,4,739,1,1,2,8,b,689,f,same_color,,0
1,64,1,2,64,4,739,1,1,2,9,b,i619ya-fg,f,same_color,,0
1,65,1,2,65,5,492,1,1,2,1,b,337,f,same_color,,0
1,65,1,2,65,5,492,1,1,2,2,b,687,f,same_color,,0
1,65,1,2,65,5,492,1,1,2,3,y,640,m,same_sex,,0
1,65,1,2,65,5,492,1,1,2,4,y,332,m,same_sex,,0
1,65,1,2,65,5,492,1,1,2,5,b,905,m,target,5,1
1,65,1,2,65,5,492,1,1,2,6,b,i612za-fn,f,same_color,,0
1,65,1,2,65,5,492,1,1,2,7,y,536,m,same_sex,,0
1,65,1,2,65,5,492,1,1,2,8,y,30,m,same_sex,,0
1,65,1,2,65,5,492,1,1,2,9,b,i605ya-fn,f,same_color,,0
1,66,1,2,66,2,534,1,1,2,1,y,1204,m,same_sex,,0
1,66,1,2,66,2,534,1,1,2,2,b,570,m,target,2,1
1,66,1,2,66,2,534,1,1,2,3,b,1080,f,same_color,,0
1,66,1,2,66,2,534,1,1,2,4,y,611,m,same_sex,,0
1,66,1,2,66,2,534,1,1,2,5,b,529,f,same_color,,0
1,66,1,2,66,2,534,1,1,2,6,b,1208,f,same_color,,0
1,66,1,2,66,2,534,1,1,2,7,y,162,m,same_sex,,0
1,66,1,2,66,2,534,1,1,2,8,y,206,m,same_sex,,0
1,66,1,2,66,2,534,1,1,2,9,b,873,f,same_color,,0
1,67,1,2,67,9,529,0,1,2,1,b,267,f,same_color,,0
1,67,1,2,67,9,529,0,1,2,2,b,i248ua-fn,f,same_color,,0
1,67,1,2,67,9,529,0,1,2,3,y,38,m,same_sex,,0
1,67,1,2,67,9,529,0,1,2,4,b,264,f,same_color,,0
1,67,1,2,67,9,529,0,1,2,5,y,1003,m,same_sex,,0
1,67,1,2,67,9,529,0,1,2,6,b,256,m,target,6,1
1,67,1,2,67,9,529,0,1,2,7,y,1074,m,same_sex,,0
1,67,1,2,67,9,529,0,1,2,8,y,234,m,same_sex,,0
1,67,1,2,67,9,529,0,1,2,9,b,i617ya-fn,f,same_color,,0
1,68,1,2,68,6,808,1,1,2,1,b,401,f,same_color,,0
1,68,1,2,68,6,808,1,1,2,2,y,515,m,same_sex,,0
1,68,1,2,68,6,808,1,1,2,3,b,984,f,same_color,,0
1,68,1,2,68,6,808,1,1,2,4,y,205,m,same_sex,,0
1,68,1,2,68,6,808,1,1,2,5,b,181,f,same_color,,0
1,68,1,2,68,6,808,1,1,2,6,b,573,m,target,6,1
1,68,1,2,68,6,808,1,1,2,7,y,289,m,same_sex,,0
1,68,1,2,68,6,808,1,1,2,8,y,995,m,same_sex,,0
1,68,1,2,68,6,808,1,1,2,9,b,201,f,same_color,,0
1,69,1,2,69,7,173,1,1,2,1,y,170,m,same_sex,,0
1,69,1,2,69,7,173,1,1,2,2,y,1175,m,same_sex,,0
1,69,1,2,69,7,173,1,1,2,3,b,849,f,same_color,,0
1,69,1,2,69,7,173,1,1,2,4,y,867,m,same_sex,,0
1,69,1,2,69,7,173,1,1,2,5,b,842,f,same_color,,0
1,69,1,2,69,7,173,1,1,2,6,y,25,m,same_sex,,0
1,69,1,2,69,7,173,1,1,2,7,b,877,m,target,7,1
1,69,1,2,69,7,173,1,1,2,8,b,818,f,same_color,,0
1,69,1,2,69,7,173,1,1,2,9,b,1161,f,same_color,,0
1,70,1,2,70,2,187034,0,1,2,1,y,602,m,same_sex,,0
1,70,1,2,70,2,187034,0,1,2,2,b,52,f,same_color,,0
1,70,1,2,70,2,187034,0,1,2,3,b,1138,f,same_color,,0
1,70,1,2,70,2,187034,0,1,2,4,b,1180,m,target,4,1
1,70,1,2,70,2,187034,0,1,2,5,b,68,f,same_color,,0
1,70,1,2,70,2,187034,0,1,2,6,y,902,m,same_sex,,0
1,70,1,2,70,2,187034,0,1,2,7,y,961,m,same_sex,,0
1,70,1,2,70,2,187034,0,1,2,8,b,185,f,same_color,,0
1,70,1,2,70,2,187034,0,1,2,9,y,14,m,same_sex,,0
1,71,1,2,71,9,483148,0,1,2,1,b,i414wa-mn,m,target,1,1
1,71,1,2,71,9,483148,0,1,2,2,b,404,f,same_color,,0
1,71,1,2,71,9,483148,0,1,2,3,y,148,m,same_sex,,0
1,71,1,2,71,9,483148,0,1,2,4,b,791,f,same_color,,0
1,71,1,2,71,9,483148,0,1,2,5,y,34,m,same_sex,,0
1,71,1,2,71,9,483148,0,1,2,6,b,1009,f,same_color,,0
1,71,1,2,71,9,483148,0,1,2,7,y,i408xa-mn,m,same_sex,,0
1,71,1,2,71,9,483148,0,1,2,8,b,i032qa-fn,f,same_color,,0
1,71,1,2,71,9,483148,0,1,2,9,y,i438xa-mn,m,same_sex,,0
1,72,1,2,72,9,305861,1,1,2,1,b,390,f,same_color,,0
1,72,1,2,72,9,305861,1,1,2,2,y,553,m,same_sex,,0
1,72,1,2,72,9,305861,1,1,2,3,b,i615za-fn,f,same_color,,0
1,72,1,2,72,9,305861,1,1,2,4,y,100,m,same_sex,,0
1,72,1,2,72,9,305861,1,1,2,5,y,99,m,same_sex,,0
1,72,1,2,72,9,305861,1,1,2,6,b,i013qa-fn,f,same_color,,0
1,72,1,2,72,9,305861,1,1,2,7,b,670,f,same_color,,0
1,72,1,2,72,9,305861,1,1,2,8,y,1030,m,same_sex,,0
1,72,1,2,72,9,305861,1,1,2,9,b,i232ua-mn,m,target,9,1
1,73,1,2,73,3,686,1,1,2,1,b,895,f,same_color,,0
1,73,1,2,73,3,686,1,1,2,2,y,1071,m,same_sex,,0
1,73,1,2,73,3,686,1,1,2,3,b,918,m,target,3,1
1,73,1,2,73,3,686,1,1,2,4,b,i266ta-fn,f,same_color,,0
1,73,1,2,73,3,686,1,1,2,5,b,1158,f,same_color,,0
1,73,1,2,73,3,686,1,1,2,6,b,1034,f,same_color,,0
1,73,1,2,73,3,686,1,1,2,7,y,908,m,same_sex,,0
1,73,1,2,73,3,686,1,1,2,8,y,1183,m,same_sex,,0
1,73,1,2,73,3,686,1,1,2,9,y,80,m,same_sex,,0
1,74,1,2,74,1,328118,0,1,2,1,b,312,f,same_color,,0
1,74,1,2,74,1,328118,0,1,2,2,y,688,m,same_sex,,0
1,74,1,2,74,1,328118,0,1,2,3,y,1206,m,same_sex,,0
1,74,1,2,74,1,328118,0,1,2,4,y,131,m,same_sex,,0
1,74,1,2,74,1,328118,0,1,2,5,b,666,m,target,5,1
1,74,1,2,74,1,328118,0,1,2,6,y,976,m,same_sex,,0
1,74,1,2,74,1,328118,0,1,2,7,b,294,f,same_color,,0
1,74,1,2,74,1,328118,0,1,2,8,b,305,f,same_color,,0
1,74,1,2,74,1,328118,0,1,2,9,b,i275ua-fg,f,same_color,,0
1,75,1,2,75,4,926,1,1,2,1,y,1,m,same_sex,,0
1,75,1,2,75,4,926,1,1,2,2,y,998,m,same_sex,,0
1,75,1,2,75,4,926,1,1,2,3,b,878,f,same_color,,0
1,75,1,2,75,4,926,1,1,2,4,b,816,m,target,4,1
1,75,1,2,75,4,926,1,1,2,5,b,532,f,same_color,,0
1,75,1,2,75,4,926,1,1,2,6,y,552,m,same_sex,,0
1,75,1,2,75,4,926,1,1,2,7,b,i039ra-fn,f,same_color,,0
1,75,1,2,75,4,926,1,1,2,8,b,245,f,same_color,,0
1,75,1,2,75,4,926,1,1,2,9,y,898,m,same_sex,,0
1,76,1,2,76,7,668,0,1,2,1,b,1064,m,target,1,1
1,76,1,2,76,7,668,0,1,2,2,b,422,f,same_color,,0
1,76,1,2,76,7,668,0,1,2,3,b,599,f,same_color,,0
1,76,1,2,76,7,668,0,1,2,4,b,410,f,same_color,,0
1,76,1,2,76,7,668,0,1,2,5,y,i009ra-mn,m,same_sex,,0
1,76,1,2,76,7,668,0,1,2,6,y,i241ua-mn,m,same_sex,,0
1,76,1,2,76,7,668,0,1,2,7,b,435,f,same_color,,0
1,76,1,2,76,7,668,0,1,2,8,y,861,m,same_sex,,0
1,76,1,2,76,7,668,0,1,2,9,y,484,m,same_sex,,0
1,77,1,2,77,9,932,0,1,2,1,y,708,m,same_sex,,0
1,77,1,2,77,9,932,0,1,2,2,b,380,f,same_color,,0
1,77,1,2,77,9,932,0,1,2,3,y,722,m,same_sex,,0
1,77,1,2,77,9,932,0,1,2,4,b,1035,f,same_color,,0
1,77,1,2,77,9,932,0,1,2,5,y,467,m,same_sex,,0
1,77,1,2,77,9,932,0,1,2,6,b,i429xa-fn,f,same_color,,0
1,77,1,2,77,9,932,0,1,2,7,y,183,m,same_sex,,0
1,77,1,2,77,9,932,0,1,2,8,b,i243ua-mn,m,target,8,1
1,77,1,2,77,9,932,0,1,2,9,b,555,f,same_color,,0
1,78,1,2,78,4,603,0,1,2,1,y,584,m,same_sex,,0
1,78,1,2,78,4,603,0,1,2,2,y,566,m,same_sex,,0
1,78,1,2,78,4,603,0,1,2,3,y,691,m,same_sex,,0
1,78,1,2,78,4,603,0,1,2,4,b,665,f,same_color,,0
1,78,1,2,78,4,603,0,1,2,5,y,i200ua-mg,m,same_sex,,0
1,78,1,2,78,4,603,0,1,2,6,b,119,m,target,6,1
1,78,1,2,78,4,603,0,1,2,7,b,i606za-fn,f,same_color,,0
1,78,1,2,78,4,603,0,1,2,8,b,956,f,same_color,,0
1,78,1,2,78,4,603,0,1,2,9,b,981,f,same_color,,0
1,79,1,2,79,9,117859,0,1,2,1,b,1054,f,same_color,,0
1,79,1,2,79,9,117859,0,1,2,2,y,794,m,same_sex,,0
1,79,1,2,79,9,117859,0,1,2,3,y,683,m,same_sex,,0
1,79,1,2,79,9,117859,0,1,2,4,b,i262ta-fn,f,same_color,,0
1,79,1,2,79,9,117859,0,1,2,5,b,414,f,same_color,,0
1,79,1,2,79,9,117859,0,1,2,6,y,1121,m,same_sex,,0
1,79,1,2,79,9,117859,0,1,2,7,b,1081,m,target,7,1
1,79,1,2,79,9,117859,0,1,2,8,y,249,m,same_sex,,0
1,79,1,2,79,9,117859,0,1,2,9,b,639,f,same_color,,0
1,80,1,2,80,2,661,1,1,2,1,b,210,f,same_color,,0
1,80,1,2,80,2,661,1,1,2,2,b,i081ra-mn,m,target,2,1
1,80,1,2,80,2,661,1,1,2,3,y,1088,m,same_sex,,0
1,80,1,2,80,2,661,1,1,2,4,b,336,f,same_color,,0
1,80,1,2,80,2,661,1,1,2,5,y,843,m,same_sex,,0
1,80,1,2,80,2,661,1,1,2,6,y,846,m,same_sex,,0
1,80,1,2,80,2,661,1,1,2,7,b,389,f,same_color,,0
1,80,1,2,80,2,661,1,1,2,8,b,953,f,same_color,,0
1,80,1,2,80,2,661,1,1,2,9,y,i204ua-mn,m,same_sex,,0
1,81,1,2,81,4,866,1,1,2,1,b,i214ua-fn,f,same_color,,0
1,81,1,2,81,4,866,1,1,2,2,y,718,m,same_sex,,0
1,81,1,2,81,4,866,1,1,2,3,y,513,m,same_sex,,0
1,81,1,2,81,4,866,1,1,2,4,b,120,m,target,4,1
1,81,1,2,81,4,866,1,1,2,5,y,845,m,same_sex,,0
1,81,1,2,81,4,866,1,1,2,6,b,i029qa-fg,f,same_color,,0
1,81,1,2,81,4,866,1,1,2,7,y,975,m,same_sex,,0
1,81,1,2,81,4,866,1,1,2,8,b,730,f,same_color,,0
1,81,1,2,81,4,866,1,1,2,9,b,i252ta-fn,f,same_color,,0
1,82,1,2,82,1,593,1,1,2,1,b,464,m,target,1,1
1,82,1,2,82,1,593,1,1,2,2,y,595,m,same_sex,,0
1,82,1,2,82,1,593,1,1,2,3,y,94,m,same_sex,,0
1,82,1,2,82,1,593,1,1,2,4,y,1046,m,same_sex,,0
1,82,1,2,82,1,593,1,1,2,5,b,158,f,same_color,,0
1,82,1,2,82,1,593,1,1,2,6,b,650,f,same_color,,0
1,82,1,2,82,1,593,1,1,2,7,b,290,f,same_color,,0
1,82,1,2,82,1,593,1,1,2,8,y,714,m,same_sex,,0
1,82,1,2,82,1,593,1,1,2,9,b,1135,f,same_color,,0
1,83,1,2,83,9,520,1,1,2,1,y,i017qa-mg,m,same_sex,,0
1,83,1,2,83,9,520,1,1,2,2,b,379,f,same_color,,0
1,83,1,2,83,9,520,1,1,2,3,y,i267ta-mn,m,same_sex,,0
1,83,1,2,83,9,520,1,1,2,4,b,607,f,same_color,,0
1,83,1,2,83,9,520,1,1,2,5,y,478,m,same_sex,,0
1,83,1,2,83,9,520,1,1,2,6,y,982,m,same_sex,,0
1,83,1,2,83,9,520,1,1,2,7,b,125,f,same_color,,0
1,83,1,2,83,9,520,1,1,2,8,b,782,f,same_color,,0
1,83,1,2,83,9,520,1,1,2,9,b,5,m,target,9,1
1,84,1,2,84,6,276477,0,1,2,1,b,47,f,same_color,,0
1,84,1,2,84,6,276477,0,1,2,2,b,927,f,same_color,,0
1,84,1,2,84,6,276477,0,1,2,3,b,980,f,same_color,,0
1,84,1,2,84,6,276477,0,1,2,4,y,86,m,same_sex,,0
1,84,1,2,84,6,276477,0,1,2,5,y,1066,m,same_sex,,0
1,84,1,2,84,6,276477,0,1,2,6,b,850,f,same_color,,0
1,84,1,2,84,6,276477,0,1,2,7,y,24,m,same_sex,,0
1,84,1,2,84,6,276477,0,1,2,8,y,931,m,same_sex,,0
1,84,1,2,84,6,276477,0,1,2,9,b,70,m,target,9,1
1,85,1,2,85,4,811,0,1,2,1,y,732,m,same_sex,,0
1,85,1,2,85,4,811,0,1,2,2,b,920,f,same_color,,0
1,85,1,2,85,4,811,0,1,2,3,y,901,m,same_sex,,0
1,85,1,2,85,4,811,0,1,2,4,b,409,f,same_color,,0
1,85,1,2,85,4,811,0,1,2,5,b,187,m,target,5,1
1,85,1,2,85,4,811,0,1,2,6,y,i224ta-mn,m,same_sex,,0
1,85,1,2,85,4,811,0,1,2,7,y,594,m,same_sex,,0
1,85,1,2,85,4,811,0,1,2,8,b,574,f,same_color,,0
1,85,1,2,85,4,811,0,1,2,9,b,175,f,same_color,,0
1,86,1,2,86,7,652,1,1,2,1,b,365,f,same_color,,0
1,86,1,2,86,7,652,1,1,2,2,y,677,m,same_sex,,0
1,86,1,2,86,7,652,1,1,2,3,y,774,m,same_sex,,0
1,86,1,2,86,7,652,1,1,2,4,b,i057ra-fn,f,same_color,,0
1,86,1,2,86,7,652,1,1,2,5,y,706,m,same_sex,,0
1,86,1,2,86,7,652,1,1,2,6,b,951,f,same_color,,0
1,86,1,2,86,7,652,1,1,2,7,b,854,m,target,7,1
1,86,1,2,86,7,652,1,1,2,8,y,1039,m,same_sex,,0
1,86,1,2,86,7,652,1,1,2,9,b,i302ta-fn,f,same_color,,0
1,87,1,2,87,9,108065,1,1,2,1,y,1190,m,same_sex,,0
1,87,1,2,87,9,108065,1,1,2,2,y,1062,m,same_sex,,0
1,87,1,2,87,9,108065,1,1,2,3,y,115,m,same_sex,,0
1,87,1,2,87,9,108065,1,1,2,4,b,781,f,same_color,,0
1,87,1,2,87,9,108065,1,1,2,5,b,101,f,same_color,,0
1,87,1,2,87,9,108065,1,1,2,6,y,1141,m,same_sex,,0
1,87,1,2,87,9,108065,1,1,2,7,b,416,f,same_color,,0
1,87,1,2,87,9,108065,1,1,2,8,b,i284ta-fg,f,same_color,,0
1,87,1,2,87,9,108065,1,1,2,9,b,174,m,target,9,1
1,88,1,2,88,2,579,1,1,2,1,y,i419xa-mn,m,same_sex,,0
1,88,1,2,88,2,579,1,1,2,2,b,1123,m,target,2,1
1,88,1,2,88,2,579,1,1,2,3,y,729,m,same_sex,,0
1,88,1,2,88,2,579,1,1,2,4,y,977,m,same_sex,,0
1,88,1,2,88,2,579,1,1,2,5,y,i412xa-mn,m,same_sex,,0
1,88,1,2,88,2,579,1,1,2,6,b,i403wa-fn,f,same_color,,0
1,88,1,2,88,2,579,1,1,2,7,b,556,f,same_color,,0
1,88,1,2,88,2,579,1,1,2,8,b,1017,f,same_color,,0
1,88,1,2,88,2,579,1,1,2,9,b,745,f,same_color,,0
1,89,1,2,89,6,145124,0,1,2,1,b,1167,f,same_color,,0
1,89,1,2,89,6,145124,0,1,2,2,b,993,f,same_color,,0
1,89,1,2,89,6,145124,0,1,2,3,b,393,f,same_color,,0
1,89,1,2,89,6,145124,0,1,2,4,b,592,m,target,4,1
1,89,1,2,89,6,145124,0,1,2,5,y,4,m,same_sex,,0
1,89,1,2,89,6,145124,0,1,2,6,b,487,f,same_color,,0
1,89,1,2,89,6,145124,0,1,2,7,y,892,m,same_sex,,0
1,89,1,2,89,6,145124,0,1,2,8,y,i450xa-mn,m,same_sex,,0
1,89,1,2,89,6,145124,0,1,2,9,y,i089qa-mn,m,same_sex,,0
1,90,1,2,90,4,608,1,1,2,1,b,i279ua-fn,f,same_color,,0
1,90,1,2,90,4,608,1,1,2,2,b,731,f,same_color,,0
1,90,1,2,90,4,608,1,1,2,3,y,578,m,same_sex,,0
1,90,1,2,90,4,608,1,1,2,4,b,146,m,target,4,1
1,90,1,2,90,4,608,1,1,2,5,b,1011,f,same_color,,0
1,90,1,2,90,4,608,1,1,2,6,y,926,m,same_sex,,0
1,90,1,2,90,4,608,1,1,2,7,y,750,m,same_sex,,0
1,90,1,2,90,4,608,1,1,2,8,b,1044,f,same_color,,0
1,90,1,2,90,4,608,1,1,2,9,y,341,m,same_sex,,0
1,91,1,2,91,6,696,1,1,2,1,b,316,f,same_color,,0
1,91,1,2,91,6,696,1,1,2,2,y,i225ua-mn,m,same_sex,,0
1,91,1,2,91,6,696,1,1,2,3,y,856,m,same_sex,,0
1,91,1,2,91,6,696,1,1,2,4,b,1174,f,same_color,,0
1,91,1,2,91,6,696,1,1,2,5,y,165,m,same_sex,,0
1,91,1,2,91,6,696,1,1,2,6,b,776,m,target,6,1
1,91,1,2,91,6,696,1,1,2,7,b,i401xa-fn,f,same_color,,0
1,91,1,2,91,6,696,1,1,2,8,b,1106,f,same_color,,0
1,91,1,2,91,6,696,1,1,2,9,y,735,m,same_sex,,0
1,92,1,2,92,1,595,1,1,2,1,b,621,m,target,1,1
1,92,1,2,92,1,595,1,1,2,2,b,569,f,same_color,,0
1,92,1,2,92,1,595,1,1,2,3,b,719,f,same_color,,0
1,92,1,2,92,1,595,1,1,2,4,b,655,f,same_color,,0
1,92,1,2,92,1,595,1,1,2,5,b,562,f,same_color,,0
1,92,1,2,92,1,595,1,1,2,6,y,300,m,same_sex,,0
1,92,1,2,92,1,595,1,1,2,7,y,216,m,same_sex,,0
1,92,1,2,92,1,595,1,1,2,8,y,1015,m,same_sex,,0
1,92,1,2,92,1,595,1,1,2,9,y,1038,m,same_sex,,0
1,93,1,2,93,8,966,0,1,2,1,y,217,m,same_sex,,0
1,93,1,2,93,8,966,0,1,2,2,y,747,m,same_sex,,0
1,93,1,2,93,8,966,0,1,2,3,y,59,m,same_sex,,0
1,93,1,2,93,8,966,0,1,2,4,y,488,m,same_sex,,0
1,93,1,2,93,8,966,0,1,2,5,b,786,f,same_color,,0
1,93,1,2,93,8,966,0,1,2,6,b,i298ua-fn,f,same_color,,0
1,93,1,2,93,8,966,0,1,2,7,b,i227ua-mn,m,target,7,1
1,93,1,2,93,8,966,0,1,2,8,b,315,f,same_color,,0
1,93,1,2,93,8,966,0,1,2,9,b,413,f,same_color,,0
1,94,1,2,94,6,17162,1,1,2,1,b,342,f,same_color,,0
1,94,1,2,94,6,17162,1,1,2,2,y,1012,m,same_sex,,0
1,94,1,2,94,6,17162,1,1,2,3,b,944,f,same_color,,0
1,94,1,2,94,6,17162,1,1,2,4,b,429,f,same_color,,0
1,94,1,2,94,6,17162,1,1,2,5,y,48,m,same_sex,,0
1,94,1,2,94,6,17162,1,1,2,6,b,712,m,target,6,1
1,94,1,2,94,6,17162,1,1,2,7,y,772,m,same_sex,,0
1,94,1,2,94,6,17162,1,1,2,8,y,726,m,same_sex,,0
1,94,1,2,94,6,17162,1,1,2,9,b,27,f,same_color,,0
1,95,1,2,95,4,628,1,1,2,1,b,198,f,same_color,,0
1,95,1,2,95,4,628,1,1,2,2,b,i024qa-fn,f,same_color,,0
1,95,1,2,95,4,628,1,1,2,3,y,1104,m,same_sex,,0
1,95,1,2,95,4,628,1,1,2,4,b,i010qa-mn,m,target,4,1
1,95,1,2,95,4,628,1,1,2,5,y,517,m,same_sex,,0
1,95,1,2,95,4,628,1,1,2,6,y,763,m,same_sex,,0
1,95,1,2,95,4,628,1,1,2,7,b,145,f,same_color,,0
1,95,1,2,95,4,628,1,1,2,8,b,469,f,same_color,,0
1,95,1,2,95,4,628,1,1,2,9,y,1113,m,same_sex,,0
1,96,1,2,96,8,590,1,1,2,1,y,593,m,same_sex,,0
1,96,1,2,96,8,590,1,1,2,2,b,780,f,same_color,,0
1,96,1,2,96,8,590,1,1,2,3,b,259,f,same_color,,0
1,96,1,2,96,8,590,1,1,2,4,y,i040qa-mn,m,same_sex,,0
1,96,1,2,96,8,590,1,1,2,5,b,i603ya-fn,f,same_color,,0
1,96,1,2,96,8,590,1,1,2,6,y,825,m,same_sex,,0
1,96,1,2,96,8,590,1,1,2,7,b,446,f,same_color,,0
1,96,1,2,96,8,590,1,1,2,8,b,754,m,target,8,1
1,96,1,2,96,8,590,1,1,2,9,y,790,m,same_sex,,0
1,97,1,2,97,6,746,1,1,2,1,b,61,f,same_color,,0
1,97,1,2,97,6,746,1,1,2,2,y,580,m,same_sex,,0
1,97,1,2,97,6,746,1,1,2,3,y,i056qa-mn,m,same_sex,,0
1,97,1,2,97,6,746,1,1,2,4,y,1187,m,same_sex,,0
1,97,1,2,97,6,746,1,1,2,5,b,579,f,same_color,,0
1,97,1,2,97,6,746,1,1,2,6,b,287,m,target,6,1
1,97,1,2,97,6,746,1,1,2,7,b,430,f,same_color,,0
1,97,1,2,97,6,746,1,1,2,8,b,i233ta-fn,f,same_color,,0
1,97,1,2,97,6,746,1,1,2,9,y,222,m,same_sex,,0
1,98,1,2,98,9,741,1,1,2,1,y,812,m,same_sex,,0
1,98,1,2,98,9,741,1,1,2,2,y,358,m,same_sex,,0
1,98,1,2,98,9,741,1,1,2,3,b,190,f,same_color,,0
1,98,1,2,98,9,741,1,1,2,4,b,1195,f,same_color,,0
1,98,1,2,98,9,741,1,1,2,5,b,90,f,same_color,,0
1,98,1,2,98,9,741,1,1,2,6,y,i079ra-mn,m,same_sex,,0
1,98,1,2,98,9,741,1,1,2,7,b,i608za-fn,f,same_color,,0
1,98,1,2,98,9,741,1,1,2,8,y,i287ta-mn,m,same_sex,,0
1,98,1,2,98,9,741,1,1,2,9,b,775,m,target,9,1
1,99,1,2,99,8,554,1,1,2,1,b,647,f,same_color,,0
1,99,1,2,99,8,554,1,1,2,2,y,471,m,same_sex,,0
1,99,1,2,99,8,554,1,1,2,3,b,1176,f,same_color,,0
1,99,1,2,99,8,554,1,1,2,4,y,220,m,same_sex,,0
1,99,1,2,99,8,554,1,1,2,5,b,630,f,same_color,,0
1,99,1,2,99,8,554,1,1,2,6,y,12,m,same_sex,,0
1,99,1,2,99,8,554,1,1,2,7,y,i073ra-mg,m,same_sex,,0
1,99,1,2,99,8,554,1,1,2,8,b,359,m,target,8,1
1,99,1,2,99,8,554,1,1,2,9,b,i422wa-fn,f,same_color,,0
1,100,1,2,100,5,107053,1,1,2,1,b,i415xa-fn,f,same_color,,0
1,100,1,2,100,5,107053,1,1,2,2,b,202,f,same_color,,0
1,100,1,2,100,5,107053,1,1,2,3,b,466,f,same_color,,0
1,100,1,2,100,5,107053,1,1,2,4,y,859,m,same_sex,,0
1,100,1,2,100,5,107053,1,1,2,5,b,1014,m,target,5,1
1,100,1,2,100,5,107053,1,1,2,6,b,92,f,same_color,,0
1,100,1,2,100,5,107053,1,1,2,7,y,i277ua-mg,m,same_sex,,0
1,100,1,2,100,5,107053,1,1,2,8,y,1005,m,same_sex,,0
1,100,1,2,100,5,107053,1,1,2,9,y,1149,m,same_sex,,0
1,101,1,2,101,2,160558,0,1,2,1,b,199,m,target,1,1
1,101,1,2,101,2,160558,0,1,2,2,b,i281ua-fn,f,same_color,,0
1,101,1,2,101,2,160558,0,1,2,3,y,153,m,same_sex,,0
1,101,1,2,101,2,160558,0,1,2,4,y,939,m,same_sex,,0
1,101,1,2,101,2,160558,0,1,2,5,y,756,m,same_sex,,0
1,101,1,2,101,2,160558,0,1,2,6,b,276,f,same_color,,0
1,101,1,2,101,2,160558,0,1,2,7,b,560,f,same_color,,0
1,101,1,2,101,2,160558,0,1,2,8,y,924,m,same_sex,,0
1,101,1,2,101,2,160558,0,1,2,9,b,326,f,same_color,,0
1,102,1,2,102,7,502,1,1,2,1,b,1118,f,same_color,,0
1,102,1,2,102,7,502,1,1,2,2,b,i434wa-fn,f,same_color,,0
1,102,1,2,102,7,502,1,1,2,3,b,366,f,same_color,,0
1,102,1,2,102,7,502,1,1,2,4,y,186,m,same_sex,,0
1,102,1,2,102,7,502,1,1,2,5,y,i066ra-mn,m,same_sex,,0
1,102,1,2,102,7,502,1,1,2,6,y,i054ra-mg,m,same_sex,,0
1,102,1,2,102,7,502,1,1,2,7,b,7,m,target,7,1
1,102,1,2,102,7,502,1,1,2,8,b,439,f,same_color,,0
1,102,1,2,102,7,502,1,1,2,9,y,333,m,same_sex,,0
1,103,1,2,103,5,348329,1,1,2,1,b,239,f,same_color,,0
1,103,1,2,103,5,348329,1,1,2,2,y,1129,m,same_sex,,0
1,103,1,2,103,5,348329,1,1,2,3,b,472,f,same_color,,0
1,103,1,2,103,5,348329,1,1,2,4,b,98,f,same_color,,0
1,103,1,2,103,5,348329,1,1,2,5,b,i264ta-mn,m,target,5,1
1,103,1,2,103,5,348329,1,1,2,6,y,766,m,same_sex,,0
1,103,1,2,103,5,348329,1,1,2,7,b,278,f,same_color,,0
1,103,1,2,103,5,348329,1,1,2,8,y,527,m,same_sex,,0
1,103,1,2,103,5,348329,1,1,2,9,y,303,m,same_sex,,0
1,104,1,2,104,9,803,0,1,2,1,b,411,f,same_color,,0
1,104,1,2,104,9,803,0,1,2,2,y,i274ta-mn,m,same_sex,,0
1,104,1,2,104,9,803,0,1,2,3,y,1192,m,same_sex,,0
1,104,1,2,104,9,803,0,1,2,4,y,542,m,same_sex,,0
1,104,1,2,104,9,803,0,1,2,5,b,915,f,same_color,,0
1,104,1,2,104,9,803,0,1,2,6,b,i448xa-fn,f,same_color,,0
1,104,1,2,104,9,803,0,1,2,7,b,1013,f,same_color,,0
1,104,1,2,104,9,803,0,1,2,8,b,301,m,target,8,1
1,104,1,2,104,9,803,0,1,2,9,y,200,m,same_sex,,0
1,105,1,2,105,4,529,0,1,2,1,y,1110,m,same_sex,,0
1,105,1,2,105,4,529,0,1,2,2,b,805,m,target,2,1
1,105,1,2,105,4,529,0,1,2,3,y,i244ta-mn,m,same_sex,,0
1,105,1,2,105,4,529,0,1,2,4,b,212,f,same_color,,0
1,105,1,2,105,4,529,0,1,2,5,b,i235ua-fn,f,same_color,,0
1,105,1,2,105,4,529,0,1,2,6,b,1134,f,same_color,,0
1,105,1,2,105,4,529,0,1,2,7,y,897,m,same_sex,,0
1,105,1,2,105,4,529,0,1,2,8,b,149,f,same_color,,0
1,105,1,2,105,4,529,0,1,2,9,y,1105,m,same_sex,,0
2,1,1,1,106,5,605,1,2,2,1,y,41,f,same_color,,0
2,1,1,1,106,5,605,1,2,2,2,b,79,m,same_sex,,0
2,1,1,1,106,5,605,1,2,2,3,y,60,f,same_color,,0
2,1,1,1,106,5,605,1,2,2,4,y,75,f,same_color,,0
2,1,1,1,106,5,605,1,2,2,5,y,68,m,target,5,1
2,1,1,1,106,5,605,1,2,2,6,b,25,m,same_sex,,0
2,1,1,1,106,5,605,1,2,2,7,b,2,m,same_sex,,0
2,1,1,1,106,5,605,1,2,2,8,y,90,f,same_color,,0
2,1,1,1,106,5,605,1,2,2,9,b,9,m,same_sex,,0
2,2,1,1,107,9,4954,0,2,2,1,y,17,m,target,1,1
2,2,1,1,107,9,4954,0,2,2,2,y,49,f,same_color,,0
2,2,1,1,107,9,4954,0,2,2,3,y,56,f,same_color,,0
2,2,1,1,107,9,4954,0,2,2,4,b,46,m,same_sex,,0
2,2,1,1,107,9,4954,0,2,2,5,b,40,m,same_sex,,0
2,2,1,1,107,9,4954,0,2,2,6,b,12,m,same_sex,,0
2,2,1,1,107,9,4954,0,2,2,7,b,28,m,same_sex,,0
2,2,1,1,107,9,4954,0,2,2,8,y,32,f,same_color,,0
2,2,1,1,107,9,4954,0,2,2,9,y,15,f,same_color,,0
2,3,1,1,108,2,2274,0,2,2,1,b,80,m,same_sex,,0
2,3,1,1,108,2,2274,0,2,2,2,y,73,f,same_color,,0
2,3,1,1,108,2,2274,0,2,2,3,y,39,m,target,3,1
2,3,1,1,108,2,2274,0,2,2,4,b,21,m,same_sex,,0
2,3,1,1,108,2,2274,0,2,2,5,y,47,f,same_color,,0
2,3,1,1,108,2,2274,0,2,2,6,b,43,m,same_sex,,0
2,3,1,1,108,2,2274,0,2,2,7,y,70,f,same_color,,0
2,3,1,1,108,2,2274,0,2,2,8,y,66,f,same_color,,0
2,3,1,1,108,2,2274,0,2,2,9,b,22,m,same_sex,,0
2,4,1,1,109,4,3135,1,2,2,1,y,58,f,same_color,,0
2,4,1,1,109,4,3135,1,2,2,2,b,30,m,same_sex,,0
2,4,1,1,109,4,3135,1,2,2,3,b,53,m,same_sex,,0
2,4,1,1,109,4,3135,1,2,2,4,y,76,m,target,4,1
2,4,1,1,109,4,3135,1,2,2,5,b,11,m,same_sex,,0
2,4,1,1,109,4,3135,1,2,2,6,y,3,f,same_color,,0
2,4,1,1,109,4,3135,1,2,2,7,b,72,m,same_sex,,0
2,4,1,1,109,4,3135,1,2,2,8,y,55,f,same_color,,0
2,4,1,1,109,4,3135,1,2,2,9,y,61,f,same_color,,0
2,5,1,1,110,2,1553,1,2,2,1,y,31,f,same_color,,0
2,5,1,1,110,2,1553,1,2,2,2,y,24,m,target,2,1
2,5,1,1,110,2,1553,1,2,2,3,y,67,f,same_color,,0
2,5,1,1,110,2,1553,1,2,2,4,b,85,m,same_sex,,0
2,5,1,1,110,2,1553,1,2,2,5,b,1,m,same_sex,,0
2,5,1,1,110,2,1553,1,2,2,6,y,83,f,same_color,,0
2,5,1,1,110,2,1553,1,2,2,7,y,63,f,same_color,,0
2,5,1,1,110,2,1553,1,2,2,8,b,89,m,same_sex,,0
2,5,1,1,110,2,1553,1,2,2,9,b,54,m,same_sex,,0
2,6,1,1,111,7,952,1,2,2,1,b,i288ta-mn,m,same_sex,,0
2,6,1,1,111,7,952,1,2,2,2,y,1094,f,same_color,,0
2,6,1,1,111,7,952,1,2,2,3,y,1042,f,same_color,,0
2,6,1,1,111,7,952,1,2,2,4,b,0664,m,same_sex,,0
2,6,1,1,111,7,952,1,2,2,5,y,0403,f,same_color,,0
2,6,1,1,111,7,952,1,2,2,6,y,0208,f,same_color,,0
2,6,1,1,111,7,952,1,2,2,7,y,0724,m,target,7,1
2,6,1,1,111,7,952,1,2,2,8,b,0237,m,same_sex,,0
2,6,1,1,111,7,952,1,2,2,9,b,0362,m,same_sex,,0
2,7,1,1,112,9,3618,0,2,2,1,y,0318,m,target,1,1
2,7,1,1,112,9,3618,0,2,2,2,b,i273ua-mn,m,same_sex,,0
2,7,1,1,112,9,3618,0,2,2,3,b,i036qa-mg,m,same_sex,,0
2,7,1,1,112,9,3618,0,2,2,4,y,0728,f,same_color,,0
2,7,1,1,112,9,3618,0,2,2,5,y,i435xa-fn,f,same_color,,0
2,7,1,1,112,9,3618,0,2,2,6,b,0512,m,same_sex,,0
2,7,1,1,112,9,3618,0,2,2,7,y,0277,f,same_color,,0
2,7,1,1,112,9,3618,0,2,2,8,y,0154,f,same_color,,0
2,7,1,1,112,9,3618,0,2,2,9,b,0283,m,same_sex,,0
2,8,1,1,113,3,4201,0,2,2,1,b,i045qa-mn,m,same_sex,,0
2,8,1,1,113,3,4201,0,2,2,2,y,0910,f,same_color,,0
2,8,1,1,113,3,4201,0,2,2,3,y,0661,f,same_color,,0
2,8,1,1,113,3,4201,0,2,2,4,b,0899,m,same_sex,,0
2,8,1,1,113,3,4201,0,2,2,5,b,0673,m,same_sex,,0
2,8,1,1,113,3,4201,0,2,2,6,y,0386,f,same_color,,0
2,8,1,1,113,3,4201,0,2,2,7,y,1160,f,same_color,,0
2,8,1,1,113,3,4201,0,2,2,8,y,0172,m,target,8,1
2,8,1,1,113,3,4201,0,2,2,9,b,i201ua-mg,m,same_sex,,0
2,9,1,1,114,6,576,1,2,2,1,b,i289ta-mg,m,same_sex,,0
2,9,1,1,114,6,576,1,2,2,2,b,1063,m,same_sex,,0
2,9,1,1,114,6,576,1,2,2,3,b,i064ra-mn,m,same_sex,,0
2,9,1,1,114,6,576,1,2,2,4,y,i007ra-fn,f,same_color,,0
2,9,1,1,114,6,576,1,2,2,5,y,0452,f,same_color,,0
2,9,1,1,114,6,576,1,2,2,6,y,0297,m,target,6,1
2,9,1,1,114,6,576,1,2,2,7,y,1075,f,same_color,,0
2,9,1,1,114,6,576,1,2,2,8,b,i307ta-mg,m,same_sex,,0
2,9,1,1,114,6,576,1,2,2,9,y,0681,f,same_color,,0
2,10,1,1,115,9,3522,0,2,2,1,y,0020,f,same_color,,0
2,10,1,1,115,9,3522,0,2,2,2,b,0625,m,same_sex,,0
2,10,1,1,115,9,3522,0,2,2,3,b,0833,m,same_sex,,0
2,10,1,1,115,9,3522,0,2,2,4,y,0375,f,same_color,,0
2,10,1,1,115,9,3522,0,2,2,5,y,0646,m,target,5,1
2,10,1,1,115,9,3522,0,2,2,6,b,0696,m,same_sex,,0
2,10,1,1,115,9,3522,0,2,2,7,y,0568,f,same_color,,0
2,10,1,1,115,9,3522,0,2,2,8,b,0674,m,same_sex,,0
2,10,1,1,115,9,3522,0,2,2,9,y,i076ra-fn,f,same_color,,0
2,11,1,1,116,7,3915,1,2,2,1,b,1033,m,same_sex,,0
2,11,1,1,116,7,3915,1,2,2,2,y,0537,f,same_color,,0
2,11,1,1,116,7,3915,1,2,2,3,y,0441,f,same_color,,0
2,11,1,1,116,7,3915,1,2,2,4,b,i260ta-mn,m,same_sex,,0
2,11,1,1,116,7,3915,1,2,2,5,b,0950,m,same_sex,,0
2,11,1,1,116,7,3915,1,2,2,6,y,1181,f,same_color,,0
2,11,1,1,116,7,3915,1,2,2,7,y,0985,m,target,7,1
2,11,1,1,116,7,3915,1,2,2,8,b,0167,m,same_sex,,0
2,11,1,1,116,7,3915,1,2,2,9,y,0675,f,same_color,,0
2,12,1,1,117,9,4256,0,2,2,1,b,0968,m,same_sex,,0
2,12,1,1,117,9,4256,0,2,2,2,b,0615,m,same_sex,,0
2,12,1,1,117,9,4256,0,2,2,3,b,1109,m,same_sex,,0
2,12,1,1,117,9,4256,0,2,2,4,y,0653,f,same_color,,0
2,12,1,1,117,9,4256,0,2,2,5,b,0585,m,same_sex,,0
2,12,1,1,117,9,4256,0,2,2,6,y,0224,f,same_color,,0
2,12,1,1,117,9,4256,0,2,2,7,y,1132,f,same_color,,0
2,12,1,1,117,9,4256,0,2,2,8,y,0461,m,target,8,1
2,12,1,1,117,9,4256,0,2,2,9,y,i272ta-fg,f,same_color,,0
2,13,1,1,118,6,546,0,2,2,1,y,0221,f,same_color,,0
2,13,1,1,118,6,546,0,2,2,2,y,0426,f,same_color,,0
2,13,1,1,118,6,546,0,2,2,3,y,1100,m,target,3,1
2,13,1,1,118,6,546,0,2,2,4,b,1055,m,same_sex,,0
2,13,1,1,118,6,546,0,2,2,5,b,0767,m,same_sex,,0
2,13,1,1,118,6,546,0,2,2,6,b,0274,m,same_sex,,0
2,13,1,1,118,6,546,0,2,2,7,y,0211,f,same_color,,0
2,13,1,1,118,6,546,0,2,2,8,b,1143,m,same_sex,,0
2,13,1,1,118,6,546,0,2,2,9,y,0448,f,same_color,,0
2,14,1,1,119,3,3134,1,2,2,1,b,0741,m,same_sex,,0
2,14,1,1,119,3,3134,1,2,2,2,y,0084,f,same_color,,0
2,14,1,1,119,3,3134,1,2,2,3,y,0037,m,target,3,1
2,14,1,1,119,3,3134,1,2,2,4,y,0147,f,same_color,,0
2,14,1,1,119,3,3134,1,2,2,5,b,0582,m,same_sex,,0
2,14,1,1,119,3,3134,1,2,2,6,y,0564,f,same_color,,0
2,14,1,1,119,3,3134,1,2,2,7,b,0759,m,same_sex,,0
2,14,1,1,119,3,3134,1,2,2,8,b,0142,m,same_sex,,0
2,14,1,1,119,3,3134,1,2,2,9,y,0306,f,same_color,,0
2,15,1,1,120,9,3110,1,2,2,1,y,0510,f,same_color,,0
2,15,1,1,120,9,3110,1,2,2,2,b,0496,m,same_sex,,0
2,15,1,1,120,9,3110,1,2,2,3,y,i409wa-fg,f,same_color,,0
2,15,1,1,120,9,3110,1,2,2,4,b,0335,m,same_sex,,0
2,15,1,1,120,9,3110,1,2,2,5,y,0549,f,same_color,,0
2,15,1,1,120,9,3110,1,2,2,6,y,0425,f,same_color,,0
2,15,1,1,120,9,3110,1,2,2,7,b,1186,m,same_sex,,0
2,15,1,1,120,9,3110,1,2,2,8,b,0819,m,same_sex,,0
2,15,1,1,120,9,3110,1,2,2,9,y,1037,m,target,9,1
2,16,1,1,121,5,1306,1,2,2,1,y,1152,f,same_color,,0
2,16,1,1,121,5,1306,1,2,2,2,y,0815,f,same_color,,0
2,16,1,1,121,5,1306,1,2,2,3,b,0531,m,same_sex,,0
2,16,1,1,121,5,1306,1,2,2,4,y,i046qa-fn,f,same_color,,0
2,16,1,1,121,5,1306,1,2,2,5,y,0693,m,target,5,1
2,16,1,1,121,5,1306,1,2,2,6,b,0248,m,same_sex,,0
2,16,1,1,121,5,1306,1,2,2,7,b,i405xa-fn,m,same_sex,,0
2,16,1,1,121,5,1306,1,2,2,8,y,0725,f,same_color,,0
2,16,1,1,121,5,1306,1,2,2,9,b,0748,m,same_sex,,0
2,17,1,1,122,9,273,1,2,2,1,y,1059,f,same_color,,0
2,17,1,1,122,9,273,1,2,2,2,y,0408,f,same_color,,0
2,17,1,1,122,9,273,1,2,2,3,b,0865,m,same_sex,,0
2,17,1,1,122,9,273,1,2,2,4,b,i242ta-mn,m,same_sex,,0
2,17,1,1,122,9,273,1,2,2,5,y,0238,f,same_color,,0
2,17,1,1,122,9,273,1,2,2,6,b,0063,m,same_sex,,0
2,17,1,1,122,9,273,1,2,2,7,b,0987,m,same_sex,,0
2,17,1,1,122,9,273,1,2,2,8,y,0837,f,same_color,,0
2,17,1,1,122,9,273,1,2,2,9,y,0323,m,target,9,1
2,18,1,1,123,9,3710,0,2,2,1,y,i602za-mn,m,target,1,1
2,18,1,1,123,9,3710,0,2,2,2,y,0559,f,same_color,,0
2,18,1,1,123,9,3710,0,2,2,3,b,i034qa-mg,m,same_sex,,0
2,18,1,1,123,9,3710,0,2,2,4,b,0999,m,same_sex,,0
2,18,1,1,123,9,3710,0,2,2,5,b,0929,m,same_sex,,0
2,18,1,1,123,9,3710,0,2,2,6,y,0638,f,same_color,,0
2,18,1,1,123,9,3710,0,2,2,7,b,0137,m,same_sex,,0
2,18,1,1,123,9,3710,0,2,2,8,y,1102,f,same_color,,0
2,18,1,1,123,9,3710,0,2,2,9,y,1146,f,same_color,,0
2,19,1,1,124,4,472,1,2,2,1,b,0678,m,same_sex,,0
2,19,1,1,124,4,472,1,2,2,2,b,0520,m,same_sex,,0
2,19,1,1,124,4,472,1,2,2,3,y,0041,f,same_color,,0
2,19,1,1,124,4,472,1,2,2,4,y,1125,m,target,4,1
2,19,1,1,124,4,472,1,2,2,5,b,0345,m,same_sex,,0
2,19,1,1,124,4,472,1,2,2,6,y,i444xa-fn,f,same_color,,0
2,19,1,1,124,4,472,1,2,2,7,y,i446wa-fn,f,same_color,,0
2,19,1,1,124,4,472,1,2,2,8,y,0840,f,same_color,,0
2,19,1,1,124,4,472,1,2,2,9,b,0501,m,same_sex,,0
2,20,1,1,125,3,192,1,2,2,1,b,0370,m,same_sex,,0
2,20,1,1,125,3,192,1,2,2,2,b,0050,m,same_sex,,0
2,20,1,1,125,3,192,1,2,2,3,y,1172,m,target,3,1
2,20,1,1,125,3,192,1,2,2,4,y,0662,f,same_color,,0
2,20,1,1,125,3,192,1,2,2,5,y,0541,f,same_color,,0
2,20,1,1,125,3,192,1,2,2,6,y,0663,f,same_color,,0
2,20,1,1,125,3,192,1,2,2,7,b,0991,m,same_sex,,0
2,20,1,1,125,3,192,1,2,2,8,y,0262,f,same_color,,0
2,20,1,1,125,3,192,1,2,2,9,b,0588,m,same_sex,,0
2,21,1,1,126,8,471,1,2,2,1,b,0258,m,same_sex,,0
2,21,1,1,126,8,471,1,2,2,2,y,0293,f,same_color,,0
2,21,1,1,126,8,471,1,2,2,3,b,1124,m,same_sex,,0
2,21,1,1,126,8,471,1,2,2,4,y,1191,f,same_color,,0
2,21,1,1,126,8,471,1,2,2,5,b,i044qa-mn,m,same_sex,,0
2,21,1,1,126,8,471,1,2,2,6,y,0419,f,same_color,,0
2,21,1,1,126,8,471,1,2,2,7,y,1101,f,same_color,,0
2,21,1,1,126,8,471,1,2,2,8,y,0486,m,target,8,1
2,21,1,1,126,8,471,1,2,2,9,b,0139,m,same_sex,,0
2,22,1,1,127,9,2870,1,2,2,1,b,0241,m,same_sex,,0
2,22,1,1,127,9,2870,1,2,2,2,y,0547,f,same_color,,0
2,22,1,1,127,9,2870,1,2,2,3,y,i291ua-fg,f,same_color,,0
2,22,1,1,127,9,2870,1,2,2,4,y,0032,f,same_color,,0
2,22,1,1,127,9,2870,1,2,2,5,b,0282,m,same_sex,,0
2,22,1,1,127,9,2870,1,2,2,6,b,0988,m,same_sex,,0
2,22,1,1,127,9,2870,1,2,2,7,y,0072,f,same_color,,0
2,22,1,1,127,9,2870,1,2,2,8,b,0462,m,same_sex,,0
2,22,1,1,127,9,2870,1,2,2,9,y,i006ra-mn,m,target,9,1
2,23,1,1,128,7,3257,0,2,2,1,b,0193,m,same_sex,,0
2,23,1,1,128,7,3257,0,2,2,2,y,0600,f,same_color,,0
2,23,1,1,128,7,3257,0,2,2,3,y,1103,f,same_color,,0
2,23,1,1,128,7,3257,0,2,2,4,b,i025ra-mn,m,same_sex,,0
2,23,1,1,128,7,3257,0,2,2,5,b,0952,m,same_sex,,0
2,23,1,1,128,7,3257,0,2,2,6,y,0637,f,same_color,,0
2,23,1,1,128,7,3257,0,2,2,7,y,0969,f,same_color,,0
2,23,1,1,128,7,3257,0,2,2,8,y,1201,m,target,8,1
2,23,1,1,128,7,3257,0,2,2,9,b,0888,m,same_sex,,0
2,24,1,1,129,6,4550,0,2,2,1,b,0679,m,same_sex,,0
2,24,1,1,129,6,4550,0,2,2,2,y,0010,m,target,2,1
2,24,1,1,129,6,4550,0,2,2,3,b,0876,m,same_sex,,0
2,24,1,1,129,6,4550,0,2,2,4,b,0272,m,same_sex,,0
2,24,1,1,129,6,4550,0,2,2,5,b,0169,m,same_sex,,0
2,24,1,1,129,6,4550,0,2,2,6,y,0720,f,same_color,,0
2,24,1,1,129,6,4550,0,2,2,7,y,0634,f,same_color,,0
2,24,1,1,129,6,4550,0,2,2,8,y,0177,f,same_color,,0
2,24,1,1,129,6,4550,0,2,2,9,y,i428wa-fn,f,same_color,,0
2,25,1,1,130,5,2042,1,2,2,1,b,0213,m,same_sex,,0
2,25,1,1,130,5,2042,1,2,2,2,b,0114,m,same_sex,,0
2,25,1,1,130,5,2042,1,2,2,3,b,0011,m,same_sex,,0
2,25,1,1,130,5,2042,1,2,2,4,y,0974,f,same_color,,0
2,25,1,1,130,5,2042,1,2,2,5,y,0503,m,target,5,1
2,25,1,1,130,5,2042,1,2,2,6,y,0423,f,same_color,,0
2,25,1,1,130,5,2042,1,2,2,7,b,0857,m,same_sex,,0
2,25,1,1,130,5,2042,1,2,2,8,y,1117,f,same_color,,0
2,25,1,1,130,5,2042,1,2,2,9,y,0317,f,same_color,,0
2,26,1,1,131,1,3313,0,2,2,1,y,i026qa-fn,f,same_color,,0
2,26,1,1,131,1,3313,0,2,2,2,y,0456,f,same_color,,0
2,26,1,1,131,1,3313,0,2,2,3,y,0304,m,target,3,1
2,26,1,1,131,1,3313,0,2,2,4,y,1133,f,same_color,,0
2,26,1,1,131,1,3313,0,2,2,5,b,0828,m,same_sex,,0
2,26,1,1,131,1,3313,0,2,2,6,b,0320,m,same_sex,,0
2,26,1,1,131,1,3313,0,2,2,7,b,0608,m,same_sex,,0
2,26,1,1,131,1,3313,0,2,2,8,b,0907,m,same_sex,,0
2,26,1,1,131,1,3313,0,2,2,9,y,1057,f,same_color,,0
2,27,1,1,132,4,3296,0,2,2,1,y,0831,f,same_color,,0
2,27,1,1,132,4,3296,0,2,2,2,b,0545,m,same_sex,,0
2,27,1,1,132,4,3296,0,2,2,3,y,1008,f,same_color,,0
2,27,1,1,132,4,3296,0,2,2,4,y,0858,f,same_color,,0
2,27,1,1,132,4,3296,0,2,2,5,b,0860,m,same_sex,,0
2,27,1,1,132,4,3296,0,2,2,6,y,i425xa-mn,m,target,6,1
2,27,1,1,132,4,3296,0,2,2,7,b,0460,m,same_sex,,0
2,27,1,1,132,4,3296,0,2,2,8,b,0178,m,same_sex,,0
2,27,1,1,132,4,3296,0,2,2,9,y,1159,f,same_color,,0
2,28,1,1,133,5,1952,0,2,2,1,b,0692,m,same_sex,,0
2,28,1,1,133,5,1952,0,2,2,2,b,1004,m,same_sex,,0
2,28,1,1,133,5,1952,0,2,2,3,b,1053,m,same_sex,,0
2,28,1,1,133,5,1952,0,2,2,4,y,0233,m,target,4,1
2,28,1,1,133,5,1952,0,2,2,5,y,0723,f,same_color,,0
2,28,1,1,133,5,1952,0,2,2,6,b,0900,m,same_sex,,0
2,28,1,1,133,5,1952,0,2,2,7,y,1185,f,same_color,,0
2,28,1,1,133,5,1952,0,2,2,8,y,i088qa-fn,f,same_color,,0
2,28,1,1,133,5,1952,0,2,2,9,y,0104,f,same_color,,0
2,29,1,1,134,1,478,1,2,2,1,y,i256ua-mn,m,target,1,1
2,29,1,1,134,1,478,1,2,2,2,y,0418,f,same_color,,0
2,29,1,1,134,1,478,1,2,2,3,b,0474,m,same_sex,,0
2,29,1,1,134,1,478,1,2,2,4,b,0740,m,same_sex,,0
2,29,1,1,134,1,478,1,2,2,5,y,0040,f,same_color,,0
2,29,1,1,134,1,478,1,2,2,6,b,0853,m,same_sex,,0
2,29,1,1,134,1,478,1,2,2,7,y,0280,f,same_color,,0
2,29,1,1,134,1,478,1,2,2,8,b,0558,m,same_sex,,0
2,29,1,1,134,1,478,1,2,2,9,y,0107,f,same_color,,0
2,30,1,1,135,2,352,1,2,2,1,b,0132,m,same_sex,,0
2,30,1,1,135,2,352,1,2,2,2,y,0468,m,target,2,1
2,30,1,1,135,2,352,1,2,2,3,y,0235,f,same_color,,0
2,30,1,1,135,2,352,1,2,2,4,b,0983,m,same_sex,,0
2,30,1,1,135,2,352,1,2,2,5,y,0694,f,same_color,,0
2,30,1,1,135,2,352,1,2,2,6,y,i607ya-fn,f,same_color,,0
2,30,1,1,135,2,352,1,2,2,7,b,i052qa-mn,m,same_sex,,0
2,30,1,1,135,2,352,1,2,2,8,y,0031,f,same_color,,0
2,30,1,1,135,2,352,1,2,2,9,b,0784,m,same_sex,,0
2,31,1,1,136,7,1529,0,2,2,1,b,0770,m,same_sex,,0
2,31,1,1,136,7,1529,0,2,2,2,y,0096,m,target,2,1
2,31,1,1,136,7,1529,0,2,2,3,y,0699,f,same_color,,0
2,31,1,1,136,7,1529,0,2,2,4,b,0896,m,same_sex,,0
2,31,1,1,136,7,1529,0,2,2,5,b,0710,m,same_sex,,0
2,31,1,1,136,7,1529,0,2,2,6,b,0796,m,same_sex,,0
2,31,1,1,136,7,1529,0,2,2,7,y,1126,f,same_color,,0
2,31,1,1,136,7,1529,0,2,2,8,y,0779,f,same_color,,0
2,31,1,1,136,7,1529,0,2,2,9,y,1196,f,same_color,,0
2,32,1,1,137,4,885,1,2,2,1,y,0405,f,same_color,,0
2,32,1,1,137,4,885,1,2,2,2,y,0111,f,same_color,,0
2,32,1,1,137,4,885,1,2,2,3,y,i624ya-fn,f,same_color,,0
2,32,1,1,137,4,885,1,2,2,4,y,0596,m,target,4,1
2,32,1,1,137,4,885,1,2,2,5,b,i038qa-mn,m,same_sex,,0
2,32,1,1,137,4,885,1,2,2,6,b,0180,m,same_sex,,0
2,32,1,1,137,4,885,1,2,2,7,y,i604za-fn,f,same_color,,0
2,32,1,1,137,4,885,1,2,2,8,b,0942,m,same_sex,,0
2,32,1,1,137,4,885,1,2,2,9,b,1091,m,same_sex,,0
2,33,1,1,138,7,4272,0,2,2,1,y,0374,f,same_color,,0
2,33,1,1,138,7,4272,0,2,2,2,y,0658,m,target,2,1
2,33,1,1,138,7,4272,0,2,2,3,y,i410wa-fn,f,same_color,,0
2,33,1,1,138,7,4272,0,2,2,4,y,1165,f,same_color,,0
2,33,1,1,138,7,4272,0,2,2,5,b,0577,m,same_sex,,0
2,33,1,1,138,7,4272,0,2,2,6,b,0159,m,same_sex,,0
2,33,1,1,138,7,4272,0,2,2,7,y,0351,f,same_color,,0
2,33,1,1,138,7,4272,0,2,2,8,b,i219ta-mn,m,same_sex,,0
2,33,1,1,138,7,4272,0,2,2,9,b,0475,m,same_sex,,0
2,34,1,1,139,3,565,1,2,2,1,y,1048,f,same_color,,0
2,34,1,1,139,3,565,1,2,2,2,y,0492,f,same_color,,0
2,34,1,1,139,3,565,1,2,2,3,y,0912,m,target,3,1
2,34,1,1,139,3,565,1,2,2,4,b,0360,m,same_sex,,0
2,34,1,1,139,3,565,1,2,2,5,y,1078,f,same_color,,0
2,34,1,1,139,3,565,1,2,2,6,b,1069,m,same_sex,,0
2,34,1,1,139,3,565,1,2,2,7,b,0838,m,same_sex,,0
2,34,1,1,139,3,565,1,2,2,8,b,1010,m,same_sex,,0
2,34,1,1,139,3,565,1,2,2,9,y,0495,f,same_color,,0
2,35,1,1,140,1,335,1,2,2,1,y,0832,m,target,1,1
2,35,1,1,140,1,335,1,2,2,2,b,0009,m,same_sex,,0
2,35,1,1,140,1,335,1,2,2,3,y,0530,f,same_color,,0
2,35,1,1,140,1,335,1,2,2,4,b,i011qa-mn,m,same_sex,,0
2,35,1,1,140,1,335,1,2,2,5,b,0810,m,same_sex,,0
2,35,1,1,140,1,335,1,2,2,6,b,0338,m,same_sex,,0
2,35,1,1,140,1,335,1,2,2,7,y,0500,f,same_color,,0
2,35,1,1,140,1,335,1,2,2,8,y,0804,f,same_color,,0
2,35,1,1,140,1,335,1,2,2,9,y,0292,f,same_color,,0
2,36,1,1,141,6,618,1,2,2,1,b,i084qa-mn,m,same_sex,,0
2,36,1,1,141,6,618,1,2,2,2,b,0855,m,same_sex,,0
2,36,1,1,141,6,618,1,2,2,3,y,1194,f,same_color,,0
2,36,1,1,141,6,618,1,2,2,4,y,i018ra-fn,f,same_color,,0
2,36,1,1,141,6,618,1,2,2,5,b,0764,m,same_sex,,0
2,36,1,1,141,6,618,1,2,2,6,y,0490,m,target,6,1
2,36,1,1,141,6,618,1,2,2,7,y,0420,f,same_color,,0
2,36,1,1,141,6,618,1,2,2,8,b,0550,m,same_sex,,0
2,36,1,1,141,6,618,1,2,2,9,y,0459,f,same_color,,0
2,37,1,1,142,2,498,1,2,2,1,y,0244,f,same_color,,0
2,37,1,1,142,2,498,1,2,2,2,y,1000,m,target,2,1
2,37,1,1,142,2,498,1,2,2,3,b,0363,m,same_sex,,0
2,37,1,1,142,2,498,1,2,2,4,b,0144,m,same_sex,,0
2,37,1,1,142,2,498,1,2,2,5,y,1052,f,same_color,,0
2,37,1,1,142,2,498,1,2,2,6,y,i304ua-fg,f,same_color,,0
2,37,1,1,142,2,498,1,2,2,7,y,i061ra-fn,f,same_color,,0
2,37,1,1,142,2,498,1,2,2,8,b,0161,m,same_sex,,0
2,37,1,1,142,2,498,1,2,2,9,b,0618,m,same_sex,,0
2,38,1,1,143,3,3580,0,2,2,1,y,1019,f,same_color,,0
2,38,1,1,143,3,3580,0,2,2,2,b,0122,m,same_sex,,0
2,38,1,1,143,3,3580,0,2,2,3,y,0265,f,same_color,,0
2,38,1,1,143,3,3580,0,2,2,4,y,i431xa-fn,f,same_color,,0
2,38,1,1,143,3,3580,0,2,2,5,b,i228ua-mg,m,same_sex,,0
2,38,1,1,143,3,3580,0,2,2,6,y,i270ta-mn,m,target,6,1
2,38,1,1,143,3,3580,0,2,2,7,b,1163,m,same_sex,,0
2,38,1,1,143,3,3580,0,2,2,8,y,0996,f,same_color,,0
2,38,1,1,143,3,3580,0,2,2,9,b,0680,m,same_sex,,0
2,39,1,1,144,2,441,1,2,2,1,b,0240,m,same_sex,,0
2,39,1,1,144,2,441,1,2,2,2,y,0751,m,target,2,1
2,39,1,1,144,2,441,1,2,2,3,y,1072,f,same_color,,0
2,39,1,1,144,2,441,1,2,2,4,b,0649,m,same_sex,,0
2,39,1,1,144,2,441,1,2,2,5,y,i301ta-fg,f,same_color,,0
2,39,1,1,144,2,441,1,2,2,6,y,0313,f,same_color,,0
2,39,1,1,144,2,441,1,2,2,7,b,0862,m,same_sex,,0
2,39,1,1,144,2,441,1,2,2,8,y,i600za-fn,f,same_color,,0
2,39,1,1,144,2,441,1,2,2,9,b,1068,m,same_sex,,0
2,40,1,1,145,1,3768,0,2,2,1,y,0311,f,same_color,,0
2,40,1,1,145,1,3768,0,2,2,2,b,0368,m,same_sex,,0
2,40,1,1,145,1,3768,0,2,2,3,y,0179,m,target,3,1
2,40,1,1,145,1,3768,0,2,2,4,b,0109,m,same_sex,,0
2,40,1,1,145,1,3768,0,2,2,5,y,i413xa-fn,f,same_color,,0
2,40,1,1,145,1,3768,0,2,2,6,b,1041,m,same_sex,,0
2,40,1,1,145,1,3768,0,2,2,7,y,0371,f,same_color,,0
2,40,1,1,145,1,3768,0,2,2,8,y,0412,f,same_color,,0
2,40,1,1,145,1,3768,0,2,2,9,b,1205,m,same_sex,,0
2,41,1,1,146,3,3053,0,2,2,1,b,0039,m,same_sex,,0
2,41,1,1,146,3,3053,0,2,2,2,y,0078,m,target,2,1
2,41,1,1,146,3,3053,0,2,2,3,y,0399,f,same_color,,0
2,41,1,1,146,3,3053,0,2,2,4,b,0252,m,same_sex,,0
2,41,1,1,146,3,3053,0,2,2,5,y,i285ta-fn,f,same_color,,0
2,41,1,1,146,3,3053,0,2,2,6,b,0361,m,same_sex,,0
2,41,1,1,146,3,3053,0,2,2,7,y,0045,f,same_color,,0
2,41,1,1,146,3,3053,0,2,2,8,b,0522,m,same_sex,,0
2,41,1,1,146,3,3053,0,2,2,9,y,i078qa-fg,f,same_color,,0
2,42,1,1,147,9,2388,1,2,2,1,y,i210ua-fn,f,same_color,,0
2,42,1,1,147,9,2388,1,2,2,2,y,0314,f,same_color,,0
2,42,1,1,147,9,2388,1,2,2,3,b,0930,m,same_sex,,0
2,42,1,1,147,9,2388,1,2,2,4,b,0189,m,same_sex,,0
2,42,1,1,147,9,2388,1,2,2,5,b,0257,m,same_sex,,0
2,42,1,1,147,9,2388,1,2,2,6,y,i033ra-fn,f,same_color,,0
2,42,1,1,147,9,2388,1,2,2,7,b,0476,m,same_sex,,0
2,42,1,1,147,9,2388,1,2,2,8,y,0329,f,same_color,,0
2,42,1,1,147,9,2388,1,2,2,9,y,i002ra-mn,m,target,9,1
2,43,1,1,148,7,3922,0,2,2,1,b,0535,m,same_sex,,0
2,43,1,1,148,7,3922,0,2,2,2,y,0307,f,same_color,,0
2,43,1,1,148,7,3922,0,2,2,3,y,0483,f,same_color,,0
2,43,1,1,148,7,3922,0,2,2,4,y,1098,m,target,4,1
2,43,1,1,148,7,3922,0,2,2,5,y,i609za-fg,f,same_color,,0
2,43,1,1,148,7,3922,0,2,2,6,y,0704,f,same_color,,0
2,43,1,1,148,7,3922,0,2,2,7,b,0757,m,same_sex,,0
2,43,1,1,148,7,3922,0,2,2,8,b,0064,m,same_sex,,0
2,43,1,1,148,7,3922,0,2,2,9,b,0809,m,same_sex,,0
2,44,1,1,149,8,319,1,2,2,1,b,0799,m,same_sex,,0
2,44,1,1,149,8,319,1,2,2,2,y,0354,f,same_color,,0
2,44,1,1,149,8,319,1,2,2,3,y,0121,f,same_color,,0
2,44,1,1,149,8,319,1,2,2,4,b,i041ra-mn,m,same_sex,,0
2,44,1,1,149,8,319,1,2,2,5,y,i022qa-fn,f,same_color,,0
2,44,1,1,149,8,319,1,2,2,6,y,0941,f,same_color,,0
2,44,1,1,149,8,319,1,2,2,7,b,0348,m,same_sex,,0
2,44,1,1,149,8,319,1,2,2,8,y,i205ta-mn,m,target,8,1
2,44,1,1,149,8,319,1,2,2,9,b,0586,m,same_sex,,0
2,45,1,1,150,4,2149,0,2,2,1,b,0614,m,same_sex,,0
2,45,1,1,150,4,2149,0,2,2,2,b,i294ta-mg,m,same_sex,,0
2,45,1,1,150,4,2149,0,2,2,3,b,1182,m,same_sex,,0
2,45,1,1,150,4,2149,0,2,2,4,y,0644,f,same_color,,0
2,45,1,1,150,4,2149,0,2,2,5,y,i417xa-mn,m,target,5,1
2,45,1,1,150,4,2149,0,2,2,6,b,0108,m,same_sex,,0
2,45,1,1,150,4,2149,0,2,2,7,y,0352,f,same_color,,0
2,45,1,1,150,4,2149,0,2,2,8,y,1155,f,same_color,,0
2,45,1,1,150,4,2149,0,2,2,9,y,0102,f,same_color,,0
2,46,1,1,151,3,347,1,2,2,1,y,0123,f,same_color,,0
2,46,1,1,151,3,347,1,2,2,2,b,0870,m,same_sex,,0
2,46,1,1,151,3,347,1,2,2,3,y,0275,m,target,3,1
2,46,1,1,151,3,347,1,2,2,4,y,0449,f,same_color,,0
2,46,1,1,151,3,347,1,2,2,5,y,0196,f,same_color,,0
2,46,1,1,151,3,347,1,2,2,6,b,0334,m,same_sex,,0
2,46,1,1,151,3,347,1,2,2,7,b,0023,m,same_sex,,0
2,46,1,1,151,3,347,1,2,2,8,b,i231ua-mn,m,same_sex,,0
2,46,1,1,151,3,347,1,2,2,9,y,0576,f,same_color,,0
2,47,1,1,152,4,3203,0,2,2,1,b,i012qa-mn,m,same_sex,,0
2,47,1,1,152,4,3203,0,2,2,2,b,0686,m,same_sex,,0
2,47,1,1,152,4,3203,0,2,2,3,y,1007,f,same_color,,0
2,47,1,1,152,4,3203,0,2,2,4,b,0783,m,same_sex,,0
2,47,1,1,152,4,3203,0,2,2,5,y,0624,m,target,5,1
2,47,1,1,152,4,3203,0,2,2,6,y,0762,f,same_color,,0
2,47,1,1,152,4,3203,0,2,2,7,y,0432,f,same_color,,0
2,47,1,1,152,4,3203,0,2,2,8,b,0042,m,same_sex,,0
2,47,1,1,152,4,3203,0,2,2,9,y,i053qa-fg,f,same_color,,0
2,48,1,1,153,8,2136,1,2,2,1,b,i440xa-mg,m,same_sex,,0
2,48,1,1,153,8,2136,1,2,2,2,y,0534,f,same_color,,0
2,48,1,1,153,8,2136,1,2,2,3,b,i035ra-mn,m,same_sex,,0
2,48,1,1,153,8,2136,1,2,2,4,y,i226ta-fg,f,same_color,,0
2,48,1,1,153,8,2136,1,2,2,5,b,0659,m,same_sex,,0
2,48,1,1,153,8,2136,1,2,2,6,y,0589,f,same_color,,0
2,48,1,1,153,8,2136,1,2,2,7,b,0597,m,same_sex,,0
2,48,1,1,153,8,2136,1,2,2,8,y,1040,m,target,8,1
2,48,1,1,153,8,2136,1,2,2,9,y,0986,f,same_color,,0
2,49,1,1,154,6,2192,1,2,2,1,y,0824,f,same_color,,0
2,49,1,1,154,6,2192,1,2,2,2,b,0863,m,same_sex,,0
2,49,1,1,154,6,2192,1,2,2,3,y,0395,f,same_color,,0
2,49,1,1,154,6,2192,1,2,2,4,y,0263,f,same_color,,0
2,49,1,1,154,6,2192,1,2,2,5,b,0817,m,same_sex,,0
2,49,1,1,154,6,2192,1,2,2,6,y,0157,m,target,6,1
2,49,1,1,154,6,2192,1,2,2,7,b,0755,m,same_sex,,0
2,49,1,1,154,6,2192,1,2,2,8,b,i269ua-mn,m,same_sex,,0
2,49,1,1,154,6,2192,1,2,2,9,y,0344,f,same_color,,0
2,50,1,1,155,2,1188,1,2,2,1,y,0394,f,same_color,,0
2,50,1,1,155,2,1188,1,2,2,2,y,0055,m,target,2,1
2,50,1,1,155,2,1188,1,2,2,3,y,0971,f,same_color,,0
2,50,1,1,155,2,1188,1,2,2,4,y,0357,f,same_color,,0
2,50,1,1,155,2,1188,1,2,2,5,b,0192,m,same_sex,,0
2,50,1,1,155,2,1188,1,2,2,6,b,0463,m,same_sex,,0
2,50,1,1,155,2,1188,1,2,2,7,b,0286,m,same_sex,,0
2,50,1,1,155,2,1188,1,2,2,8,y,0250,f,same_color,,0
2,50,1,1,155,2,1188,1,2,2,9,b,0526,m,same_sex,,0
2,51,1,1,156,8,744,0,2,2,1,b,0715,m,same_sex,,0
2,51,1,1,156,8,744,0,2,2,2,y,0963,f,same_color,,0
2,51,1,1,156,8,744,0,2,2,3,y,0684,m,target,3,1
2,51,1,1,156,8,744,0,2,2,4,b,1140,m,same_sex,,0
2,51,1,1,156,8,744,0,2,2,5,b,0622,m,same_sex,,0
2,51,1,1,156,8,744,0,2,2,6,y,i236ua-fn,f,same_color,,0
2,51,1,1,156,8,744,0,2,2,7,b,0076,m,same_sex,,0
2,51,1,1,156,8,744,0,2,2,8,y,0219,f,same_color,,0
2,51,1,1,156,8,744,0,2,2,9,y,1090,f,same_color,,0
2,52,1,1,157,5,2110,0,2,2,1,y,0965,f,same_color,,0
2,52,1,1,157,5,2110,0,2,2,2,b,0871,m,same_sex,,0
2,52,1,1,157,5,2110,0,2,2,3,b,0619,m,same_sex,,0
2,52,1,1,157,5,2110,0,2,2,4,b,0940,m,same_sex,,0
2,52,1,1,157,5,2110,0,2,2,5,y,0434,f,same_color,,0
2,52,1,1,157,5,2110,0,2,2,6,b,0355,m,same_sex,,0
2,52,1,1,157,5,2110,0,2,2,7,y,0343,f,same_color,,0
2,52,1,1,157,5,2110,0,2,2,8,y,0932,m,target,8,1
2,52,1,1,157,5,2110,0,2,2,9,y,0557,f,same_color,,0
2,53,1,1,158,5,727,1,2,2,1,b,0088,m,same_sex,,0
2,53,1,1,158,5,727,1,2,2,2,y,1147,f,same_color,,0
2,53,1,1,158,5,727,1,2,2,3,b,i223ua-mn,m,same_sex,,0
2,53,1,1,158,5,727,1,2,2,4,y,i030qa-fg,f,same_color,,0
2,53,1,1,158,5,727,1,2,2,5,y,0613,m,target,5,1
2,53,1,1,158,5,727,1,2,2,6,y,i437xa-fn,f,same_color,,0
2,53,1,1,158,5,727,1,2,2,7,b,1095,m,same_sex,,0
2,53,1,1,158,5,727,1,2,2,8,y,0702,f,same_color,,0
2,53,1,1,158,5,727,1,2,2,9,b,0519,m,same_sex,,0
2,54,1,2,159,5,639,1,2,2,1,y,i265ta-fn,f,same_color,,0
2,54,1,2,159,5,639,1,2,2,2,y,0400,f,same_color,,0
2,54,1,2,159,5,639,1,2,2,3,y,0302,f,same_color,,0
2,54,1,2,159,5,639,1,2,2,4,b,1193,m,same_sex,,0
2,54,1,2,159,5,639,1,2,2,5,y,0081,m,target,5,1
2,54,1,2,159,5,639,1,2,2,6,b,0834,m,same_sex,,0
2,54,1,2,159,5,639,1,2,2,7,b,0533,m,same_sex,,0
2,54,1,2,159,5,639,1,2,2,8,y,0916,f,same_color,,0
2,54,1,2,159,5,639,1,2,2,9,b,0994,m,same_sex,,0
2,55,1,2,160,1,2456,0,2,2,1,y,0444,f,same_color,,0
2,55,1,2,160,1,2456,0,2,2,2,b,0166,m,same_sex,,0
2,55,1,2,160,1,2456,0,2,2,3,y,0397,f,same_color,,0
2,55,1,2,160,1,2456,0,2,2,4,b,i255ua-mn,m,same_sex,,0
2,55,1,2,160,1,2456,0,2,2,5,y,0964,m,target,5,1
2,55,1,2,160,1,2456,0,2,2,6,b,0035,m,same_sex,,0
2,55,1,2,160,1,2456,0,2,2,7,y,0209,f,same_color,,0
2,55,1,2,160,1,2456,0,2,2,8,y,1049,f,same_color,,0
2,55,1,2,160,1,2456,0,2,2,9,b,0128,m,same_sex,,0
2,56,1,2,161,5,3245,0,2,2,1,y,0433,f,same_color,,0
2,56,1,2,161,5,3245,0,2,2,2,b,0887,m,same_sex,,0
2,56,1,2,161,5,3245,0,2,2,3,b,0544,m,same_sex,,0
2,56,1,2,161,5,3245,0,2,2,4,y,0436,f,same_color,,0
2,56,1,2,161,5,3245,0,2,2,5,b,1145,m,same_sex,,0
2,56,1,2,161,5,3245,0,2,2,6,b,1056,m,same_sex,,0
2,56,1,2,161,5,3245,0,2,2,7,y,0504,m,target,7,1
2,56,1,2,161,5,3245,0,2,2,8,y,0628,f,same_color,,0
2,56,1,2,161,5,3245,0,2,2,9,y,0648,f,same_color,,0
2,57,1,2,162,9,317,1,2,2,1,b,0066,m,same_sex,,0
2,57,1,2,162,9,317,1,2,2,2,b,0933,m,same_sex,,0
2,57,1,2,162,9,317,1,2,2,3,b,0339,m,same_sex,,0
2,57,1,2,162,9,317,1,2,2,4,y,1016,f,same_color,,0
2,57,1,2,162,9,317,1,2,2,5,y,0385,f,same_color,,0
2,57,1,2,162,9,317,1,2,2,6,y,i218ta-fn,f,same_color,,0
2,57,1,2,162,9,317,1,2,2,7,b,0869,m,same_sex,,0
2,57,1,2,162,9,317,1,2,2,8,y,i207ta-fn,f,same_color,,0
2,57,1,2,162,9,317,1,2,2,9,y,1168,m,target,9,1
2,58,1,2,163,3,342,0,2,2,1,b,0590,m,same_sex,,0
2,58,1,2,163,3,342,0,2,2,2,y,0288,f,same_color,,0
2,58,1,2,163,3,342,0,2,2,3,y,0450,f,same_color,,0
2,58,1,2,163,3,342,0,2,2,4,b,1029,m,same_sex,,0
2,58,1,2,163,3,342,0,2,2,5,y,i077qa-fn,f,same_color,,0
2,58,1,2,163,3,342,0,2,2,6,y,0954,m,target,6,1
2,58,1,2,163,3,342,0,2,2,7,y,1108,f,same_color,,0
2,58,1,2,163,3,342,0,2,2,8,b,0085,m,same_sex,,0
2,58,1,2,163,3,342,0,2,2,9,b,0538,m,same_sex,,0
2,59,1,2,164,9,453,0,2,2,1,y,0060,f,same_color,,0
2,59,1,2,164,9,453,0,2,2,2,y,0112,f,same_color,,0
2,59,1,2,164,9,453,0,2,2,3,b,0129,m,same_sex,,0
2,59,1,2,164,9,453,0,2,2,4,y,0800,m,target,4,1
2,59,1,2,164,9,453,0,2,2,5,y,i065qa-fn,f,same_color,,0
2,59,1,2,164,9,453,0,2,2,6,b,i420xa-mn,m,same_sex,,0
2,59,1,2,164,9,453,0,2,2,7,b,0733,m,same_sex,,0
2,59,1,2,164,9,453,0,2,2,8,b,0641,m,same_sex,,0
2,59,1,2,164,9,453,0,2,2,9,y,0214,f,same_color,,0
2,60,1,2,165,2,195,1,2,2,1,b,i623za-mn,m,same_sex,,0
2,60,1,2,165,2,195,1,2,2,2,y,1189,m,target,2,1
2,60,1,2,165,2,195,1,2,2,3,y,1166,f,same_color,,0
2,60,1,2,165,2,195,1,2,2,4,y,0543,f,same_color,,0
2,60,1,2,165,2,195,1,2,2,5,b,1092,m,same_sex,,0
2,60,1,2,165,2,195,1,2,2,6,y,i610ya-fn,f,same_color,,0
2,60,1,2,165,2,195,1,2,2,7,y,i424xa-fn,f,same_color,,0
2,60,1,2,165,2,195,1,2,2,8,b,0821,m,same_sex,,0
2,60,1,2,165,2,195,1,2,2,9,b,i416xa-mn,m,same_sex,,0
2,61,1,2,166,1,310,1,2,2,1,y,0364,m,target,1,1
2,61,1,2,166,1,310,1,2,2,2,y,0384,f,same_color,,0
2,61,1,2,166,1,310,1,2,2,3,b,0069,m,same_sex,,0
2,61,1,2,166,1,310,1,2,2,4,b,0494,m,same_sex,,0
2,61,1,2,166,1,310,1,2,2,5,y,i212ta-fn,f,same_color,,0
2,61,1,2,166,1,310,1,2,2,6,b,i246ua-mg,m,same_sex,,0
2,61,1,2,166,1,310,1,2,2,7,b,0711,m,same_sex,,0
2,61,1,2,166,1,310,1,2,2,8,y,0454,f,same_color,,0
2,61,1,2,166,1,310,1,2,2,9,y,0703,f,same_color,,0
2,62,1,2,167,2,389,1,2,2,1,b,0143,m,same_sex,,0
2,62,1,2,167,2,389,1,2,2,2,y,0016,m,target,2,1
2,62,1,2,167,2,389,1,2,2,3,b,0116,m,same_sex,,0
2,62,1,2,167,2,389,1,2,2,4,y,0270,f,same_color,,0
2,62,1,2,167,2,389,1,2,2,5,y,0563,f,same_color,,0
2,62,1,2,167,2,389,1,2,2,6,b,0008,m,same_sex,,0
2,62,1,2,167,2,389,1,2,2,7,y,0769,f,same_color,,0
2,62,1,2,167,2,389,1,2,2,8,y,0382,f,same_color,,0
2,62,1,2,167,2,389,1,2,2,9,b,1050,m,same_sex,,0
2,63,1,2,168,6,2656,0,2,2,1,y,i008ra-mn,m,target,1,1
2,63,1,2,168,6,2656,0,2,2,2,b,0802,m,same_sex,,0
2,63,1,2,168,6,2656,0,2,2,3,b,0874,m,same_sex,,0
2,63,1,2,168,6,2656,0,2,2,4,b,1043,m,same_sex,,0
2,63,1,2,168,6,2656,0,2,2,5,y,0327,f,same_color,,0
2,63,1,2,168,6,2656,0,2,2,6,y,0296,f,same_color,,0
2,63,1,2,168,6,2656,0,2,2,7,y,0823,f,same_color,,0
2,63,1,2,168,6,2656,0,2,2,8,b,0701,m,same_sex,,0
2,63,1,2,168,6,2656,0,2,2,9,y,0631,f,same_color,,0
2,64,1,2,169,1,416,1,2,2,1,y,i028qa-mg,m,target,1,1
2,64,1,2,169,1,416,1,2,2,2,b,0002,m,same_sex,,0
2,64,1,2,169,1,416,1,2,2,3,b,1207,m,same_sex,,0
2,64,1,2,169,1,416,1,2,2,4,y,0225,f,same_color,,0
2,64,1,2,169,1,416,1,2,2,5,b,0015,m,same_sex,,0
2,64,1,2,169,1,416,1,2,2,6,b,0285,m,same_sex,,0
2,64,1,2,169,1,416,1,2,2,7,y,i062qa-fn,f,same_color,,0
2,64,1,2,169,1,416,1,2,2,8,y,0689,f,same_color,,0
2,64,1,2,169,1,416,1,2,2,9,y,i619ya-fg,f,same_color,,0
2,65,1,2,170,6,1334,1,2,2,1,b,0030,m,same_sex,,0
2,65,1,2,170,6,1334,1,2,2,2,b,0536,m,same_sex,,0
2,65,1,2,170,6,1334,1,2,2,3,y,i612za-fn,f,same_color,,0
2,65,1,2,170,6,1334,1,2,2,4,y,0687,f,same_color,,0
2,65,1,2,170,6,1334,1,2,2,5,y,i605ya-fn,f,same_color,,0
2,65,1,2,170,6,1334,1,2,2,6,y,0905,m,target,6,1
2,65,1,2,170,6,1334,1,2,2,7,b,0332,m,same_sex,,0
2,65,1,2,170,6,1334,1,2,2,8,b,0640,m,same_sex,,0
2,65,1,2,170,6,1334,1,2,2,9,y,0337,f,same_color,,0
2,66,1,2,171,5,728,1,2,2,1,y,0529,f,same_color,,0
2,66,1,2,171,5,728,1,2,2,2,b,0206,m,same_sex,,0
2,66,1,2,171,5,728,1,2,2,3,b,0611,m,same_sex,,0
2,66,1,2,171,5,728,1,2,2,4,y,1080,f,same_color,,0
2,66,1,2,171,5,728,1,2,2,5,y,0570,m,target,5,1
2,66,1,2,171,5,728,1,2,2,6,y,0873,f,same_color,,0
2,66,1,2,171,5,728,1,2,2,7,b,1204,m,same_sex,,0
2,66,1,2,171,5,728,1,2,2,8,y,1208,f,same_color,,0
2,66,1,2,171,5,728,1,2,2,9,b,0162,m,same_sex,,0
2,67,1,2,172,2,548,1,2,2,1,b,1074,m,same_sex,,0
2,67,1,2,172,2,548,1,2,2,2,y,0256,m,target,2,1
2,67,1,2,172,2,548,1,2,2,3,b,0234,m,same_sex,,0
2,67,1,2,172,2,548,1,2,2,4,b,1003,m,same_sex,,0
2,67,1,2,172,2,548,1,2,2,5,y,i248ua-fn,f,same_color,,0
2,67,1,2,172,2,548,1,2,2,6,b,0038,m,same_sex,,0
2,67,1,2,172,2,548,1,2,2,7,y,i617ya-fn,f,same_color,,0
2,67,1,2,172,2,548,1,2,2,8,y,0264,f,same_color,,0
2,67,1,2,172,2,548,1,2,2,9,y,0267,f,same_color,,0
2,68,1,2,173,2,325,1,2,2,1,y,0401,f,same_color,,0
2,68,1,2,173,2,325,1,2,2,2,y,0573,m,target,2,1
2,68,1,2,173,2,325,1,2,2,3,b,0995,m,same_sex,,0
2,68,1,2,173,2,325,1,2,2,4,b,0515,m,same_sex,,0
2,68,1,2,173,2,325,1,2,2,5,y,0201,f,same_color,,0
2,68,1,2,173,2,325,1,2,2,6,b,0289,m,same_sex,,0
2,68,1,2,173,2,325,1,2,2,7,y,0181,f,same_color,,0
2,68,1,2,173,2,325,1,2,2,8,y,0984,f,same_color,,0
2,68,1,2,173,2,325,1,2,2,9,b,0205,m,same_sex,,0
2,69,1,2,174,5,446,1,2,2,1,y,0849,f,same_color,,0
2,69,1,2,174,5,446,1,2,2,2,b,1175,m,same_sex,,0
2,69,1,2,174,5,446,1,2,2,3,y,0842,f,same_color,,0
2,69,1,2,174,5,446,1,2,2,4,b,0867,m,same_sex,,0
2,69,1,2,174,5,446,1,2,2,5,y,0877,m,target,5,1
2,69,1,2,174,5,446,1,2,2,6,y,1161,f,same_color,,0
2,69,1,2,174,5,446,1,2,2,7,b,0170,m,same_sex,,0
2,69,1,2,174,5,446,1,2,2,8,b,0025,m,same_sex,,0
2,69,1,2,174,5,446,1,2,2,9,y,0818,f,same_color,,0
2,70,1,2,175,2,2693,0,2,2,1,y,0052,f,same_color,,0
2,70,1,2,175,2,2693,0,2,2,2,y,0185,f,same_color,,0
2,70,1,2,175,2,2693,0,2,2,3,y,1180,m,target,3,1
2,70,1,2,175,2,2693,0,2,2,4,b,0014,m,same_sex,,0
2,70,1,2,175,2,2693,0,2,2,5,b,0902,m,same_sex,,0
2,70,1,2,175,2,2693,0,2,2,6,y,0068,f,same_color,,0
2,70,1,2,175,2,2693,0,2,2,7,b,0961,m,same_sex,,0
2,70,1,2,175,2,2693,0,2,2,8,b,0602,m,same_sex,,0
2,70,1,2,175,2,2693,0,2,2,9,y,1138,f,same_color,,0
2,71,1,2,176,5,306,1,2,2,1,b,i408xa-mn,m,same_sex,,0
2,71,1,2,176,5,306,1,2,2,2,y,0404,f,same_color,,0
2,71,1,2,176,5,306,1,2,2,3,b,0148,m,same_sex,,0
2,71,1,2,176,5,306,1,2,2,4,y,0791,f,same_color,,0
2,71,1,2,176,5,306,1,2,2,5,y,i414wa-mn,m,target,5,1
2,71,1,2,176,5,306,1,2,2,6,b,0034,m,same_sex,,0
2,71,1,2,176,5,306,1,2,2,7,b,i438xa-mn,m,same_sex,,0
2,71,1,2,176,5,306,1,2,2,8,y,1009,f,same_color,,0
2,71,1,2,176,5,306,1,2,2,9,y,i032qa-fn,f,same_color,,0
2,72,1,2,177,2,1825,1,2,2,1,y,0670,f,same_color,,0
2,72,1,2,177,2,1825,1,2,2,2,y,i232ua-mn,m,target,2,1
2,72,1,2,177,2,1825,1,2,2,3,y,i013qa-fn,f,same_color,,0
2,72,1,2,177,2,1825,1,2,2,4,b,0099,m,same_sex,,0
2,72,1,2,177,2,1825,1,2,2,5,y,i615za-fn,f,same_color,,0
2,72,1,2,177,2,1825,1,2,2,6,b,0100,m,same_sex,,0
2,72,1,2,177,2,1825,1,2,2,7,y,0390,f,same_color,,0
2,72,1,2,177,2,1825,1,2,2,8,b,1030,m,same_sex,,0
2,72,1,2,177,2,1825,1,2,2,9,b,0553,m,same_sex,,0
2,73,1,2,178,4,3801,0,2,2,1,b,0908,m,same_sex,,0
2,73,1,2,178,4,3801,0,2,2,2,b,0080,m,same_sex,,0
2,73,1,2,178,4,3801,0,2,2,3,y,0895,f,same_color,,0
2,73,1,2,178,4,3801,0,2,2,4,y,i266ta-fn,f,same_color,,0
2,73,1,2,178,4,3801,0,2,2,5,b,1183,m,same_sex,,0
2,73,1,2,178,4,3801,0,2,2,6,y,0918,m,target,6,1
2,73,1,2,178,4,3801,0,2,2,7,y,1158,f,same_color,,0
2,73,1,2,178,4,3801,0,2,2,8,y,1034,f,same_color,,0
2,73,1,2,178,4,3801,0,2,2,9,b,1071,m,same_sex,,0
2,74,1,2,179,3,2237,0,2,2,1,b,0131,m,same_sex,,0
2,74,1,2,179,3,2237,0,2,2,2,y,0305,f,same_color,,0
2,74,1,2,179,3,2237,0,2,2,3,y,i275ua-fg,f,same_color,,0
2,74,1,2,179,3,2237,0,2,2,4,y,0294,f,same_color,,0
2,74,1,2,179,3,2237,0,2,2,5,b,0688,m,same_sex,,0
2,74,1,2,179,3,2237,0,2,2,6,y,0666,m,target,6,1
2,74,1,2,179,3,2237,0,2,2,7,b,0976,m,same_sex,,0
2,74,1,2,179,3,2237,0,2,2,8,b,1206,m,same_sex,,0
2,74,1,2,179,3,2237,0,2,2,9,y,0312,f,same_color,,0
2,75,1,2,180,9,1064,1,2,2,1,b,0898,m,same_sex,,0
2,75,1,2,180,9,1064,1,2,2,2,y,0878,f,same_color,,0
2,75,1,2,180,9,1064,1,2,2,3,y,0245,f,same_color,,0
2,75,1,2,180,9,1064,1,2,2,4,b,0552,m,same_sex,,0
2,75,1,2,180,9,1064,1,2,2,5,y,0532,f,same_color,,0
2,75,1,2,180,9,1064,1,2,2,6,y,i039ra-fn,f,same_color,,0
2,75,1,2,180,9,1064,1,2,2,7,b,0001,m,same_sex,,0
2,75,1,2,180,9,1064,1,2,2,8,b,0998,m,same_sex,,0
2,75,1,2,180,9,1064,1,2,2,9,y,0816,m,target,9,1
2,76,1,2,181,5,2928,1,2,2,1,y,0435,f,same_color,,0
2,76,1,2,181,5,2928,1,2,2,2,b,i009ra-mn,m,same_sex,,0
2,76,1,2,181,5,2928,1,2,2,3,b,i241ua-mn,m,same_sex,,0
2,76,1,2,181,5,2928,1,2,2,4,y,0410,f,same_color,,0
2,76,1,2,181,5,2928,1,2,2,5,y,1064,m,target,5,1
2,76,1,2,181,5,2928,1,2,2,6,b,0861,m,same_sex,,0
2,76,1,2,181,5,2928,1,2,2,7,b,0484,m,same_sex,,0
2,76,1,2,181,5,2928,1,2,2,8,y,0599,f,same_color,,0
2,76,1,2,181,5,2928,1,2,2,9,y,0422,f,same_color,,0
2,77,1,2,182,7,477,1,2,2,1,y,0380,f,same_color,,0
2,77,1,2,182,7,477,1,2,2,2,b,0708,m,same_sex,,0
2,77,1,2,182,7,477,1,2,2,3,b,0183,m,same_sex,,0
2,77,1,2,182,7,477,1,2,2,4,y,i429xa-fn,f,same_color,,0
2,77,1,2,182,7,477,1,2,2,5,y,0555,f,same_color,,0
2,77,1,2,182,7,477,1,2,2,6,b,0467,m,same_sex,,0
2,77,1,2,182,7,477,1,2,2,7,y,i243ua-mn,m,target,7,1
2,77,1,2,182,7,477,1,2,2,8,b,0722,m,same_sex,,0
2,77,1,2,182,7,477,1,2,2,9,y,1035,f,same_color,,0
2,78,1,2,183,9,627,1,2,2,1,b,0691,m,same_sex,,0
2,78,1,2,183,9,627,1,2,2,2,y,0665,f,same_color,,0
2,78,1,2,183,9,627,1,2,2,3,b,0566,m,same_sex,,0
2,78,1,2,183,9,627,1,2,2,4,y,i606za-fn,f,same_color,,0
2,78,1,2,183,9,627,1,2,2,5,y,0956,f,same_color,,0
2,78,1,2,183,9,627,1,2,2,6,b,i200ua-mg,m,same_sex,,0
2,78,1,2,183,9,627,1,2,2,7,b,0584,m,same_sex,,0
2,78,1,2,183,9,627,1,2,2,8,y,0981,f,same_color,,0
2,78,1,2,183,9,627,1,2,2,9,y,0119,m,target,9,1
2,79,1,2,184,2,2518,0,2,2,1,y,0639,f,same_color,,0
2,79,1,2,184,2,2518,0,2,2,2,b,1121,m,same_sex,,0
2,79,1,2,184,2,2518,0,2,2,3,y,1081,m,target,3,1
2,79,1,2,184,2,2518,0,2,2,4,y,1054,f,same_color,,0
2,79,1,2,184,2,2518,0,2,2,5,b,0794,m,same_sex,,0
2,79,1,2,184,2,2518,0,2,2,6,b,0249,m,same_sex,,0
2,79,1,2,184,2,2518,0,2,2,7,y,i262ta-fn,f,same_color,,0
2,79,1,2,184,2,2518,0,2,2,8,y,0414,f,same_color,,0
2,79,1,2,184,2,2518,0,2,2,9,b,0683,m,same_sex,,0
2,80,1,2,185,5,921,1,2,2,1,b,1088,m,same_sex,,0
2,80,1,2,185,5,921,1,2,2,2,y,0210,f,same_color,,0
2,80,1,2,185,5,921,1,2,2,3,b,0843,m,same_sex,,0
2,80,1,2,185,5,921,1,2,2,4,y,0336,f,same_color,,0
2,80,1,2,185,5,921,1,2,2,5,y,i081ra-mn,m,target,5,1
2,80,1,2,185,5,921,1,2,2,6,y,0953,f,same_color,,0
2,80,1,2,185,5,921,1,2,2,7,b,0846,m,same_sex,,0
2,80,1,2,185,5,921,1,2,2,8,b,i204ua-mn,m,same_sex,,0
2,80,1,2,185,5,921,1,2,2,9,y,0389,f,same_color,,0
2,81,1,2,186,5,702,1,2,2,1,b,0718,m,same_sex,,0
2,81,1,2,186,5,702,1,2,2,2,y,i214ua-fn,f,same_color,,0
2,81,1,2,186,5,702,1,2,2,3,b,0513,m,same_sex,,0
2,81,1,2,186,5,702,1,2,2,4,b,0845,m,same_sex,,0
2,81,1,2,186,5,702,1,2,2,5,y,0120,m,target,5,1
2,81,1,2,186,5,702,1,2,2,6,y,i252ta-fn,f,same_color,,0
2,81,1,2,186,5,702,1,2,2,7,y,i029qa-fg,f,same_color,,0
2,81,1,2,186,5,702,1,2,2,8,b,0975,m,same_sex,,0
2,81,1,2,186,5,702,1,2,2,9,y,0730,f,same_color,,0
2,82,1,2,187,6,497,1,2,2,1,b,0595,m,same_sex,,0
2,82,1,2,187,6,497,1,2,2,2,y,1135,f,same_color,,0
2,82,1,2,187,6,497,1,2,2,3,y,0650,f,same_color,,0
2,82,1,2,187,6,497,1,2,2,4,b,0094,m,same_sex,,0
2,82,1,2,187,6,497,1,2,2,5,y,0290,f,same_color,,0
2,82,1,2,187,6,497,1,2,2,6,y,0464,m,target,6,1
2,82,1,2,187,6,497,1,2,2,7,b,0714,m,same_sex,,0
2,82,1,2,187,6,497,1,2,2,8,y,0158,f,same_color,,0
2,82,1,2,187,6,497,1,2,2,9,b,1046,m,same_sex,,0
2,83,1,2,188,5,1304,1,2,2,1,b,i267ta-mn,m,same_sex,,0
2,83,1,2,188,5,1304,1,2,2,2,y,0125,f,same_color,,0
2,83,1,2,188,5,1304,1,2,2,3,b,0982,m,same_sex,,0
2,83,1,2,188,5,1304,1,2,2,4,y,0379,f,same_color,,0
2,83,1,2,188,5,1304,1,2,2,5,y,0005,m,target,5,1
2,83,1,2,188,5,1304,1,2,2,6,b,0478,m,same_sex,,0
2,83,1,2,188,5,1304,1,2,2,7,b,i017qa-mg,m,same_sex,,0
2,83,1,2,188,5,1304,1,2,2,8,y,0607,f,same_color,,0
2,83,1,2,188,5,1304,1,2,2,9,y,0782,f,same_color,,0
2,84,1,2,189,3,519,1,2,2,1,b,0024,m,same_sex,,0
2,84,1,2,189,3,519,1,2,2,2,b,1066,m,same_sex,,0
2,84,1,2,189,3,519,1,2,2,3,y,0070,m,target,3,1
2,84,1,2,189,3,519,1,2,2,4,y,0927,f,same_color,,0
2,84,1,2,189,3,519,1,2,2,5,y,0850,f,same_color,,0
2,84,1,2,189,3,519,1,2,2,6,y,0047,f,same_color,,0
2,84,1,2,189,3,519,1,2,2,7,b,0086,m,same_sex,,0
2,84,1,2,189,3,519,1,2,2,8,y,0980,f,same_color,,0
2,84,1,2,189,3,519,1,2,2,9,b,0931,m,same_sex,,0
2,85,1,2,190,2,3405,0,2,2,1,y,0574,f,same_color,,0
2,85,1,2,190,2,3405,0,2,2,2,y,0175,f,same_color,,0
2,85,1,2,190,2,3405,0,2,2,3,b,0901,m,same_sex,,0
2,85,1,2,190,2,3405,0,2,2,4,b,0594,m,same_sex,,0
2,85,1,2,190,2,3405,0,2,2,5,y,0187,m,target,5,1
2,85,1,2,190,2,3405,0,2,2,6,b,i224ta-mn,m,same_sex,,0
2,85,1,2,190,2,3405,0,2,2,7,b,0732,m,same_sex,,0
2,85,1,2,190,2,3405,0,2,2,8,y,0409,f,same_color,,0
2,85,1,2,190,2,3405,0,2,2,9,y,0920,f,same_color,,0
2,86,1,2,191,8,200,1,2,2,1,b,0677,m,same_sex,,0
2,86,1,2,191,8,200,1,2,2,2,y,i057ra-fn,f,same_color,,0
2,86,1,2,191,8,200,1,2,2,3,b,1039,m,same_sex,,0
2,86,1,2,191,8,200,1,2,2,4,y,0365,f,same_color,,0
2,86,1,2,191,8,200,1,2,2,5,y,0951,f,same_color,,0
2,86,1,2,191,8,200,1,2,2,6,b,0706,m,same_sex,,0
2,86,1,2,191,8,200,1,2,2,7,b,0774,m,same_sex,,0
2,86,1,2,191,8,200,1,2,2,8,y,0854,m,target,8,1
2,86,1,2,191,8,200,1,2,2,9,y,i302ta-fn,f,same_color,,0
2,87,1,2,192,7,2704,0,2,2,1,b,1062,m,same_sex,,0
2,87,1,2,192,7,2704,0,2,2,2,b,1190,m,same_sex,,0
2,87,1,2,192,7,2704,0,2,2,3,y,0101,f,same_color,,0
2,87,1,2,192,7,2704,0,2,2,4,y,0416,f,same_color,,0
2,87,1,2,192,7,2704,0,2,2,5,y,i284ta-fg,f,same_color,,0
2,87,1,2,192,7,2704,0,2,2,6,b,0115,m,same_sex,,0
2,87,1,2,192,7,2704,0,2,2,7,y,0781,f,same_color,,0
2,87,1,2,192,7,2704,0,2,2,8,y,0174,m,target,8,1
2,87,1,2,192,7,2704,0,2,2,9,b,1141,m,same_sex,,0
2,88,1,2,193,4,2468,1,2,2,1,y,0556,f,same_color,,0
2,88,1,2,193,4,2468,1,2,2,2,y,i403wa-fn,f,same_color,,0
2,88,1,2,193,4,2468,1,2,2,3,b,i419xa-mn,m,same_sex,,0
2,88,1,2,193,4,2468,1,2,2,4,y,1123,m,target,4,1
2,88,1,2,193,4,2468,1,2,2,5,y,0745,f,same_color,,0
2,88,1,2,193,4,2468,1,2,2,6,b,0977,m,same_sex,,0
2,88,1,2,193,4,2468,1,2,2,7,b,0729,m,same_sex,,0
2,88,1,2,193,4,2468,1,2,2,8,y,1017,f,same_color,,0
2,88,1,2,193,4,2468,1,2,2,9,b,i412xa-mn,m,same_sex,,0
2,89,1,2,194,6,473,1,2,2,1,y,0393,f,same_color,,0
2,89,1,2,194,6,473,1,2,2,2,b,0892,m,same_sex,,0
2,89,1,2,194,6,473,1,2,2,3,b,i450xa-mn,m,same_sex,,0
2,89,1,2,194,6,473,1,2,2,4,y,1167,f,same_color,,0
2,89,1,2,194,6,473,1,2,2,5,b,i089qa-mn,m,same_sex,,0
2,89,1,2,194,6,473,1,2,2,6,y,0592,m,target,6,1
2,89,1,2,194,6,473,1,2,2,7,y,0487,f,same_color,,0
2,89,1,2,194,6,473,1,2,2,8,y,0993,f,same_color,,0
2,89,1,2,194,6,473,1,2,2,9,b,0004,m,same_sex,,0
2,90,1,2,195,1,1900,1,2,2,1,y,0146,m,target,1,1
2,90,1,2,195,1,1900,1,2,2,2,y,1044,f,same_color,,0
2,90,1,2,195,1,1900,1,2,2,3,y,i279ua-fn,f,same_color,,0
2,90,1,2,195,1,1900,1,2,2,4,y,0731,f,same_color,,0
2,90,1,2,195,1,1900,1,2,2,5,y,1011,f,same_color,,0
2,90,1,2,195,1,1900,1,2,2,6,b,0750,m,same_sex,,0
2,90,1,2,195,1,1900,1,2,2,7,b,0341,m,same_sex,,0
2,90,1,2,195,1,1900,1,2,2,8,b,0926,m,same_sex,,0
2,90,1,2,195,1,1900,1,2,2,9,b,0578,m,same_sex,,0
2,91,1,2,196,9,1982,0,2,2,1,b,0735,m,same_sex,,0
2,91,1,2,196,9,1982,0,2,2,2,b,i225ua-mn,m,same_sex,,0
2,91,1,2,196,9,1982,0,2,2,3,b,0856,m,same_sex,,0
2,91,1,2,196,9,1982,0,2,2,4,b,0165,m,same_sex,,0
2,91,1,2,196,9,1982,0,2,2,5,y,1106,f,same_color,,0
2,91,1,2,196,9,1982,0,2,2,6,y,0316,f,same_color,,0
2,91,1,2,196,9,1982,0,2,2,7,y,0776,m,target,7,1
2,91,1,2,196,9,1982,0,2,2,8,y,i401xa-fn,f,same_color,,0
2,91,1,2,196,9,1982,0,2,2,9,y,1174,f,same_color,,0
2,92,1,2,197,5,401,1,2,2,1,b,1038,m,same_sex,,0
2,92,1,2,197,5,401,1,2,2,2,y,0562,f,same_color,,0
2,92,1,2,197,5,401,1,2,2,3,b,1015,m,same_sex,,0
2,92,1,2,197,5,401,1,2,2,4,b,0216,m,same_sex,,0
2,92,1,2,197,5,401,1,2,2,5,y,0621,m,target,5,1
2,92,1,2,197,5,401,1,2,2,6,y,0719,f,same_color,,0
2,92,1,2,197,5,401,1,2,2,7,b,0300,m,same_sex,,0
2,92,1,2,197,5,401,1,2,2,8,y,0569,f,same_color,,0
2,92,1,2,197,5,401,1,2,2,9,y,0655,f,same_color,,0
2,93,1,2,198,6,2151,1,2,2,1,y,0786,f,same_color,,0
2,93,1,2,198,6,2151,1,2,2,2,b,0747,m,same_sex,,0
2,93,1,2,198,6,2151,1,2,2,3,b,0217,m,same_sex,,0
2,93,1,2,198,6,2151,1,2,2,4,y,0315,f,same_color,,0
2,93,1,2,198,6,2151,1,2,2,5,b,0059,m,same_sex,,0
2,93,1,2,198,6,2151,1,2,2,6,y,i227ua-mn,m,target,6,1
2,93,1,2,198,6,2151,1,2,2,7,y,i298ua-fn,f,same_color,,0
2,93,1,2,198,6,2151,1,2,2,8,b,0488,m,same_sex,,0
2,93,1,2,198,6,2151,1,2,2,9,y,0413,f,same_color,,0
2,94,1,2,199,9,456,1,2,2,1,b,0772,m,same_sex,,0
2,94,1,2,199,9,456,1,2,2,2,b,0048,m,same_sex,,0
2,94,1,2,199,9,456,1,2,2,3,y,0429,f,same_color,,0
2,94,1,2,199,9,456,1,2,2,4,y,0027,f,same_color,,0
2,94,1,2,199,9,456,1,2,2,5,b,1012,m,same_sex,,0
2,94,1,2,199,9,456,1,2,2,6,b,0726,m,same_sex,,0
2,94,1,2,199,9,456,1,2,2,7,y,0342,f,same_color,,0
2,94,1,2,199,9,456,1,2,2,8,y,0944,f,same_color,,0
2,94,1,2,199,9,456,1,2,2,9,y,0712,m,target,9,1
2,95,1,2,200,3,423,1,2,2,1,b,1104,m,same_sex,,0
2,95,1,2,200,3,423,1,2,2,2,b,1113,m,same_sex,,0
2,95,1,2,200,3,423,1,2,2,3,y,i010qa-mn,m,target,3,1
2,95,1,2,200,3,423,1,2,2,4,b,0763,m,same_sex,,0
2,95,1,2,200,3,423,1,2,2,5,y,0198,f,same_color,,0
2,95,1,2,200,3,423,1,2,2,6,b,0517,m,same_sex,,0
2,95,1,2,200,3,423,1,2,2,7,y,0469,f,same_color,,0
2,95,1,2,200,3,423,1,2,2,8,y,i024qa-fn,f,same_color,,0
2,95,1,2,200,3,423,1,2,2,9,y,0145,f,same_color,,0
2,96,1,2,201,1,436,1,2,2,1,y,0754,m,target,1,1
2,96,1,2,201,1,436,1,2,2,2,b,0790,m,same_sex,,0
2,96,1,2,201,1,436,1,2,2,3,y,0780,f,same_color,,0
2,96,1,2,201,1,436,1,2,2,4,b,i040qa-mn,m,same_sex,,0
2,96,1,2,201,1,436,1,2,2,5,b,0593,m,same_sex,,0
2,96,1,2,201,1,436,1,2,2,6,y,0259,f,same_color,,0
2,96,1,2,201,1,436,1,2,2,7,y,i603ya-fn,f,same_color,,0
2,96,1,2,201,1,436,1,2,2,8,b,0825,m,same_sex,,0
2,96,1,2,201,1,436,1,2,2,9,y,0446,f,same_color,,0
2,97,1,2,202,4,428,1,2,2,1,b,1187,m,same_sex,,0
2,97,1,2,202,4,428,1,2,2,2,b,i056qa-mn,m,same_sex,,0
2,97,1,2,202,4,428,1,2,2,3,y,0579,f,same_color,,0
2,97,1,2,202,4,428,1,2,2,4,y,0287,m,target,4,1
2,97,1,2,202,4,428,1,2,2,5,b,0580,m,same_sex,,0
2,97,1,2,202,4,428,1,2,2,6,y,0430,f,same_color,,0
2,97,1,2,202,4,428,1,2,2,7,b,0222,m,same_sex,,0
2,97,1,2,202,4,428,1,2,2,8,y,i233ta-fn,f,same_color,,0
2,97,1,2,202,4,428,1,2,2,9,y,0061,f,same_color,,0
2,98,1,2,203,9,2271,0,2,2,1,y,1195,f,same_color,,0
2,98,1,2,203,9,2271,0,2,2,2,y,0090,f,same_color,,0
2,98,1,2,203,9,2271,0,2,2,3,b,i287ta-mn,m,same_sex,,0
2,98,1,2,203,9,2271,0,2,2,4,b,i079ra-mn,m,same_sex,,0
2,98,1,2,203,9,2271,0,2,2,5,y,0775,m,target,5,1
2,98,1,2,203,9,2271,0,2,2,6,y,0190,f,same_color,,0
2,98,1,2,203,9,2271,0,2,2,7,b,0812,m,same_sex,,0
2,98,1,2,203,9,2271,0,2,2,8,y,i608za-fn,f,same_color,,0
2,98,1,2,203,9,2271,0,2,2,9,b,0358,m,same_sex,,0
2,99,1,2,204,1,382,1,2,2,1,y,0359,m,target,1,1
2,99,1,2,204,1,382,1,2,2,2,y,0630,f,same_color,,0
2,99,1,2,204,1,382,1,2,2,3,b,0471,m,same_sex,,0
2,99,1,2,204,1,382,1,2,2,4,b,0012,m,same_sex,,0
2,99,1,2,204,1,382,1,2,2,5,b,0220,m,same_sex,,0
2,99,1,2,204,1,382,1,2,2,6,y,0647,f,same_color,,0
2,99,1,2,204,1,382,1,2,2,7,y,i422wa-fn,f,same_color,,0
2,99,1,2,204,1,382,1,2,2,8,b,i073ra-mg,m,same_sex,,0
2,99,1,2,204,1,382,1,2,2,9,y,1176,f,same_color,,0
2,100,1,2,205,3,1986,1,2,2,1,b,i277ua-mg,m,same_sex,,0
2,100,1,2,205,3,1986,1,2,2,2,b,0859,m,same_sex,,0
2,100,1,2,205,3,1986,1,2,2,3,y,1014,m,target,3,1
2,100,1,2,205,3,1986,1,2,2,4,b,1005,m,same_sex,,0
2,100,1,2,205,3,1986,1,2,2,5,y,0202,f,same_color,,0
2,100,1,2,205,3,1986,1,2,2,6,y,0466,f,same_color,,0
2,100,1,2,205,3,1986,1,2,2,7,y,i415xa-fn,f,same_color,,0
2,100,1,2,205,3,1986,1,2,2,8,y,0092,f,same_color,,0
2,100,1,2,205,3,1986,1,2,2,9,b,1149,m,same_sex,,0
2,101,1,2,206,5,2208,1,2,2,1,b,0153,m,same_sex,,0
2,101,1,2,206,5,2208,1,2,2,2,b,0924,m,same_sex,,0
2,101,1,2,206,5,2208,1,2,2,3,y,0326,f,same_color,,0
2,101,1,2,206,5,2208,1,2,2,4,b,0939,m,same_sex,,0
2,101,1,2,206,5,2208,1,2,2,5,y,0199,m,target,5,1
2,101,1,2,206,5,2208,1,2,2,6,y,0276,f,same_color,,0
2,101,1,2,206,5,2208,1,2,2,7,y,0560,f,same_color,,0
2,101,1,2,206,5,2208,1,2,2,8,b,0756,m,same_sex,,0
2,101,1,2,206,5,2208,1,2,2,9,y,i281ua-fn,f,same_color,,0
2,102,1,2,207,9,1758,0,2,2,1,b,i054ra-mg,m,same_sex,,0
2,102,1,2,207,9,1758,0,2,2,2,y,0366,f,same_color,,0
2,102,1,2,207,9,1758,0,2,2,3,b,0186,m,same_sex,,0
2,102,1,2,207,9,1758,0,2,2,4,y,1118,f,same_color,,0
2,102,1,2,207,9,1758,0,2,2,5,y,i434wa-fn,f,same_color,,0
2,102,1,2,207,9,1758,0,2,2,6,b,i066ra-mn,m,same_sex,,0
2,102,1,2,207,9,1758,0,2,2,7,b,0333,m,same_sex,,0
2,102,1,2,207,9,1758,0,2,2,8,y,0007,m,target,8,1
2,102,1,2,207,9,1758,0,2,2,9,y,0439,f,same_color,,0
2,103,1,2,208,6,2363,1,2,2,1,y,0472,f,same_color,,0
2,103,1,2,208,6,2363,1,2,2,2,y,0278,f,same_color,,0
2,103,1,2,208,6,2363,1,2,2,3,y,0098,f,same_color,,0
2,103,1,2,208,6,2363,1,2,2,4,y,0239,f,same_color,,0
2,103,1,2,208,6,2363,1,2,2,5,b,1129,m,same_sex,,0
2,103,1,2,208,6,2363,1,2,2,6,y,i264ta-mn,m,target,6,1
2,103,1,2,208,6,2363,1,2,2,7,b,0527,m,same_sex,,0
2,103,1,2,208,6,2363,1,2,2,8,b,0766,m,same_sex,,0
2,103,1,2,208,6,2363,1,2,2,9,b,0303,m,same_sex,,0
2,104,1,2,209,7,1547,0,2,2,1,y,0915,f,same_color,,0
2,104,1,2,209,7,1547,0,2,2,2,b,0542,m,same_sex,,0
2,104,1,2,209,7,1547,0,2,2,3,b,1192,m,same_sex,,0
2,104,1,2,209,7,1547,0,2,2,4,y,0411,f,same_color,,0
2,104,1,2,209,7,1547,0,2,2,5,y,i448xa-fn,f,same_color,,0
2,104,1,2,209,7,1547,0,2,2,6,b,0200,m,same_sex,,0
2,104,1,2,209,7,1547,0,2,2,7,y,1013,f,same_color,,0
2,104,1,2,209,7,1547,0,2,2,8,y,0301,m,target,8,1
2,104,1,2,209,7,1547,0,2,2,9,b,i274ta-mn,m,same_sex,,0
2,105,1,2,210,2,509,1,2,2,1,y,0149,f,same_color,,0
2,105,1,2,210,2,509,1,2,2,2,y,0805,m,target,2,1
2,105,1,2,210,2,509,1,2,2,3,b,i244ta-mn,m,same_sex,,0
2,105,1,2,210,2,509,1,2,2,4,b,0897,m,same_sex,,0
2,105,1,2,210,2,509,1,2,2,5,y,i235ua-fn,f,same_color,,0
2,105,1,2,210,2,509,1,2,2,6,y,1134,f,same_color,,0
2,105,1,2,210,2,509,1,2,2,7,y,0212,f,same_color,,0
2,105,1,2,210,2,509,1,2,2,8,b,1105,m,same_sex,,0
2,105,1,2,210,2,509,1,2,2,9,b,1110,m,same_sex,,0
3,1,1,1,211,3,988,1,1,1,1,b,48,m,same_color,,0
3,1,1,1,211,3,988,1,1,1,2,y,60,f,same_sex,,0
3,1,1,1,211,3,988,1,1,1,3,b,36,f,target,3,1
3,1,1,1,211,3,988,1,1,1,4,y,67,f,same_sex,,0
3,1,1,1,211,3,988,1,1,1,5,b,24,m,same_color,,0
3,1,1,1,211,3,988,1,1,1,6,y,57,f,same_sex,,0
3,1,1,1,211,3,988,1,1,1,7,y,83,f,same_sex,,0
3,1,1,1,211,3,988,1,1,1,8,b,10,m,same_color,,0
3,1,1,1,211,3,988,1,1,1,9,b,26,m,same_color,,0
3,2,1,1,212,9,609,0,1,1,1,b,77,f,target,1,1
3,2,1,1,212,9,609,0,1,1,2,b,18,m,same_color,,0
3,2,1,1,212,9,609,0,1,1,3,y,61,f,same_sex,,0
3,2,1,1,212,9,609,0,1,1,4,b,35,m,same_color,,0
3,2,1,1,212,9,609,0,1,1,5,b,52,m,same_color,,0
3,2,1,1,212,9,609,0,1,1,6,y,44,f,same_sex,,0
3,2,1,1,212,9,609,0,1,1,7,y,69,f,same_sex,,0
3,2,1,1,212,9,609,0,1,1,8,y,49,f,same_sex,,0
3,2,1,1,212,9,609,0,1,1,9,b,22,m,same_color,,0
3,3,1,1,213,1,4709,0,1,1,1,b,40,m,same_color,,0
3,3,1,1,213,1,4709,0,1,1,2,y,62,f,same_sex,,0
3,3,1,1,213,1,4709,0,1,1,3,y,31,f,same_sex,,0
3,3,1,1,213,1,4709,0,1,1,4,b,89,m,same_color,,0
3,3,1,1,213,1,4709,0,1,1,5,b,12,m,same_color,,0
3,3,1,1,213,1,4709,0,1,1,6,b,54,m,same_color,,0
3,3,1,1,213,1,4709,0,1,1,7,y,41,f,same_sex,,0
3,3,1,1,213,1,4709,0,1,1,8,y,3,f,same_sex,,0
3,3,1,1,213,1,4709,0,1,1,9,b,73,f,target,9,1
3,4,1,1,214,9,2586,1,1,1,1,y,56,f,same_sex,,0
3,4,1,1,214,9,2586,1,1,1,2,y,47,f,same_sex,,0
3,4,1,1,214,9,2586,1,1,1,3,b,16,m,same_color,,0
3,4,1,1,214,9,2586,1,1,1,4,y,63,f,same_sex,,0
3,4,1,1,214,9,2586,1,1,1,5,b,27,m,same_color,,0
3,4,1,1,214,9,2586,1,1,1,6,b,28,m,same_color,,0
3,4,1,1,214,9,2586,1,1,1,7,y,55,f,same_sex,,0
3,4,1,1,214,9,2586,1,1,1,8,b,13,m,same_color,,0
3,4,1,1,214,9,2586,1,1,1,9,b,58,f,target,9,1
3,5,1,1,215,2,656,1,1,1,1,b,76,m,same_color,,0
3,5,1,1,215,2,656,1,1,1,2,b,90,f,target,2,1
3,5,1,1,215,2,656,1,1,1,3,y,70,f,same_sex,,0
3,5,1,1,215,2,656,1,1,1,4,b,72,m,same_color,,0
3,5,1,1,215,2,656,1,1,1,5,y,75,f,same_sex,,0
3,5,1,1,215,2,656,1,1,1,6,y,15,f,same_sex,,0
3,5,1,1,215,2,656,1,1,1,7,b,37,m,same_color,,0
3,5,1,1,215,2,656,1,1,1,8,b,9,m,same_color,,0
3,5,1,1,215,2,656,1,1,1,9,y,7,f,same_sex,,0
3,6,1,1,216,5,996,1,1,1,1,b,0871,m,same_color,,0
3,6,1,1,216,5,996,1,1,1,2,y,0235,f,same_sex,,0
3,6,1,1,216,5,996,1,1,1,3,b,0979,m,same_color,,0
3,6,1,1,216,5,996,1,1,1,4,b,0657,m,same_color,,0
3,6,1,1,216,5,996,1,1,1,5,b,0140,f,target,5,1
3,6,1,1,216,5,996,1,1,1,6,b,1024,m,same_color,,0
3,6,1,1,216,5,996,1,1,1,7,y,i293ua-fn,f,same_sex,,0
3,6,1,1,216,5,996,1,1,1,8,y,0201,f,same_sex,,0
3,6,1,1,216,5,996,1,1,1,9,y,0675,f,same_sex,,0
3,7,1,1,217,1,578,1,1,1,1,b,0218,f,target,1,1
3,7,1,1,217,1,578,1,1,1,2,b,0566,m,same_color,,0
3,7,1,1,217,1,578,1,1,1,3,y,i032qa-fn,f,same_sex,,0
3,7,1,1,217,1,578,1,1,1,4,y,i291ua-fg,f,same_sex,,0
3,7,1,1,217,1,578,1,1,1,5,b,0310,m,same_color,,0
3,7,1,1,217,1,578,1,1,1,6,b,0082,m,same_color,,0
3,7,1,1,217,1,578,1,1,1,7,y,0993,f,same_sex,,0
3,7,1,1,217,1,578,1,1,1,8,b,0747,m,same_color,,0
3,7,1,1,217,1,578,1,1,1,9,y,0352,f,same_sex,,0
3,8,1,1,218,7,3884,0,1,1,1,b,0789,f,target,1,1
3,8,1,1,218,7,3884,0,1,1,2,y,0344,f,same_sex,,0
3,8,1,1,218,7,3884,0,1,1,3,b,i258ua-mn,m,same_color,,0
3,8,1,1,218,7,3884,0,1,1,4,b,0926,m,same_color,,0
3,8,1,1,218,7,3884,0,1,1,5,b,0572,m,same_color,,0
3,8,1,1,218,7,3884,0,1,1,6,y,0840,f,same_sex,,0
3,8,1,1,218,7,3884,0,1,1,7,b,0187,m,same_color,,0
3,8,1,1,218,7,3884,0,1,1,8,y,0149,f,same_sex,,0
3,8,1,1,218,7,3884,0,1,1,9,y,i431xa-fn,f,same_sex,,0
3,9,1,1,219,4,880,1,1,1,1,b,0744,m,same_color,,0
3,9,1,1,219,4,880,1,1,1,2,y,1159,f,same_sex,,0
3,9,1,1,219,4,880,1,1,1,3,b,0767,m,same_color,,0
3,9,1,1,219,4,880,1,1,1,4,b,i432wa-fn,f,target,4,1
3,9,1,1,219,4,880,1,1,1,5,y,0858,f,same_sex,,0
3,9,1,1,219,4,880,1,1,1,6,b,0785,m,same_color,,0
3,9,1,1,219,4,880,1,1,1,7,y,0404,f,same_sex,,0
3,9,1,1,219,4,880,1,1,1,8,y,0632,f,same_sex,,0
3,9,1,1,219,4,880,1,1,1,9,b,0155,m,same_color,,0
3,10,1,1,220,6,671,0,1,1,1,y,i245ua-fn,f,same_sex,,0
3,10,1,1,220,6,671,0,1,1,2,y,0945,f,same_sex,,0
3,10,1,1,220,6,671,0,1,1,3,b,0795,m,same_color,,0
3,10,1,1,220,6,671,0,1,1,4,y,0492,f,same_sex,,0
3,10,1,1,220,6,671,0,1,1,5,b,0955,m,same_color,,0
3,10,1,1,220,6,671,0,1,1,6,b,1163,m,same_color,,0
3,10,1,1,220,6,671,0,1,1,7,b,0008,m,same_color,,0
3,10,1,1,220,6,671,0,1,1,8,b,i429xa-fn,f,target,8,1
3,10,1,1,220,6,671,0,1,1,9,y,1134,f,same_sex,,0
3,11,1,1,221,1,2979,1,1,1,1,b,0386,f,target,1,1
