uidf,trial,age,usex,session,block,tid,chosen,rt,correct,target_color,target_sex,stim_i,im_color,im_id,im_sex,im_type,correctResponse,is_target
1,0,19,f,1,1,1,8,7478,0,b,m,0,b,1080,f,fc,,0
1,0,19,f,1,1,1,8,7478,0,b,m,1,y,0169,m,fs,,0
1,0,19,f,1,1,1,8,7478,0,b,m,2,b,1012,m,t,2,1
1,0,19,f,1,1,1,8,7478,0,b,m,3,y,0504,m,fs,,0
1,0,19,f,1,1,1,8,7478,0,b,m,4,b,0965,f,fc,,0
1,0,19,f,1,1,1,8,7478,0,b,m,5,b,0963,f,fc,,0
1,0,19,f,1,1,1,8,7478,0,b,m,6,y,1022,m,fs,,0
1,0,19,f,1,1,1,8,7478,0,b,m,7,y,0761,m,fs,,0
1,0,19,f,1,1,1,8,7478,0,b,m,8,b,0306,f,fc,,0
1,1,19,f,1,1,2,3,1816,1,b,m,0,b,0208,f,fc,,0
1,1,19,f,1,1,2,3,1816,1,b,m,1,y,1041,m,fs,,0
1,1,19,f,1,1,2,3,1816,1,b,m,2,b,i282ta-fn.jpg,f,fc,,0
1,1,19,f,1,1,2,3,1816,1,b,m,3,b,0499,m,t,3,1
1,1,19,f,1,1,2,3,1816,1,b,m,4,b,0154,f,fc,,0
1,1,19,f,1,1,2,3,1816,1,b,m,5,y,0869,m,fs,,0
1,1,19,f,1,1,2,3,1816,1,b,m,6,y,i011qa-mn.jpg,m,fs,,0
1,1,19,f,1,1,2,3,1816,1,b,m,7,b,0447,f,fc,,0
1,1,19,f,1,1,2,3,1816,1,b,m,8,y,0685,m,fs,,0
1,2,19,f,1,1,3,4,571,1,b,m,0,b,0540,f,fc,,0
1,2,19,f,1,1,3,4,571,1,b,m,1,y,0690,m,fs,,0
1,2,19,f,1,1,3,4,571,1,b,m,2,y,0523,m,fs,,0
1,2,19,f,1,1,3,4,571,1,b,m,3,y,0666,m,fs,,0
1,2,19,f,1,1,3,4,571,1,b,m,4,b,1140,m,t,4,1
1,2,19,f,1,1,3,4,571,1,b,m,5,y,0825,m,fs,,0
1,2,19,f,1,1,3,4,571,1,b,m,6,b,i061ra-fn.jpg,f,fc,,0
1,2,19,f,1,1,3,4,571,1,b,m,7,b,0145,f,fc,,0
1,2,19,f,1,1,3,4,571,1,b,m,8,b,i284ta-fg.jpg,f,fc,,0
1,3,19,f,1,1,4,0,740,0,b,m,0,b,0308,f,fc,,0
1,3,19,f,1,1,4,0,740,0,b,m,1,y,1098,m,fs,,0
1,3,19,f,1,1,4,0,740,0,b,m,2,b,0765,m,t,2,1
1,3,19,f,1,1,4,0,740,0,b,m,3,y,0618,m,fs,,0
1,3,19,f,1,1,4,0,740,0,b,m,4,y,1170,m,fs,,0
1,3,19,f,1,1,4,0,740,0,b,m,5,y,0826,m,fs,,0
1,3,19,f,1,1,4,0,740,0,b,m,6,b,0571,f,fc,,0
1,3,19,f,1,1,4,0,740,0,b,m,7,b,0452,f,fc,,0
1,3,19,f,1,1,4,0,740,0,b,m,8,b,0190,f,fc,,0
1,4,19,f,1,1,5,3,937,1,b,m,0,y,i215ta-mg.jpg,m,fs,,0
1,4,19,f,1,1,5,3,937,1,b,m,1,b,0936,f,fc,,0
1,4,19,f,1,1,5,3,937,1,b,m,2,b,0910,f,fc,,0
1,4,19,f,1,1,5,3,937,1,b,m,3,b,0989,m,t,3,1
1,4,19,f,1,1,5,3,937,1,b,m,4,y,0246,m,fs,,0
1,4,19,f,1,1,5,3,937,1,b,m,5,y,0240,m,fs,,0
1,4,19,f,1,1,5,3,937,1,b,m,6,b,i613ya-fg.jpg,f,fc,,0
1,4,19,f,1,1,5,3,937,1,b,m,7,y,0622,m,fs,,0
1,4,19,f,1,1,5,3,937,1,b,m,8,b,i306ua-fg.jpg,f,fc,,0
1,5,19,f,1,1,6,8,513,1,b,m,0,b,0742,f,fc,,0
1,5,19,f,1,1,6,8,513,1,b,m,1,y,i425xa-mn.jpg,m,fs,,0
1,5,19,f,1,1,6,8,513,1,b,m,2,b,0702,f,fc,,0
1,5,19,f,1,1,6,8,513,1,b,m,3,b,0717,f,fc,,0
1,5,19,f,1,1,6,8,513,1,b,m,4,b,1094,f,fc,,0
1,5,19,f,1,1,6,8,513,1,b,m,5,y,0900,m,fs,,0
1,5,19,f,1,1,6,8,513,1,b,m,6,y,0095,m,fs,,0
1,5,19,f,1,1,6,8,513,1,b,m,7,y,1074,m,fs,,0
1,5,19,f,1,1,6,8,513,1,b,m,8,b,i055ra-mn.jpg,m,t,8,1
1,6,19,f,1,1,7,8,491,1,b,m,0,y,0029,m,fs,,0
1,6,19,f,1,1,7,8,491,1,b,m,1,y,i239ta-mn.jpg,m,fs,,0
1,6,19,f,1,1,7,8,491,1,b,m,2,y,0509,m,fs,,0
1,6,19,f,1,1,7,8,491,1,b,m,3,b,1011,f,fc,,0
1,6,19,f,1,1,7,8,491,1,b,m,4,b,1019,f,fc,,0
1,6,19,f,1,1,7,8,491,1,b,m,5,y,0241,m,fs,,0
1,6,19,f,1,1,7,8,491,1,b,m,6,b,0227,f,fc,,0
1,6,19,f,1,1,7,8,491,1,b,m,7,b,0435,f,fc,,0
1,6,19,f,1,1,7,8,491,1,b,m,8,b,0612,m,t,8,1
1,7,19,f,1,1,8,2,869,1,b,m,0,b,0694,f,fc,,0
1,7,19,f,1,1,8,2,869,1,b,m,1,y,0844,m,fs,,0
1,7,19,f,1,1,8,2,869,1,b,m,2,b,0083,m,t,2,1
1,7,19,f,1,1,8,2,869,1,b,m,3,y,0508,m,fs,,0
1,7,19,f,1,1,8,2,869,1,b,m,4,b,0163,f,fc,,0
1,7,19,f,1,1,8,2,869,1,b,m,5,b,1044,f,fc,,0
1,7,19,f,1,1,8,2,869,1,b,m,6,y,0320,m,fs,,0
1,7,19,f,1,1,8,2,869,1,b,m,7,b,0815,f,fc,,0
1,7,19,f,1,1,8,2,869,1,b,m,8,y,1157,m,fs,,0
1,8,19,f,1,1,9,6,1465,1,b,m,0,y,0272,m,fs,,0
1,8,19,f,1,1,9,6,1465,1,b,m,1,b,0087,f,fc,,0
1,8,19,f,1,1,9,6,1465,1,b,m,2,b,0336,f,fc,,0
1,8,19,f,1,1,9,6,1465,1,b,m,3,b,0458,f,fc,,0
1,8,19,f,1,1,9,6,1465,1,b,m,4,y,0828,m,fs,,0
1,8,19,f,1,1,9,6,1465,1,b,m,5,y,0924,m,fs,,0
1,8,19,f,1,1,9,6,1465,1,b,m,6,b,i009ra-mn.jpg,m,t,6,1
1,8,19,f,1,1,9,6,1465,1,b,m,7,y,1030,m,fs,,0
1,8,19,f,1,1,9,6,1465,1,b,m,8,b,1047,f,fc,,0
1,9,19,f,1,1,10,4,1029,0,b,m,0,b,0505,f,fc,,0
1,9,19,f,1,1,10,4,1029,0,b,m,1,y,0368,m,fs,,0
1,9,19,f,1,1,10,4,1029,0,b,m,2,y,i246ua-mg.jpg,m,fs,,0
1,9,19,f,1,1,10,4,1029,0,b,m,3,y,0741,m,fs,,0
1,9,19,f,1,1,10,4,1029,0,b,m,4,b,1009,f,fc,,0
1,9,19,f,1,1,10,4,1029,0,b,m,5,b,0036,m,t,5,1
1,9,19,f,1,1,10,4,1029,0,b,m,6,b,i433xa-fn.jpg,f,fc,,0
1,9,19,f,1,1,10,4,1029,0,b,m,7,b,i301ta-fg.jpg,f,fc,,0
1,9,19,f,1,1,10,4,1029,0,b,m,8,y,1110,m,fs,,0
1,10,19,f,1,1,11,3,1177,1,b,m,0,y,i439wa-mn.jpg,m,fs,,0
1,10,19,f,1,1,11,3,1177,1,b,m,1,y,0913,m,fs,,0
1,10,19,f,1,1,11,3,1177,1,b,m,2,b,0703,f,fc,,0
1,10,19,f,1,1,11,3,1177,1,b,m,3,b,0593,m,t,3,1
1,10,19,f,1,1,11,3,1177,1,b,m,4,b,0350,f,fc,,0
1,10,19,f,1,1,11,3,1177,1,b,m,5,b,0487,f,fc,,0
1,10,19,f,1,1,11,3,1177,1,b,m,6,y,0116,m,fs,,0
1,10,19,f,1,1,11,3,1177,1,b,m,7,y,0646,m,fs,,0
1,10,19,f,1,1,11,3,1177,1,b,m,8,b,i302ta-fn.jpg,f,fc,,0
1,11,19,f,1,1,12,2,1099,1,b,m,0,y,0582,m,fs,,0
1,11,19,f,1,1,12,2,1099,1,b,m,1,b,1185,f,fc,,0
1,11,19,f,1,1,12,2,1099,1,b,m,2,b,0501,m,t,2,1
1,11,19,f,1,1,12,2,1099,1,b,m,3,b,0198,f,fc,,0
1,11,19,f,1,1,12,2,1099,1,b,m,4,b,1158,f,fc,,0
1,11,19,f,1,1,12,2,1099,1,b,m,5,b,i434wa-fn.jpg,f,fc,,0
1,11,19,f,1,1,12,2,1099,1,b,m,6,y,0999,m,fs,,0
1,11,19,f,1,1,12,2,1099,1,b,m,7,y,i238ta-mn.jpg,m,fs,,0
1,11,19,f,1,1,12,2,1099,1,b,m,8,y,1029,m,fs,,0
1,12,19,f,1,1,13,7,514,1,b,m,0,y,0122,m,fs,,0
1,12,19,f,1,1,13,7,514,1,b,m,1,b,i300ta-fn.jpg,f,fc,,0
1,12,19,f,1,1,13,7,514,1,b,m,2,b,0254,f,fc,,0
1,12,19,f,1,1,13,7,514,1,b,m,3,b,0818,f,fc,,0
1,12,19,f,1,1,13,7,514,1,b,m,4,y,0843,m,fs,,0
1,12,19,f,1,1,13,7,514,1,b,m,5,y,i602za-mn.jpg,m,fs,,0
1,12,19,f,1,1,13,7,514,1,b,m,6,b,0653,f,fc,,0
1,12,19,f,1,1,13,7,514,1,b,m,7,b,0129,m,t,7,1
1,12,19,f,1,1,13,7,514,1,b,m,8,y,0186,m,fs,,0
1,13,19,f,1,1,14,3,408,1,b,m,0,b,1079,f,fc,,0
1,13,19,f,1,1,14,3,408,1,b,m,1,b,0231,f,fc,,0
1,13,19,f,1,1,14,3,408,1,b,m,2,b,i222ua-fn.jpg,f,fc,,0
1,13,19,f,1,1,14,3,408,1,b,m,3,b,i059qa-mg.jpg,m,t,3,1
1,13,19,f,1,1,14,3,408,1,b,m,4,b,0344,f,fc,,0
1,13,19,f,1,1,14,3,408,1,b,m,5,y,0879,m,fs,,0
1,13,19,f,1,1,14,3,408,1,b,m,6,y,0829,m,fs,,0
1,13,19,f,1,1,14,3,408,1,b,m,7,y,0170,m,fs,,0
1,13,19,f,1,1,14,3,408,1,b,m,8,y,0640,m,fs,,0
1,14,19,f,1,1,15,2,675,1,b,m,0,y,0119,m,fs,,0
1,14,19,f,1,1,15,2,675,1,b,m,1,b,0485,f,fc,,0
1,14,19,f,1,1,15,2,675,1,b,m,2,b,i070qa-mn.jpg,m,t,2,1
1,14,19,f,1,1,15,2,675,1,b,m,3,b,1013,f,fc,,0
1,14,19,f,1,1,15,2,675,1,b,m,4,y,0205,m,fs,,0
1,14,19,f,1,1,15,2,675,1,b,m,5,b,0040,f,fc,,0
1,14,19,f,1,1,15,2,675,1,b,m,6,y,0113,m,fs,,0
1,14,19,f,1,1,15,2,675,1,b,m,7,y,1114,m,fs,,0
1,14,19,f,1,1,15,2,675,1,b,m,8,b,0949,f,fc,,0
1,15,19,f,1,1,16,1,1102,0,b,m,0,y,0059,m,fs,,0
1,15,19,f,1,1,16,1,1102,0,b,m,1,b,i074qa-fn.jpg,f,fc,,0
1,15,19,f,1,1,16,1,1102,0,b,m,2,b,0288,f,fc,,0
1,15,19,f,1,1,16,1,1102,0,b,m,3,b,0309,m,t,3,1
1,15,19,f,1,1,16,1,1102,0,b,m,4,y,0139,m,fs,,0
1,15,19,f,1,1,16,1,1102,0,b,m,5,y,i201ua-mg.jpg,m,fs,,0
1,15,19,f,1,1,16,1,1102,0,b,m,6,y,1122,m,fs,,0
1,15,19,f,1,1,16,1,1102,0,b,m,7,b,i086qa-fn.jpg,f,fc,,0
1,15,19,f,1,1,16,1,1102,0,b,m,8,b,i211ua-fn.jpg,f,fc,,0
1,16,19,f,1,1,17,0,259,1,b,m,0,b,1050,m,t,0,1
1,16,19,f,1,1,17,0,259,1,b,m,1,y,0587,m,fs,,0
1,16,19,f,1,1,17,0,259,1,b,m,2,y,0261,m,fs,,0
1,16,19,f,1,1,17,0,259,1,b,m,3,y,0383,m,fs,,0
1,16,19,f,1,1,17,0,259,1,b,m,4,b,i039ra-fn.jpg,f,fc,,0
1,16,19,f,1,1,17,0,259,1,b,m,5,b,0294,f,fc,,0
1,16,19,f,1,1,17,0,259,1,b,m,6,b,1102,f,fc,,0
1,16,19,f,1,1,17,0,259,1,b,m,7,y,0991,m,fs,,0
1,16,19,f,1,1,17,0,259,1,b,m,8,b,0969,f,fc,,0
1,17,19,f,1,1,18,6,391,0,b,m,0,y,0860,m,fs,,0
1,17,19,f,1,1,18,6,391,0,b,m,1,b,i435xa-fn.jpg,f,fc,,0
1,17,19,f,1,1,18,6,391,0,b,m,2,b,i283ta-fn.jpg,f,fc,,0
1,17,19,f,1,1,18,6,391,0,b,m,3,b,0124,m,t,3,1
1,17,19,f,1,1,18,6,391,0,b,m,4,y,0809,m,fs,,0
1,17,19,f,1,1,18,6,391,0,b,m,5,y,0174,m,fs,,0
1,17,19,f,1,1,18,6,391,0,b,m,6,b,1167,f,fc,,0
1,17,19,f,1,1,18,6,391,0,b,m,7,b,0418,f,fc,,0
1,17,19,f,1,1,18,6,391,0,b,m,8,y,0855,m,fs,,0
1,18,19,f,1,1,19,0,159,1,b,m,0,b,1014,m,t,0,1
1,18,19,f,1,1,19,0,159,1,b,m,1,y,0155,m,fs,,0
1,18,19,f,1,1,19,0,159,1,b,m,2,b,0500,f,fc,,0
1,18,19,f,1,1,19,0,159,1,b,m,3,b,0394,f,fc,,0
1,18,19,f,1,1,19,0,159,1,b,m,4,b,i624ya-fn.jpg,f,fc,,0
1,18,19,f,1,1,19,0,159,1,b,m,5,b,0043,f,fc,,0
1,18,19,f,1,1,19,0,159,1,b,m,6,y,1085,m,fs,,0
1,18,19,f,1,1,19,0,159,1,b,m,7,y,1086,m,fs,,0
1,18,19,f,1,1,19,0,159,1,b,m,8,y,0099,m,fs,,0
1,19,19,f,1,1,20,0,748,1,b,m,0,b,0135,m,t,0,1
1,19,19,f,1,1,20,0,748,1,b,m,1,b,0061,f,fc,,0
1,19,19,f,1,1,20,0,748,1,b,m,2,y,0138,m,fs,,0
1,19,19,f,1,1,20,0,748,1,b,m,3,b,0395,f,fc,,0
1,19,19,f,1,1,20,0,748,1,b,m,4,y,i440xa-mg.jpg,m,fs,,0
1,19,19,f,1,1,20,0,748,1,b,m,5,y,0865,m,fs,,0
1,19,19,f,1,1,20,0,748,1,b,m,6,y,0964,m,fs,,0
1,19,19,f,1,1,20,0,748,1,b,m,7,b,1196,f,fc,,0
1,19,19,f,1,1,20,0,748,1,b,m,8,b,1112,f,fc,,0
1,20,19,f,1,1,21,8,317,1,b,m,0,b,i245ua-fn.jpg,f,fc,,0
1,20,19,f,1,1,21,8,317,1,b,m,1,b,i063ra-fn.jpg,f,fc,,0
1,20,19,f,1,1,21,8,317,1,b,m,2,y,i270ta-mn.jpg,m,fs,,0
1,20,19,f,1,1,21,8,317,1,b,m,3,y,0866,m,fs,,0
1,20,19,f,1,1,21,8,317,1,b,m,4,y,0182,m,fs,,0
1,20,19,f,1,1,21,8,317,1,b,m,5,b,0635,f,fc,,0
1,20,19,f,1,1,21,8,317,1,b,m,6,y,0668,m,fs,,0
1,20,19,f,1,1,21,8,317,1,b,m,7,b,1133,f,fc,,0
1,20,19,f,1,1,21,8,317,1,b,m,8,b,0907,m,t,8,1
1,21,19,f,1,1,22,8,496,0,b,m,0,b,0801,m,t,0,1
1,21,19,f,1,1,22,8,496,0,b,m,1,b,i051qa-fn.jpg,f,fc,,0
1,21,19,f,1,1,22,8,496,0,b,m,2,y,0131,m,fs,,0
1,21,19,f,1,1,22,8,496,0,b,m,3,b,i619ya-fg.jpg,f,fc,,0
1,21,19,f,1,1,22,8,496,0,b,m,4,y,i253ua-mg.jpg,m,fs,,0
1,21,19,f,1,1,22,8,496,0,b,m,5,y,0491,m,fs,,0
1,21,19,f,1,1,22,8,496,0,b,m,6,y,0542,m,fs,,0
1,21,19,f,1,1,22,8,496,0,b,m,7,b,0682,f,fc,,0
1,21,19,f,1,1,22,8,496,0,b,m,8,b,i024qa-fn.jpg,f,fc,,0
1,22,19,f,1,1,23,4,467,1,b,m,0,b,i606za-fn.jpg,f,fc,,0
1,22,19,f,1,1,23,4,467,1,b,m,1,y,0075,m,fs,,0
1,22,19,f,1,1,23,4,467,1,b,m,2,y,i228ua-mg.jpg,m,fs,,0
1,22,19,f,1,1,23,4,467,1,b,m,3,y,0833,m,fs,,0
1,22,19,f,1,1,23,4,467,1,b,m,4,b,0680,m,t,4,1
1,22,19,f,1,1,23,4,467,1,b,m,5,y,0684,m,fs,,0
1,22,19,f,1,1,23,4,467,1,b,m,6,b,1127,f,fc,,0
1,22,19,f,1,1,23,4,467,1,b,m,7,b,0098,f,fc,,0
1,22,19,f,1,1,23,4,467,1,b,m,8,b,1016,f,fc,,0
1,23,19,f,1,1,24,5,952,1,b,m,0,b,1152,f,fc,,0
1,23,19,f,1,1,24,5,952,1,b,m,1,b,0104,f,fc,,0
1,23,19,f,1,1,24,5,952,1,b,m,2,b,0312,f,fc,,0
1,23,19,f,1,1,24,5,952,1,b,m,3,y,0744,m,fs,,0
1,23,19,f,1,1,24,5,952,1,b,m,4,y,0475,m,fs,,0
1,23,19,f,1,1,24,5,952,1,b,m,5,b,0022,m,t,5,1
1,23,19,f,1,1,24,5,952,1,b,m,6,b,1139,f,fc,,0
1,23,19,f,1,1,24,5,952,1,b,m,7,y,0144,m,fs,,0
1,23,19,f,1,1,24,5,952,1,b,m,8,y,0133,m,fs,,0
1,24,19,f,1,1,25,3,662,0,b,m,0,b,0925,f,fc,,0
1,24,19,f,1,1,25,3,662,0,b,m,1,y,0738,m,fs,,0
1,24,19,f,1,1,25,3,662,0,b,m,2,b,i247ta-fn.jpg,f,fc,,0
1,24,19,f,1,1,25,3,662,0,b,m,3,b,i292ua-fn.jpg,f,fc,,0
1,24,19,f,1,1,25,3,662,0,b,m,4,y,0979,m,fs,,0
1,24,19,f,1,1,25,3,662,0,b,m,5,y,1036,m,fs,,0
1,24,19,f,1,1,25,3,662,0,b,m,6,y,1180,m,fs,,0
1,24,19,f,1,1,25,3,662,0,b,m,7,b,0328,f,fc,,0
1,24,19,f,1,1,25,3,662,0,b,m,8,b,0134,m,t,8,1
1,25,19,f,1,1,26,4,314,1,b,m,0,y,0602,m,fs,,0
1,25,19,f,1,1,26,4,314,1,b,m,1,b,0547,f,fc,,0
1,25,19,f,1,1,26,4,314,1,b,m,2,y,0861,m,fs,,0
1,25,19,f,1,1,26,4,314,1,b,m,3,b,0177,f,fc,,0
1,25,19,f,1,1,26,4,314,1,b,m,4,b,i251ta-mn.jpg,m,t,4,1
1,25,19,f,1,1,26,4,314,1,b,m,5,b,0889,f,fc,,0
1,25,19,f,1,1,26,4,314,1,b,m,6,y,i416xa-mn.jpg,m,fs,,0
1,25,19,f,1,1,26,4,314,1,b,m,7,y,0269,m,fs,,0
1,25,19,f,1,1,26,4,314,1,b,m,8,b,0428,f,fc,,0
1,26,19,f,1,1,27,3,345,1,b,m,0,b,0111,f,fc,,0
1,26,19,f,1,1,27,3,345,1,b,m,1,b,1026,f,fc,,0
1,26,19,f,1,1,27,3,345,1,b,m,2,b,i444xa-fn.jpg,f,fc,,0
1,26,19,f,1,1,27,3,345,1,b,m,3,b,0853,m,t,3,1
1,26,19,f,1,1,27,3,345,1,b,m,4,y,0156,m,fs,,0
1,26,19,f,1,1,27,3,345,1,b,m,5,b,0239,f,fc,,0
1,26,19,f,1,1,27,3,345,1,b,m,6,y,0973,m,fs,,0
1,26,19,f,1,1,27,3,345,1,b,m,7,y,0273,m,fs,,0
1,26,19,f,1,1,27,3,345,1,b,m,8,y,0076,m,fs,,0
1,27,19,f,1,1,28,6,359,1,b,m,0,y,0968,m,fs,,0
1,27,19,f,1,1,28,6,359,1,b,m,1,b,0065,f,fc,,0
1,27,19,f,1,1,28,6,359,1,b,m,2,b,1119,f,fc,,0
1,27,19,f,1,1,28,6,359,1,b,m,3,y,0611,m,fs,,0
1,27,19,f,1,1,28,6,359,1,b,m,4,y,0282,m,fs,,0
1,27,19,f,1,1,28,6,359,1,b,m,5,y,0516,m,fs,,0
1,27,19,f,1,1,28,6,359,1,b,m,6,b,0805,m,t,6,1
1,27,19,f,1,1,28,6,359,1,b,m,7,b,i421wa-fn.jpg,f,fc,,0
1,27,19,f,1,1,28,6,359,1,b,m,8,b,0311,f,fc,,0
1,28,19,f,1,1,29,2,1810,0,b,m,0,y,0514,m,fs,,0
1,28,19,f,1,1,29,2,1810,0,b,m,1,y,i227ua-mn.jpg,m,fs,,0
1,28,19,f,1,1,29,2,1810,0,b,m,2,b,0769,f,fc,,0
1,28,19,f,1,1,29,2,1810,0,b,m,3,y,0852,m,fs,,0
1,28,19,f,1,1,29,2,1810,0,b,m,4,b,0379,f,fc,,0
1,28,19,f,1,1,29,2,1810,0,b,m,5,y,0136,m,fs,,0
1,28,19,f,1,1,29,2,1810,0,b,m,6,b,0764,m,t,6,1
1,28,19,f,1,1,29,2,1810,0,b,m,7,b,0433,f,fc,,0
1,28,19,f,1,1,29,2,1810,0,b,m,8,b,1134,f,fc,,0
1,29,19,f,1,1,30,2,661,1,b,m,0,b,0265,f,fc,,0
1,29,19,f,1,1,30,2,661,1,b,m,1,y,i250ta-mn.jpg,m,fs,,0
1,29,19,f,1,1,30,2,661,1,b,m,2,b,0007,m,t,2,1
1,29,19,f,1,1,30,2,661,1,b,m,3,b,1090,f,fc,,0
1,29,19,f,1,1,30,2,661,1,b,m,4,y,0698,m,fs,,0
1,29,19,f,1,1,30,2,661,1,b,m,5,y,0976,m,fs,,0
1,29,19,f,1,1,30,2,661,1,b,m,6,y,0608,m,fs,,0
1,29,19,f,1,1,30,2,661,1,b,m,7,b,0564,f,fc,,0
1,29,19,f,1,1,30,2,661,1,b,m,8,b,i293ua-fn.jpg,f,fc,,0
1,30,19,f,1,1,31,8,644,1,b,m,0,y,0184,m,fs,,0
1,30,19,f,1,1,31,8,644,1,b,m,1,b,0346,f,fc,,0
1,30,19,f,1,1,31,8,644,1,b,m,2,b,1164,f,fc,,0
1,30,19,f,1,1,31,8,644,1,b,m,3,b,1128,f,fc,,0
1,30,19,f,1,1,31,8,644,1,b,m,4,b,i281ua-fn.jpg,f,fc,,0
1,30,19,f,1,1,31,8,644,1,b,m,5,y,0332,m,fs,,0
1,30,19,f,1,1,31,8,644,1,b,m,6,y,0070,m,fs,,0
1,30,19,f,1,1,31,8,644,1,b,m,7,y,1145,m,fs,,0
1,30,19,f,1,1,31,8,644,1,b,m,8,b,0167,m,t,8,1
1,31,19,f,1,1,32,3,388,1,b,m,0,b,0033,f,fc,,0
1,31,19,f,1,1,32,3,388,1,b,m,1,b,i026qa-fn.jpg,f,fc,,0
1,31,19,f,1,1,32,3,388,1,b,m,2,y,i256ua-mn.jpg,m,fs,,0
1,31,19,f,1,1,32,3,388,1,b,m,3,b,0478,m,t,3,1
1,31,19,f,1,1,32,3,388,1,b,m,4,b,i610ya-fn.jpg,f,fc,,0
1,31,19,f,1,1,32,3,388,1,b,m,5,b,i612za-fn.jpg,f,fc,,0
1,31,19,f,1,1,32,3,388,1,b,m,6,y,0775,m,fs,,0
1,31,19,f,1,1,32,3,388,1,b,m,7,y,0672,m,fs,,0
1,31,19,f,1,1,32,3,388,1,b,m,8,y,0535,m,fs,,0
1,32,19,f,1,1,33,7,860,0,b,m,0,y,0192,m,fs,,0
1,32,19,f,1,1,33,7,860,0,b,m,1,b,0725,f,fc,,0
1,32,19,f,1,1,33,7,860,0,b,m,2,b,0713,m,t,2,1
1,32,19,f,1,1,33,7,860,0,b,m,3,b,i020qa-fg.jpg,f,fc,,0
1,32,19,f,1,1,33,7,860,0,b,m,4,y,0301,m,fs,,0
1,32,19,f,1,1,33,7,860,0,b,m,5,y,0657,m,fs,,0
1,32,19,f,1,1,33,7,860,0,b,m,6,y,i079ra-mn.jpg,m,fs,,0
1,32,19,f,1,1,33,7,860,0,b,m,7,b,0532,f,fc,,0
1,32,19,f,1,1,33,7,860,0,b,m,8,b,1035,f,fc,,0
1,33,19,f,1,1,34,1,364,1,b,m,0,y,0868,m,fs,,0
1,33,19,f,1,1,34,1,364,1,b,m,1,b,i040qa-mn.jpg,m,t,1,1
1,33,19,f,1,1,34,1,364,1,b,m,2,y,i288ta-mn.jpg,m,fs,,0
1,33,19,f,1,1,34,1,364,1,b,m,3,y,0518,m,fs,,0
1,33,19,f,1,1,34,1,364,1,b,m,4,b,0837,f,fc,,0
1,33,19,f,1,1,34,1,364,1,b,m,5,b,1007,f,fc,,0
1,33,19,f,1,1,34,1,364,1,b,m,6,y,0473,m,fs,,0
1,33,19,f,1,1,34,1,364,1,b,m,7,b,0443,f,fc,,0
1,33,19,f,1,1,34,1,364,1,b,m,8,b,0773,f,fc,,0
1,34,19,f,1,1,35,3,484,1,b,m,0,b,i262ta-fn.jpg,f,fc,,0
1,34,19,f,1,1,35,3,484,1,b,m,1,b,1155,f,fc,,0
1,34,19,f,1,1,35,3,484,1,b,m,2,y,0994,m,fs,,0
1,34,19,f,1,1,35,3,484,1,b,m,3,b,i034qa-mg.jpg,m,t,3,1
1,34,19,f,1,1,35,3,484,1,b,m,4,y,0880,m,fs,,0
1,34,19,f,1,1,35,3,484,1,b,m,5,b,1008,f,fc,,0
1,34,19,f,1,1,35,3,484,1,b,m,6,b,0781,f,fc,,0
1,34,19,f,1,1,35,3,484,1,b,m,7,y,0724,m,fs,,0
1,34,19,f,1,1,35,3,484,1,b,m,8,y,i423wa-mn.jpg,m,fs,,0
1,35,19,f,1,1,36,7,686,0,b,m,0,b,0992,m,t,0,1
1,35,19,f,1,1,36,7,686,0,b,m,1,b,0442,f,fc,,0
1,35,19,f,1,1,36,7,686,0,b,m,2,y,i204ua-mn.jpg,m,fs,,0
1,35,19,f,1,1,36,7,686,0,b,m,3,y,0471,m,fs,,0
1,35,19,f,1,1,36,7,686,0,b,m,4,b,0557,f,fc,,0
1,35,19,f,1,1,36,7,686,0,b,m,5,y,1002,m,fs,,0
1,35,19,f,1,1,36,7,686,0,b,m,6,y,i017qa-mg.jpg,m,fs,,0
1,35,19,f,1,1,36,7,686,0,b,m,7,b,0408,f,fc,,0
1,35,19,f,1,1,36,7,686,0,b,m,8,b,0466,f,fc,,0
1,36,19,f,1,1,37,6,465,1,b,m,0,b,0576,f,fc,,0
1,36,19,f,1,1,37,6,465,1,b,m,1,y,0854,m,fs,,0
1,36,19,f,1,1,37,6,465,1,b,m,2,y,0086,m,fs,,0
1,36,19,f,1,1,37,6,465,1,b,m,3,b,i409wa-fg.jpg,f,fc,,0
1,36,19,f,1,1,37,6,465,1,b,m,4,b,0560,f,fc,,0
1,36,19,f,1,1,37,6,465,1,b,m,5,y,0117,m,fs,,0
1,36,19,f,1,1,37,6,465,1,b,m,6,b,i241ua-mn.jpg,m,t,6,1
1,36,19,f,1,1,37,6,465,1,b,m,7,y,0619,m,fs,,0
1,36,19,f,1,1,37,6,465,1,b,m,8,b,1169,f,fc,,0
1,37,19,f,1,1,38,0,505,1,b,m,0,b,0015,m,t,0,1
1,37,19,f,1,1,38,0,505,1,b,m,1,y,i294ta-mg.jpg,m,fs,,0
1,37,19,f,1,1,38,0,505,1,b,m,2,y,0573,m,fs,,0
1,37,19,f,1,1,38,0,505,1,b,m,3,b,i266ta-fn.jpg,f,fc,,0
1,37,19,f,1,1,38,0,505,1,b,m,4,b,0555,f,fc,,0
1,37,19,f,1,1,38,0,505,1,b,m,5,b,i030qa-fg.jpg,f,fc,,0
1,37,19,f,1,1,38,0,505,1,b,m,6,y,0813,m,fs,,0
1,37,19,f,1,1,38,0,505,1,b,m,7,y,0066,m,fs,,0
1,37,19,f,1,1,38,0,505,1,b,m,8,b,0568,f,fc,,0
1,38,19,f,1,1,39,6,175,1,b,m,0,y,i200ua-mg.jpg,m,fs,,0
1,38,19,f,1,1,39,6,175,1,b,m,1,b,0041,f,fc,,0
1,38,19,f,1,1,39,6,175,1,b,m,2,b,0945,f,fc,,0
1,38,19,f,1,1,39,6,175,1,b,m,3,b,0347,f,fc,,0
1,38,19,f,1,1,39,6,175,1,b,m,4,b,0479,f,fc,,0
1,38,19,f,1,1,39,6,175,1,b,m,5,y,0610,m,fs,,0
1,38,19,f,1,1,39,6,175,1,b,m,6,b,0881,m,t,6,1
1,38,19,f,1,1,39,6,175,1,b,m,7,y,0233,m,fs,,0
1,38,19,f,1,1,39,6,175,1,b,m,8,y,0165,m,fs,,0
1,39,19,f,1,1,40,2,437,1,b,m,0,b,0548,f,fc,,0
1,39,19,f,1,1,40,2,437,1,b,m,1,y,0081,m,fs,,0
1,39,19,f,1,1,40,2,437,1,b,m,2,b,0522,m,t,2,1
1,39,19,f,1,1,40,2,437,1,b,m,3,b,0384,f,fc,,0
1,39,19,f,1,1,40,2,437,1,b,m,4,y,0886,m,fs,,0
1,39,19,f,1,1,40,2,437,1,b,m,5,b,0357,f,fc,,0
1,39,19,f,1,1,40,2,437,1,b,m,6,y,0580,m,fs,,0
1,39,19,f,1,1,40,2,437,1,b,m,7,b,0101,f,fc,,0
1,39,19,f,1,1,40,2,437,1,b,m,8,y,0887,m,fs,,0
1,40,19,f,1,1,41,3,325,1,b,m,0,y,0832,m,fs,,0
1,40,19,f,1,1,41,3,325,1,b,m,1,y,0803,m,fs,,0
1,40,19,f,1,1,41,3,325,1,b,m,2,b,i432wa-fn.jpg,f,fc,,0
1,40,19,f,1,1,41,3,325,1,b,m,3,b,1000,m,t,3,1
1,40,19,f,1,1,41,3,325,1,b,m,4,y,0819,m,fs,,0
1,40,19,f,1,1,41,3,325,1,b,m,5,b,1200,f,fc,,0
1,40,19,f,1,1,41,3,325,1,b,m,6,b,i621ya-fn.jpg,f,fc,,0
1,40,19,f,1,1,41,3,325,1,b,m,7,y,0006,m,fs,,0
1,40,19,f,1,1,41,3,325,1,b,m,8,b,0849,f,fc,,0
1,41,19,f,1,1,42,8,612,0,b,m,0,y,i278ua-mn.jpg,m,fs,,0
1,41,19,f,1,1,42,8,612,0,b,m,1,y,0960,m,fs,,0
1,41,19,f,1,1,42,8,612,0,b,m,2,b,0042,m,t,2,1
1,41,19,f,1,1,42,8,612,0,b,m,3,b,0762,f,fc,,0
1,41,19,f,1,1,42,8,612,0,b,m,4,b,0149,f,fc,,0
1,41,19,f,1,1,42,8,612,0,b,m,5,y,0901,m,fs,,0
1,41,19,f,1,1,42,8,612,0,b,m,6,b,0661,f,fc,,0
1,41,19,f,1,1,42,8,612,0,b,m,7,b,0605,f,fc,,0
1,41,19,f,1,1,42,8,612,0,b,m,8,y,1105,m,fs,,0
1,42,19,f,1,1,43,2,455,1,b,m,0,b,i605ya-fn.jpg,f,fc,,0
1,42,19,f,1,1,43,2,455,1,b,m,1,y,0108,m,fs,,0
1,42,19,f,1,1,43,2,455,1,b,m,2,b,0567,m,t,2,1
1,42,19,f,1,1,43,2,455,1,b,m,3,y,0597,m,fs,,0
1,42,19,f,1,1,43,2,455,1,b,m,4,y,i041ra-mn.jpg,m,fs,,0
1,42,19,f,1,1,43,2,455,1,b,m,5,b,0158,f,fc,,0
1,42,19,f,1,1,43,2,455,1,b,m,6,y,0930,m,fs,,0
1,42,19,f,1,1,43,2,455,1,b,m,7,b,0636,f,fc,,0
1,42,19,f,1,1,43,2,455,1,b,m,8,b,0264,f,fc,,0
1,43,19,f,1,1,44,4,79,1,b,m,0,b,0427,f,fc,,0
1,43,19,f,1,1,44,4,79,1,b,m,1,b,1078,f,fc,,0
1,43,19,f,1,1,44,4,79,1,b,m,2,y,0570,m,fs,,0
1,43,19,f,1,1,44,4,79,1,b,m,3,b,0107,f,fc,,0
1,43,19,f,1,1,44,4,79,1,b,m,4,b,1156,m,t,4,1
1,43,19,f,1,1,44,4,79,1,b,m,5,y,0488,m,fs,,0
1,43,19,f,1,1,44,4,79,1,b,m,6,y,0841,m,fs,,0
1,43,19,f,1,1,44,4,79,1,b,m,7,y,0739,m,fs,,0
1,43,19,f,1,1,44,4,79,1,b,m,8,b,0996,f,fc,,0
1,44,19,f,1,1,45,4,649,1,b,m,0,b,0704,f,fc,,0
1,44,19,f,1,1,45,4,649,1,b,m,1,y,0790,m,fs,,0
1,44,19,f,1,1,45,4,649,1,b,m,2,b,i286ta-fn.jpg,f,fc,,0
1,44,19,f,1,1,45,4,649,1,b,m,3,y,0770,m,fs,,0
1,44,19,f,1,1,45,4,649,1,b,m,4,b,i254ua-mn.jpg,m,t,4,1
1,44,19,f,1,1,45,4,649,1,b,m,5,y,0085,m,fs,,0
1,44,19,f,1,1,45,4,649,1,b,m,6,b,0670,f,fc,,0
1,44,19,f,1,1,45,4,649,1,b,m,7,y,0624,m,fs,,0
1,44,19,f,1,1,45,4,649,1,b,m,8,b,0450,f,fc,,0
1,45,19,f,1,1,46,6,402,1,b,m,0,y,1173,m,fs,,0
1,45,19,f,1,1,46,6,402,1,b,m,1,y,0659,m,fs,,0
1,45,19,f,1,1,46,6,402,1,b,m,2,y,0062,m,fs,,0
1,45,19,f,1,1,46,6,402,1,b,m,3,b,0728,f,fc,,0
1,45,19,f,1,1,46,6,402,1,b,m,4,b,0072,f,fc,,0
1,45,19,f,1,1,46,6,402,1,b,m,5,b,1089,f,fc,,0
1,45,19,f,1,1,46,6,402,1,b,m,6,b,0896,m,t,6,1
1,45,19,f,1,1,46,6,402,1,b,m,7,b,0894,f,fc,,0
1,45,19,f,1,1,46,6,402,1,b,m,8,y,0058,m,fs,,0
1,46,19,f,1,1,47,2,606,1,b,m,0,b,i403wa-fn.jpg,f,fc,,0
1,46,19,f,1,1,47,2,606,1,b,m,1,y,0729,m,fs,,0
1,46,19,f,1,1,47,2,606,1,b,m,2,b,i280ua-mn.jpg,m,t,2,1
1,46,19,f,1,1,47,2,606,1,b,m,3,y,i089qa-mn.jpg,m,fs,,0
1,46,19,f,1,1,47,2,606,1,b,m,4,b,1194,f,fc,,0
1,46,19,f,1,1,47,2,606,1,b,m,5,b,1176,f,fc,,0
1,46,19,f,1,1,47,2,606,1,b,m,6,b,0562,f,fc,,0
1,46,19,f,1,1,47,2,606,1,b,m,7,y,0821,m,fs,,0
1,46,19,f,1,1,47,2,606,1,b,m,8,y,0715,m,fs,,0
1,47,19,f,1,1,48,3,503,1,b,m,0,b,0277,f,fc,,0
1,47,19,f,1,1,48,3,503,1,b,m,1,y,0706,m,fs,,0
1,47,19,f,1,1,48,3,503,1,b,m,2,y,0614,m,fs,,0
1,47,19,f,1,1,48,3,503,1,b,m,3,b,0909,m,t,3,1
1,47,19,f,1,1,48,3,503,1,b,m,4,y,0468,m,fs,,0
1,47,19,f,1,1,48,3,503,1,b,m,5,b,0440,f,fc,,0
1,47,19,f,1,1,48,3,503,1,b,m,6,y,1206,m,fs,,0
1,47,19,f,1,1,48,3,503,1,b,m,7,b,0944,f,fc,,0
1,47,19,f,1,1,48,3,503,1,b,m,8,b,i032qa-fn.jpg,f,fc,,0
1,48,19,f,1,1,49,8,640,1,b,m,0,b,i031qa-fn.jpg,f,fc,,0
1,48,19,f,1,1,49,8,640,1,b,m,1,b,0472,f,fc,,0
1,48,19,f,1,1,49,8,640,1,b,m,2,y,0067,m,fs,,0
1,48,19,f,1,1,49,8,640,1,b,m,3,b,i603ya-fn.jpg,f,fc,,0
1,48,19,f,1,1,49,8,640,1,b,m,4,b,0872,f,fc,,0
1,48,19,f,1,1,49,8,640,1,b,m,5,y,0153,m,fs,,0
1,48,19,f,1,1,49,8,640,1,b,m,6,y,1149,m,fs,,0
1,48,19,f,1,1,49,8,640,1,b,m,7,y,0846,m,fs,,0
1,48,19,f,1,1,49,8,640,1,b,m,8,b,i232ua-mn.jpg,m,t,8,1
1,49,19,f,1,1,50,8,329,1,b,m,0,y,0025,m,fs,,0
1,49,19,f,1,1,50,8,329,1,b,m,1,b,0543,f,fc,,0
1,49,19,f,1,1,50,8,329,1,b,m,2,y,0940,m,fs,,0
1,49,19,f,1,1,50,8,329,1,b,m,3,b,i088qa-fn.jpg,f,fc,,0
1,49,19,f,1,1,50,8,329,1,b,m,4,b,0250,f,fc,,0
1,49,19,f,1,1,50,8,329,1,b,m,5,y,i219ta-mn.jpg,m,fs,,0
1,49,19,f,1,1,50,8,329,1,b,m,6,y,0932,m,fs,,0
1,49,19,f,1,1,50,8,329,1,b,m,7,b,1061,f,fc,,0
1,49,19,f,1,1,50,8,329,1,b,m,8,b,0874,m,t,8,1
1,50,19,f,1,1,51,1,805,0,b,m,0,y,0834,m,fs,,0
1,50,19,f,1,1,51,1,805,0,b,m,1,b,i076ra-fn.jpg,f,fc,,0
1,50,19,f,1,1,51,1,805,0,b,m,2,y,0566,m,fs,,0
1,50,19,f,1,1,51,1,805,0,b,m,3,b,0089,m,t,3,1
1,50,19,f,1,1,51,1,805,0,b,m,4,b,i601ya-fn.jpg,f,fc,,0
1,50,19,f,1,1,51,1,805,0,b,m,5,y,0339,m,fs,,0
1,50,19,f,1,1,51,1,805,0,b,m,6,y,0252,m,fs,,0
1,50,19,f,1,1,51,1,805,0,b,m,7,b,0389,f,fc,,0
1,50,19,f,1,1,51,1,805,0,b,m,8,b,i615za-fn.jpg,f,fc,,0
1,51,19,f,1,1,52,4,143,1,b,m,0,b,0445,f,fc,,0
1,51,19,f,1,1,52,4,143,1,b,m,1,b,i042ra-fn.jpg,f,fc,,0
1,51,19,f,1,1,52,4,143,1,b,m,2,y,0621,m,fs,,0
1,51,19,f,1,1,52,4,143,1,b,m,3,y,i048qa-mn.jpg,m,fs,,0
1,51,19,f,1,1,52,4,143,1,b,m,4,b,0918,m,t,4,1
1,51,19,f,1,1,52,4,143,1,b,m,5,y,1109,m,fs,,0
1,51,19,f,1,1,52,4,143,1,b,m,6,b,0953,f,fc,,0
1,51,19,f,1,1,52,4,143,1,b,m,7,b,0031,f,fc,,0
1,51,19,f,1,1,52,4,143,1,b,m,8,y,0857,m,fs,,0
1,52,19,f,1,1,53,7,670,0,b,m,0,b,0280,f,fc,,0
1,52,19,f,1,1,53,7,670,0,b,m,1,b,0229,m,t,1,1
1,52,19,f,1,1,53,7,670,0,b,m,2,y,0983,m,fs,,0
1,52,19,f,1,1,53,7,670,0,b,m,3,b,0455,f,fc,,0
1,52,19,f,1,1,53,7,670,0,b,m,4,y,0806,m,fs,,0
1,52,19,f,1,1,53,7,670,0,b,m,5,y,0148,m,fs,,0
1,52,19,f,1,1,53,7,670,0,b,m,6,y,1186,m,fs,,0
1,52,19,f,1,1,53,7,670,0,b,m,7,b,0541,f,fc,,0
1,52,19,f,1,1,53,7,670,0,b,m,8,b,i431xa-fn.jpg,f,fc,,0
1,53,19,f,1,1,54,4,512,0,b,m,0,b,i235ua-fn.jpg,f,fc,,0
1,53,19,f,1,1,54,4,512,0,b,m,1,y,1131,m,fs,,0
1,53,19,f,1,1,54,4,512,0,b,m,2,y,0908,m,fs,,0
1,53,19,f,1,1,54,4,512,0,b,m,3,b,0495,f,fc,,0
1,53,19,f,1,1,54,4,512,0,b,m,4,b,1135,f,fc,,0
1,53,19,f,1,1,54,4,512,0,b,m,5,b,1113,m,t,5,1
1,53,19,f,1,1,54,4,512,0,b,m,6,y,1179,m,fs,,0
1,53,19,f,1,1,54,4,512,0,b,m,7,y,0234,m,fs,,0
1,53,19,f,1,1,54,4,512,0,b,m,8,b,1018,f,fc,,0
1,54,19,f,1,1,55,3,535,1,b,m,0,b,0414,f,fc,,0
1,54,19,f,1,1,55,3,535,1,b,m,1,y,i296ta-mg.jpg,m,fs,,0
1,54,19,f,1,1,55,3,535,1,b,m,2,y,0726,m,fs,,0
1,54,19,f,1,1,55,3,535,1,b,m,3,b,0048,m,t,3,1
1,54,19,f,1,1,55,3,535,1,b,m,4,b,1054,f,fc,,0
1,54,19,f,1,1,55,3,535,1,b,m,5,y,0863,m,fs,,0
1,54,19,f,1,1,55,3,535,1,b,m,6,b,i607ya-fn.jpg,f,fc,,0
1,54,19,f,1,1,55,3,535,1,b,m,7,b,0123,f,fc,,0
1,54,19,f,1,1,55,3,535,1,b,m,8,y,0091,m,fs,,0
1,55,19,f,1,1,56,3,552,1,b,m,0,y,0539,m,fs,,0
1,55,19,f,1,1,56,3,552,1,b,m,1,b,0130,f,fc,,0
1,55,19,f,1,1,56,3,552,1,b,m,2,b,1151,f,fc,,0
1,55,19,f,1,1,56,3,552,1,b,m,3,b,0891,m,t,3,1
1,55,19,f,1,1,56,3,552,1,b,m,4,y,i257ua-mn.jpg,m,fs,,0
1,55,19,f,1,1,56,3,552,1,b,m,5,b,0459,f,fc,,0
1,55,19,f,1,1,56,3,552,1,b,m,6,b,i429xa-fn.jpg,f,fc,,0
1,55,19,f,1,1,56,3,552,1,b,m,7,y,0558,m,fs,,0
1,55,19,f,1,1,56,3,552,1,b,m,8,y,0551,m,fs,,0
1,56,19,f,1,1,57,4,1135,0,b,m,0,y,i408xa-mn.jpg,m,fs,,0
1,56,19,f,1,1,57,4,1135,0,b,m,1,y,0034,m,fs,,0
1,56,19,f,1,1,57,4,1135,0,b,m,2,y,0572,m,fs,,0
1,56,19,f,1,1,57,4,1135,0,b,m,3,b,i618ya-fg.jpg,f,fc,,0
1,56,19,f,1,1,57,4,1135,0,b,m,4,b,0787,f,fc,,0
1,56,19,f,1,1,57,4,1135,0,b,m,5,y,0173,m,fs,,0
1,56,19,f,1,1,57,4,1135,0,b,m,6,b,1004,m,t,6,1
1,56,19,f,1,1,57,4,1135,0,b,m,7,b,0317,f,fc,,0
1,56,19,f,1,1,57,4,1135,0,b,m,8,b,0598,f,fc,,0
1,57,19,f,1,1,58,4,180,1,b,m,0,b,1202,f,fc,,0
1,57,19,f,1,1,58,4,180,1,b,m,1,y,0152,m,fs,,0
1,57,19,f,1,1,58,4,180,1,b,m,2,b,0723,f,fc,,0
1,57,19,f,1,1,58,4,180,1,b,m,3,y,1055,m,fs,,0
1,57,19,f,1,1,58,4,180,1,b,m,4,b,0528,m,t,4,1
1,57,19,f,1,1,58,4,180,1,b,m,5,y,1003,m,fs,,0
1,57,19,f,1,1,58,4,180,1,b,m,6,b,0068,f,fc,,0
1,57,19,f,1,1,58,4,180,1,b,m,7,y,1129,m,fs,,0
1,57,19,f,1,1,58,4,180,1,b,m,8,b,0638,f,fc,,0
1,58,19,f,1,1,59,2,597,0,b,m,0,b,0650,f,fc,,0
1,58,19,f,1,1,59,2,597,0,b,m,1,y,0050,m,fs,,0
1,58,19,f,1,1,59,2,597,0,b,m,2,b,0446,f,fc,,0
1,58,19,f,1,1,59,2,597,0,b,m,3,y,0281,m,fs,,0
1,58,19,f,1,1,59,2,597,0,b,m,4,b,0088,m,t,4,1
1,58,19,f,1,1,59,2,597,0,b,m,5,b,0554,f,fc,,0
1,58,19,f,1,1,59,2,597,0,b,m,6,b,0632,f,fc,,0
1,58,19,f,1,1,59,2,597,0,b,m,7,y,0096,m,fs,,0
1,58,19,f,1,1,59,2,597,0,b,m,8,y,0526,m,fs,,0
1,59,19,f,1,1,60,1,317,1,b,m,0,b,0665,f,fc,,0
1,59,19,f,1,1,60,1,317,1,b,m,1,b,0069,m,t,1,1
1,59,19,f,1,1,60,1,317,1,b,m,2,b,0196,f,fc,,0
1,59,19,f,1,1,60,1,317,1,b,m,3,y,0919,m,fs,,0
1,59,19,f,1,1,60,1,317,1,b,m,4,y,0217,m,fs,,0
1,59,19,f,1,1,60,1,317,1,b,m,5,y,0128,m,fs,,0
1,59,19,f,1,1,60,1,317,1,b,m,6,b,1154,f,fc,,0
1,59,19,f,1,1,60,1,317,1,b,m,7,b,0970,f,fc,,0
1,59,19,f,1,1,60,1,317,1,b,m,8,y,0464,m,fs,,0
1,60,19,f,1,1,61,7,605,0,b,m,0,b,1077,m,t,0,1
1,60,19,f,1,1,61,7,605,0,b,m,1,y,0064,m,fs,,0
1,60,19,f,1,1,61,7,605,0,b,m,2,y,0355,m,fs,,0
1,60,19,f,1,1,61,7,605,0,b,m,3,b,0185,f,fc,,0
1,60,19,f,1,1,61,7,605,0,b,m,4,b,0305,f,fc,,0
1,60,19,f,1,1,61,7,605,0,b,m,5,y,0845,m,fs,,0
1,60,19,f,1,1,61,7,605,0,b,m,6,y,0817,m,fs,,0
1,60,19,f,1,1,61,7,605,0,b,m,7,b,1045,f,fc,,0
1,60,19,f,1,1,61,7,605,0,b,m,8,b,0392,f,fc,,0
1,61,19,f,1,1,62,3,625,0,b,m,0,b,0382,f,fc,,0
1,61,19,f,1,1,62,3,625,0,b,m,1,y,0664,m,fs,,0
1,61,19,f,1,1,62,3,625,0,b,m,2,y,0164,m,fs,,0
1,61,19,f,1,1,62,3,625,0,b,m,3,b,0219,f,fc,,0
1,61,19,f,1,1,62,3,625,0,b,m,4,b,0730,f,fc,,0
1,61,19,f,1,1,62,3,625,0,b,m,5,y,0947,m,fs,,0
1,61,19,f,1,1,62,3,625,0,b,m,6,b,i064ra-mn.jpg,m,t,6,1
1,61,19,f,1,1,62,3,625,0,b,m,7,b,0279,f,fc,,0
1,61,19,f,1,1,62,3,625,0,b,m,8,y,0137,m,fs,,0
1,62,19,f,1,1,63,4,330,1,b,m,0,b,0296,f,fc,,0
1,62,19,f,1,1,63,4,330,1,b,m,1,y,0019,m,fs,,0
1,62,19,f,1,1,63,4,330,1,b,m,2,b,0325,f,fc,,0
1,62,19,f,1,1,63,4,330,1,b,m,3,y,0109,m,fs,,0
1,62,19,f,1,1,63,4,330,1,b,m,4,b,0859,m,t,4,1
1,62,19,f,1,1,63,4,330,1,b,m,5,b,1070,f,fc,,0
1,62,19,f,1,1,63,4,330,1,b,m,6,y,0038,m,fs,,0
1,62,19,f,1,1,63,4,330,1,b,m,7,b,i418wa-fn.jpg,f,fc,,0
1,62,19,f,1,1,63,4,330,1,b,m,8,y,0710,m,fs,,0
1,63,19,f,1,1,64,4,415,0,b,m,0,b,0967,f,fc,,0
1,63,19,f,1,1,64,4,415,0,b,m,1,y,0793,m,fs,,0
1,63,19,f,1,1,64,4,415,0,b,m,2,y,0285,m,fs,,0
1,63,19,f,1,1,64,4,415,0,b,m,3,y,0736,m,fs,,0
1,63,19,f,1,1,64,4,415,0,b,m,4,b,0437,f,fc,,0
1,63,19,f,1,1,64,4,415,0,b,m,5,b,1062,m,t,5,1
1,63,19,f,1,1,64,4,415,0,b,m,6,y,i240ua-mn.jpg,m,fs,,0
1,63,19,f,1,1,64,4,415,0,b,m,7,b,1181,f,fc,,0
1,63,19,f,1,1,64,4,415,0,b,m,8,b,1059,f,fc,,0
1,64,19,f,1,1,65,8,765,0,b,m,0,y,i231ua-mn.jpg,m,fs,,0
1,64,19,f,1,1,65,8,765,0,b,m,1,y,i420xa-mn.jpg,m,fs,,0
1,64,19,f,1,1,65,8,765,0,b,m,2,b,1141,m,t,2,1
1,64,19,f,1,1,65,8,765,0,b,m,3,y,0162,m,fs,,0
1,64,19,f,1,1,65,8,765,0,b,m,4,y,i224ta-mn.jpg,m,fs,,0
1,64,19,f,1,1,65,8,765,0,b,m,5,b,0302,f,fc,,0
1,64,19,f,1,1,65,8,765,0,b,m,6,b,0194,f,fc,,0
1,64,19,f,1,1,65,8,765,0,b,m,7,b,0410,f,fc,,0
1,64,19,f,1,1,65,8,765,0,b,m,8,b,0620,f,fc,,0
1,65,19,f,1,1,66,3,298,1,b,m,0,b,i236ua-fn.jpg,f,fc,,0
1,65,19,f,1,1,66,3,298,1,b,m,1,b,0399,f,fc,,0
1,65,19,f,1,1,66,3,298,1,b,m,2,y,1010,m,fs,,0
1,65,19,f,1,1,66,3,298,1,b,m,3,b,i073ra-mg.jpg,m,t,3,1
1,65,19,f,1,1,66,3,298,1,b,m,4,y,0220,m,fs,,0
1,65,19,f,1,1,66,3,298,1,b,m,5,y,1168,m,fs,,0
1,65,19,f,1,1,66,3,298,1,b,m,6,b,0436,f,fc,,0
1,65,19,f,1,1,66,3,298,1,b,m,7,y,0783,m,fs,,0
1,65,19,f,1,1,66,3,298,1,b,m,8,b,0255,f,fc,,0
1,66,19,f,1,1,67,1,162,1,b,m,0,b,i285ta-fn.jpg,f,fc,,0
1,66,19,f,1,1,67,1,162,1,b,m,1,b,1205,m,t,1,1
1,66,19,f,1,1,67,1,162,1,b,m,2,y,0763,m,fs,,0
1,66,19,f,1,1,67,1,162,1,b,m,3,b,0914,f,fc,,0
1,66,19,f,1,1,67,1,162,1,b,m,4,y,0237,m,fs,,0
1,66,19,f,1,1,67,1,162,1,b,m,5,y,0701,m,fs,,0
1,66,19,f,1,1,67,1,162,1,b,m,6,b,1165,f,fc,,0
1,66,19,f,1,1,67,1,162,1,b,m,7,y,0009,m,fs,,0
1,66,19,f,1,1,67,1,162,1,b,m,8,b,0981,f,fc,,0
1,67,19,f,1,1,68,3,207,1,b,m,0,y,0037,m,fs,,0
1,67,19,f,1,1,68,3,207,1,b,m,1,b,0782,f,fc,,0
1,67,19,f,1,1,68,3,207,1,b,m,2,y,0754,m,fs,,0
1,67,19,f,1,1,68,3,207,1,b,m,3,b,0592,m,t,3,1
1,67,19,f,1,1,68,3,207,1,b,m,4,b,1146,f,fc,,0
1,67,19,f,1,1,68,3,207,1,b,m,5,b,0689,f,fc,,0
1,67,19,f,1,1,68,3,207,1,b,m,6,y,0629,m,fs,,0
1,67,19,f,1,1,68,3,207,1,b,m,7,b,0045,f,fc,,0
1,67,19,f,1,1,68,3,207,1,b,m,8,y,0933,m,fs,,0
1,68,19,f,1,1,69,7,454,1,b,m,0,b,i446wa-fn.jpg,f,fc,,0
1,68,19,f,1,1,69,7,454,1,b,m,1,b,i413xa-fn.jpg,f,fc,,0
1,68,19,f,1,1,69,7,454,1,b,m,2,y,1027,m,fs,,0
1,68,19,f,1,1,69,7,454,1,b,m,3,y,1071,m,fs,,0
1,68,19,f,1,1,69,7,454,1,b,m,4,b,0235,f,fc,,0
1,68,19,f,1,1,69,7,454,1,b,m,5,y,0921,m,fs,,0
1,68,19,f,1,1,69,7,454,1,b,m,6,y,0114,m,fs,,0
1,68,19,f,1,1,69,7,454,1,b,m,7,b,0888,m,t,7,1
1,68,19,f,1,1,69,7,454,1,b,m,8,b,i441xa-fn.jpg,f,fc,,0
1,69,19,f,1,1,70,2,707,1,b,m,0,b,i279ua-fn.jpg,f,fc,,0
1,69,19,f,1,1,70,2,707,1,b,m,1,b,i013qa-fn.jpg,f,fc,,0
1,69,19,f,1,1,70,2,707,1,b,m,2,b,1125,m,t,2,1
1,69,19,f,1,1,70,2,707,1,b,m,3,b,0873,f,fc,,0
1,69,19,f,1,1,70,2,707,1,b,m,4,b,i226ta-fg.jpg,f,fc,,0
1,69,19,f,1,1,70,2,707,1,b,m,5,y,0160,m,fs,,0
1,69,19,f,1,1,70,2,707,1,b,m,6,y,0939,m,fs,,0
1,69,19,f,1,1,70,2,707,1,b,m,7,y,0159,m,fs,,0
1,69,19,f,1,1,70,2,707,1,b,m,8,y,0959,m,fs,,0
1,70,19,f,1,1,71,7,476,1,b,m,0,y,0486,m,fs,,0
1,70,19,f,1,1,71,7,476,1,b,m,1,b,0506,f,fc,,0
1,70,19,f,1,1,71,7,476,1,b,m,2,b,0727,f,fc,,0
1,70,19,f,1,1,71,7,476,1,b,m,3,y,0503,m,fs,,0
1,70,19,f,1,1,71,7,476,1,b,m,4,y,1096,m,fs,,0
1,70,19,f,1,1,71,7,476,1,b,m,5,b,1174,f,fc,,0
1,70,19,f,1,1,71,7,476,1,b,m,6,y,0613,m,fs,,0
1,70,19,f,1,1,71,7,476,1,b,m,7,b,0760,m,t,7,1
1,70,19,f,1,1,71,7,476,1,b,m,8,b,1048,f,fc,,0
1,71,19,f,1,1,72,2,585,1,b,m,0,y,0287,m,fs,,0
1,71,19,f,1,1,72,2,585,1,b,m,1,b,0421,f,fc,,0
1,71,19,f,1,1,72,2,585,1,b,m,2,b,0776,m,t,2,1
1,71,19,f,1,1,72,2,585,1,b,m,3,y,0146,m,fs,,0
1,71,19,f,1,1,72,2,585,1,b,m,4,b,1057,f,fc,,0
1,71,19,f,1,1,72,2,585,1,b,m,5,b,0937,f,fc,,0
1,71,19,f,1,1,72,2,585,1,b,m,6,y,i085ra-mg.jpg,m,fs,,0
1,71,19,f,1,1,72,2,585,1,b,m,7,y,0369,m,fs,,0
1,71,19,f,1,1,72,2,585,1,b,m,8,b,0448,f,fc,,0
1,72,19,f,1,1,73,2,472,1,b,m,0,b,0780,f,fc,,0
1,72,19,f,1,1,73,2,472,1,b,m,1,b,0831,f,fc,,0
1,72,19,f,1,1,73,2,472,1,b,m,2,b,0692,m,t,2,1
1,72,19,f,1,1,73,2,472,1,b,m,3,y,0014,m,fs,,0
1,72,19,f,1,1,73,2,472,1,b,m,4,y,0671,m,fs,,0
1,72,19,f,1,1,73,2,472,1,b,m,5,y,i015ra-mn.jpg,m,fs,,0
1,72,19,f,1,1,73,2,472,1,b,m,6,b,0060,f,fc,,0
1,72,19,f,1,1,73,2,472,1,b,m,7,y,0565,m,fs,,0
1,72,19,f,1,1,73,2,472,1,b,m,8,b,0687,f,fc,,0
1,73,19,f,1,1,74,1,385,1,b,m,0,y,0603,m,fs,,0
1,73,19,f,1,1,74,1,385,1,b,m,1,b,i258ua-mn.jpg,m,t,1,1
1,73,19,f,1,1,74,1,385,1,b,m,2,b,i212ta-fn.jpg,f,fc,,0
1,73,19,f,1,1,74,1,385,1,b,m,3,b,i080qa-fn.jpg,f,fc,,0
1,73,19,f,1,1,74,1,385,1,b,m,4,y,i056qa-mn.jpg,m,fs,,0
1,73,19,f,1,1,74,1,385,1,b,m,5,b,0242,f,fc,,0
1,73,19,f,1,1,74,1,385,1,b,m,6,b,0125,f,fc,,0
1,73,19,f,1,1,74,1,385,1,b,m,7,y,0952,m,fs,,0
1,73,19,f,1,1,74,1,385,1,b,m,8,y,1043,m,fs,,0
1,74,19,f,1,1,75,2,576,0,b,m,0,y,1093,m,fs,,0
1,74,19,f,1,1,75,2,576,0,b,m,1,b,i267ta-mn.jpg,m,t,1,1
1,74,19,f,1,1,75,2,576,0,b,m,2,b,0390,f,fc,,0
1,74,19,f,1,1,75,2,576,0,b,m,3,y,0222,m,fs,,0
1,74,19,f,1,1,75,2,576,0,b,m,4,b,i298ua-fn.jpg,f,fc,,0
1,74,19,f,1,1,75,2,576,0,b,m,5,y,0604,m,fs,,0
1,74,19,f,1,1,75,2,576,0,b,m,6,b,0090,f,fc,,0
1,74,19,f,1,1,75,2,576,0,b,m,7,y,0275,m,fs,,0
1,74,19,f,1,1,75,2,576,0,b,m,8,b,0789,f,fc,,0
1,75,19,f,1,1,76,3,281,1,b,m,0,y,i443xa-mn.jpg,m,fs,,0
1,75,19,f,1,1,76,3,281,1,b,m,1,y,1121,m,fs,,0
1,75,19,f,1,1,76,3,281,1,b,m,2,y,0142,m,fs,,0
1,75,19,f,1,1,76,3,281,1,b,m,3,b,0200,m,t,3,1
1,75,19,f,1,1,76,3,281,1,b,m,4,b,0469,f,fc,,0
1,75,19,f,1,1,76,3,281,1,b,m,5,b,0209,f,fc,,0
1,75,19,f,1,1,76,3,281,1,b,m,6,b,0266,f,fc,,0
1,75,19,f,1,1,76,3,281,1,b,m,7,y,1025,m,fs,,0
1,75,19,f,1,1,76,3,281,1,b,m,8,b,0386,f,fc,,0
1,76,19,f,1,1,77,1,500,1,b,m,0,b,0676,f,fc,,0
1,76,19,f,1,1,77,1,500,1,b,m,1,b,i268ta-mn.jpg,m,t,1,1
1,76,19,f,1,1,77,1,500,1,b,m,2,y,i412xa-mn.jpg,m,fs,,0
1,76,19,f,1,1,77,1,500,1,b,m,3,y,0712,m,fs,,0
1,76,19,f,1,1,77,1,500,1,b,m,4,b,i304ua-fg.jpg,f,fc,,0
1,76,19,f,1,1,77,1,500,1,b,m,5,y,1197,m,fs,,0
1,76,19,f,1,1,77,1,500,1,b,m,6,b,0238,f,fc,,0
1,76,19,f,1,1,77,1,500,1,b,m,7,y,i068qa-mn.jpg,m,fs,,0
1,76,19,f,1,1,77,1,500,1,b,m,8,b,i275ua-fg.jpg,f,fc,,0
1,77,19,f,1,1,78,1,1308,0,b,m,0,y,0830,m,fs,,0
1,77,19,f,1,1,78,1,1308,0,b,m,1,b,0600,f,fc,,0
1,77,19,f,1,1,78,1,1308,0,b,m,2,b,0215,m,t,2,1
1,77,19,f,1,1,78,1,1308,0,b,m,3,b,0365,f,fc,,0
1,77,19,f,1,1,78,1,1308,0,b,m,4,b,0663,f,fc,,0
1,77,19,f,1,1,78,1,1308,0,b,m,5,y,0623,m,fs,,0
1,77,19,f,1,1,78,1,1308,0,b,m,6,y,1037,m,fs,,0
1,77,19,f,1,1,78,1,1308,0,b,m,7,y,0106,m,fs,,0
1,77,19,f,1,1,78,1,1308,0,b,m,8,b,0422,f,fc,,0
1,78,19,f,1,1,79,8,724,1,b,m,0,b,0013,f,fc,,0
1,78,19,f,1,1,79,8,724,1,b,m,1,y,0030,m,fs,,0
1,78,19,f,1,1,79,8,724,1,b,m,2,b,i404xa-fn.jpg,f,fc,,0
1,78,19,f,1,1,79,8,724,1,b,m,3,y,0533,m,fs,,0
1,78,19,f,1,1,79,8,724,1,b,m,4,b,i018ra-fn.jpg,f,fc,,0
1,78,19,f,1,1,79,8,724,1,b,m,5,y,0512,m,fs,,0
1,78,19,f,1,1,79,8,724,1,b,m,6,y,0578,m,fs,,0
1,78,19,f,1,1,79,8,724,1,b,m,7,b,0221,f,fc,,0
1,78,19,f,1,1,79,8,724,1,b,m,8,b,0778,m,t,8,1
1,79,19,f,1,1,80,6,257,1,b,m,0,y,0814,m,fs,,0
1,79,19,f,1,1,80,6,257,1,b,m,1,b,0417,f,fc,,0
1,79,19,f,1,1,80,6,257,1,b,m,2,b,0786,f,fc,,0
1,79,19,f,1,1,80,6,257,1,b,m,3,y,i405xa-fn.jpg,m,fs,,0
1,79,19,f,1,1,80,6,257,1,b,m,4,y,1183,m,fs,,0
1,79,19,f,1,1,80,6,257,1,b,m,5,y,i038qa-mn.jpg,m,fs,,0
1,79,19,f,1,1,80,6,257,1,b,m,6,b,0370,m,t,6,1
1,79,19,f,1,1,80,6,257,1,b,m,7,b,0779,f,fc,,0
1,79,19,f,1,1,80,6,257,1,b,m,8,b,0529,f,fc,,0
1,80,19,f,1,1,81,6,1121,1,b,m,0,y,0876,m,fs,,0
1,80,19,f,1,1,81,6,1121,1,b,m,1,b,i604za-fn.jpg,f,fc,,0
1,80,19,f,1,1,81,6,1121,1,b,m,2,b,0648,f,fc,,0
1,80,19,f,1,1,81,6,1121,1,b,m,3,y,i273ua-mn.jpg,m,fs,,0
1,80,19,f,1,1,81,6,1121,1,b,m,4,y,i297ta-mn.jpg,m,fs,,0
1,80,19,f,1,1,81,6,1121,1,b,m,5,b,0425,f,fc,,0
1,80,19,f,1,1,81,6,1121,1,b,m,6,b,0923,m,t,6,1
1,80,19,f,1,1,81,6,1121,1,b,m,7,y,i276ua-mn.jpg,m,fs,,0
1,80,19,f,1,1,81,6,1121,1,b,m,8,b,0915,f,fc,,0
1,81,19,f,1,1,82,5,747,1,b,m,0,b,i210ua-fn.jpg,f,fc,,0
1,81,19,f,1,1,82,5,747,1,b,m,1,y,0707,m,fs,,0
1,81,19,f,1,1,82,5,747,1,b,m,2,y,0489,m,fs,,0
1,81,19,f,1,1,82,5,747,1,b,m,3,b,0314,f,fc,,0
1,81,19,f,1,1,82,5,747,1,b,m,4,y,0811,m,fs,,0
1,81,19,f,1,1,82,5,747,1,b,m,5,b,0039,m,t,5,1
1,81,19,f,1,1,82,5,747,1,b,m,6,y,0470,m,fs,,0
1,81,19,f,1,1,82,5,747,1,b,m,7,b,i037ra-fn.jpg,f,fc,,0
1,81,19,f,1,1,82,5,747,1,b,m,8,b,1159,f,fc,,0
1,82,19,f,1,1,83,2,665,0,b,m,0,b,0971,f,fc,,0
1,82,19,f,1,1,83,2,665,0,b,m,1,y,0847,m,fs,,0
1,82,19,f,1,1,83,2,665,0,b,m,2,b,0434,f,fc,,0
1,82,19,f,1,1,83,2,665,0,b,m,3,b,0002,m,t,3,1
1,82,19,f,1,1,83,2,665,0,b,m,4,y,0753,m,fs,,0
1,82,19,f,1,1,83,2,665,0,b,m,5,b,0337,f,fc,,0
1,82,19,f,1,1,83,2,665,0,b,m,6,b,i050qa-fg.jpg,f,fc,,0
1,82,19,f,1,1,83,2,665,0,b,m,7,y,0683,m,fs,,0
1,82,19,f,1,1,83,2,665,0,b,m,8,y,1033,m,fs,,0
1,83,19,f,1,1,84,1,413,1,b,m,0,y,0972,m,fs,,0
1,83,19,f,1,1,84,1,413,1,b,m,1,b,0283,m,t,1,1
1,83,19,f,1,1,84,1,413,1,b,m,2,b,0432,f,fc,,0
1,83,19,f,1,1,84,1,413,1,b,m,3,b,0993,f,fc,,0
1,83,19,f,1,1,84,1,413,1,b,m,4,b,0352,f,fc,,0
1,83,19,f,1,1,84,1,413,1,b,m,5,y,0132,m,fs,,0
1,83,19,f,1,1,84,1,413,1,b,m,6,y,0767,m,fs,,0
1,83,19,f,1,1,84,1,413,1,b,m,7,b,0402,f,fc,,0
1,83,19,f,1,1,84,1,413,1,b,m,8,y,0120,m,fs,,0
1,84,19,f,1,1,85,4,824,1,b,m,0,b,0260,f,fc,,0
1,84,19,f,1,1,85,4,824,1,b,m,1,b,0980,f,fc,,0
1,84,19,f,1,1,85,4,824,1,b,m,2,y,0596,m,fs,,0
1,84,19,f,1,1,85,4,824,1,b,m,3,y,i277ua-mg.jpg,m,fs,,0
1,84,19,f,1,1,85,4,824,1,b,m,4,b,0110,m,t,4,1
1,84,19,f,1,1,85,4,824,1,b,m,5,b,1191,f,fc,,0
1,84,19,f,1,1,85,4,824,1,b,m,6,y,0678,m,fs,,0
1,84,19,f,1,1,85,4,824,1,b,m,7,y,i263ua-mn.jpg,m,fs,,0
1,84,19,f,1,1,85,4,824,1,b,m,8,b,0824,f,fc,,0
1,85,19,f,1,1,86,4,941,1,b,m,0,y,0179,m,fs,,0
1,85,19,f,1,1,86,4,941,1,b,m,1,b,1138,f,fc,,0
1,85,19,f,1,1,86,4,941,1,b,m,2,b,0681,f,fc,,0
1,85,19,f,1,1,86,4,941,1,b,m,3,b,0126,f,fc,,0
1,85,19,f,1,1,86,4,941,1,b,m,4,b,0652,m,t,4,1
1,85,19,f,1,1,86,4,941,1,b,m,5,y,0364,m,fs,,0
1,85,19,f,1,1,86,4,941,1,b,m,6,y,i075qa-mn.jpg,m,fs,,0
1,85,19,f,1,1,86,4,941,1,b,m,7,b,1195,f,fc,,0
1,85,19,f,1,1,86,4,941,1,b,m,8,y,i225ua-mn.jpg,m,fs,,0
1,86,19,f,1,1,87,2,900,1,b,m,0,y,0696,m,fs,,0
1,86,19,f,1,1,87,2,900,1,b,m,1,b,0375,f,fc,,0
1,86,19,f,1,1,87,2,900,1,b,m,2,b,0415,m,t,2,1
1,86,19,f,1,1,87,2,900,1,b,m,3,b,0377,f,fc,,0
1,86,19,f,1,1,87,2,900,1,b,m,4,y,0335,m,fs,,0
1,86,19,f,1,1,87,2,900,1,b,m,5,b,0052,f,fc,,0
1,86,19,f,1,1,87,2,900,1,b,m,6,y,i004qa-mn.jpg,m,fs,,0
1,86,19,f,1,1,87,2,900,1,b,m,7,b,0376,f,fc,,0
1,86,19,f,1,1,87,2,900,1,b,m,8,y,0691,m,fs,,0
1,87,19,f,1,1,88,7,1206,1,b,m,0,b,0243,f,fc,,0
1,87,19,f,1,1,88,7,1206,1,b,m,1,y,0812,m,fs,,0
1,87,19,f,1,1,88,7,1206,1,b,m,2,y,0649,m,fs,,0
1,87,19,f,1,1,88,7,1206,1,b,m,3,y,i052qa-mn.jpg,m,fs,,0
1,87,19,f,1,1,88,7,1206,1,b,m,4,b,0549,f,fc,,0
1,87,19,f,1,1,88,7,1206,1,b,m,5,y,i255ua-mn.jpg,m,fs,,0
1,87,19,f,1,1,88,7,1206,1,b,m,6,b,0407,f,fc,,0
1,87,19,f,1,1,88,7,1206,1,b,m,7,b,i006ra-mn.jpg,m,t,7,1
1,87,19,f,1,1,88,7,1206,1,b,m,8,b,1051,f,fc,,0
1,88,19,f,1,1,89,2,669,0,b,m,0,y,0338,m,fs,,0
1,88,19,f,1,1,89,2,669,0,b,m,1,b,0822,m,t,1,1
1,88,19,f,1,1,89,2,669,0,b,m,2,b,0758,f,fc,,0
1,88,19,f,1,1,89,2,669,0,b,m,3,b,1084,f,fc,,0
1,88,19,f,1,1,89,2,669,0,b,m,4,y,0362,m,fs,,0
1,88,19,f,1,1,89,2,669,0,b,m,5,y,0322,m,fs,,0
1,88,19,f,1,1,89,2,669,0,b,m,6,b,1042,f,fc,,0
1,88,19,f,1,1,89,2,669,0,b,m,7,b,i087ra-fn.jpg,f,fc,,0
1,88,19,f,1,1,89,2,669,0,b,m,8,y,0798,m,fs,,0
1,89,19,f,1,1,90,0,314,1,b,m,0,b,0223,m,t,0,1
1,89,19,f,1,1,90,0,314,1,b,m,1,b,i608za-fn.jpg,f,fc,,0
1,89,19,f,1,1,90,0,314,1,b,m,2,b,0662,f,fc,,0
1,89,19,f,1,1,90,0,314,1,b,m,3,b,0840,f,fc,,0
1,89,19,f,1,1,90,0,314,1,b,m,4,b,0396,f,fc,,0
1,89,19,f,1,1,90,0,314,1,b,m,5,y,0249,m,fs,,0
1,89,19,f,1,1,90,0,314,1,b,m,6,y,0751,m,fs,,0
1,89,19,f,1,1,90,0,314,1,b,m,7,y,0176,m,fs,,0
1,89,19,f,1,1,90,0,314,1,b,m,8,y,0756,m,fs,,0
1,90,19,f,1,1,91,8,495,0,b,m,0,b,1178,m,t,0,1
1,90,19,f,1,1,91,8,495,0,b,m,1,b,1034,f,fc,,0
1,90,19,f,1,1,91,8,495,0,b,m,2,b,0974,f,fc,,0
1,90,19,f,1,1,91,8,495,0,b,m,3,b,1052,f,fc,,0
1,90,19,f,1,1,91,8,495,0,b,m,4,y,i205ta-mn.jpg,m,fs,,0
1,90,19,f,1,1,91,8,495,0,b,m,5,y,0714,m,fs,,0
1,90,19,f,1,1,91,8,495,0,b,m,6,y,0794,m,fs,,0
1,90,19,f,1,1,91,8,495,0,b,m,7,y,0028,m,fs,,0
1,90,19,f,1,1,91,8,495,0,b,m,8,b,0403,f,fc,,0
1,91,19,f,1,1,92,6,96,1,b,m,0,y,i012qa-mn.jpg,m,fs,,0
1,91,19,f,1,1,92,6,96,1,b,m,1,b,0420,f,fc,,0
1,91,19,f,1,1,92,6,96,1,b,m,2,b,0699,f,fc,,0
1,91,19,f,1,1,92,6,96,1,b,m,3,y,0722,m,fs,,0
1,91,19,f,1,1,92,6,96,1,b,m,4,y,0055,m,fs,,0
1,91,19,f,1,1,92,6,96,1,b,m,5,y,0150,m,fs,,0
1,91,19,f,1,1,92,6,96,1,b,m,6,b,i010qa-mn.jpg,m,t,6,1
1,91,19,f,1,1,92,6,96,1,b,m,7,b,0175,f,fc,,0
1,91,19,f,1,1,92,6,96,1,b,m,8,b,i411xa-fn.jpg,f,fc,,0
1,92,19,f,1,1,93,4,212,1,b,m,0,b,0224,f,fc,,0
1,92,19,f,1,1,93,4,212,1,b,m,1,y,0363,m,fs,,0
1,92,19,f,1,1,93,4,212,1,b,m,2,y,0658,m,fs,,0
1,92,19,f,1,1,93,4,212,1,b,m,3,y,0721,m,fs,,0
1,92,19,f,1,1,93,4,212,1,b,m,4,b,0497,m,t,4,1
1,92,19,f,1,1,93,4,212,1,b,m,5,b,0630,f,fc,,0
1,92,19,f,1,1,93,4,212,1,b,m,6,b,i057ra-fn.jpg,f,fc,,0
1,92,19,f,1,1,93,4,212,1,b,m,7,y,0544,m,fs,,0
1,92,19,f,1,1,93,4,212,1,b,m,8,b,i249ua-fn.jpg,f,fc,,0
1,93,19,f,1,1,94,7,737,1,b,m,0,b,0141,f,fc,,0
1,93,19,f,1,1,94,7,737,1,b,m,1,b,0053,f,fc,,0
1,93,19,f,1,1,94,7,737,1,b,m,2,b,i291ua-fg.jpg,f,fc,,0
1,93,19,f,1,1,94,7,737,1,b,m,3,b,0633,f,fc,,0
1,93,19,f,1,1,94,7,737,1,b,m,4,y,0105,m,fs,,0
1,93,19,f,1,1,94,7,737,1,b,m,5,y,0187,m,fs,,0
1,93,19,f,1,1,94,7,737,1,b,m,6,y,0463,m,fs,,0
1,93,19,f,1,1,94,7,737,1,b,m,7,b,i436xa-mn.jpg,m,t,7,1
1,93,19,f,1,1,94,7,737,1,b,m,8,y,i081ra-mn.jpg,m,fs,,0
1,94,19,f,1,1,95,3,632,1,b,m,0,b,i422wa-fn.jpg,f,fc,,0
1,94,19,f,1,1,95,3,632,1,b,m,1,b,0720,f,fc,,0
1,94,19,f,1,1,95,3,632,1,b,m,2,y,0046,m,fs,,0
1,94,19,f,1,1,95,3,632,1,b,m,3,b,i299ua-mn.jpg,m,t,3,1
1,94,19,f,1,1,95,3,632,1,b,m,4,y,0012,m,fs,,0
1,94,19,f,1,1,95,3,632,1,b,m,5,y,i082qa-mn.jpg,m,fs,,0
1,94,19,f,1,1,95,3,632,1,b,m,6,y,1065,m,fs,,0
1,94,19,f,1,1,95,3,632,1,b,m,7,b,0102,f,fc,,0
1,94,19,f,1,1,95,3,632,1,b,m,8,b,0978,f,fc,,0
1,95,19,f,1,1,96,7,660,1,b,m,0,y,0875,m,fs,,0
1,95,19,f,1,1,96,7,660,1,b,m,1,b,0581,f,fc,,0
1,95,19,f,1,1,96,7,660,1,b,m,2,y,0358,m,fs,,0
1,95,19,f,1,1,96,7,660,1,b,m,3,y,0552,m,fs,,0
1,95,19,f,1,1,96,7,660,1,b,m,4,b,0864,f,fc,,0
1,95,19,f,1,1,96,7,660,1,b,m,5,b,0313,f,fc,,0
1,95,19,f,1,1,96,7,660,1,b,m,6,b,i401xa-fn.jpg,f,fc,,0
1,95,19,f,1,1,96,7,660,1,b,m,7,b,0054,m,t,7,1
1,95,19,f,1,1,96,7,660,1,b,m,8,y,1063,m,fs,,0
1,96,19,f,1,1,97,4,408,1,b,m,0,b,0675,f,fc,,0
1,96,19,f,1,1,97,4,408,1,b,m,1,y,0784,m,fs,,0
1,96,19,f,1,1,97,4,408,1,b,m,2,b,0181,f,fc,,0
1,96,19,f,1,1,97,4,408,1,b,m,3,y,0732,m,fs,,0
1,96,19,f,1,1,97,4,408,1,b,m,4,b,0590,m,t,4,1
1,96,19,f,1,1,97,4,408,1,b,m,5,y,0078,m,fs,,0
1,96,19,f,1,1,97,4,408,1,b,m,6,b,0210,f,fc,,0
1,96,19,f,1,1,97,4,408,1,b,m,7,b,i305ta-fg.jpg,f,fc,,0
1,96,19,f,1,1,97,4,408,1,b,m,8,y,1130,m,fs,,0
1,97,19,f,1,1,98,6,458,1,b,m,0,y,0519,m,fs,,0
1,97,19,f,1,1,98,6,458,1,b,m,1,b,0823,f,fc,,0
1,97,19,f,1,1,98,6,458,1,b,m,2,y,0586,m,fs,,0
1,97,19,f,1,1,98,6,458,1,b,m,3,y,0641,m,fs,,0
1,97,19,f,1,1,98,6,458,1,b,m,4,b,0927,f,fc,,0
1,97,19,f,1,1,98,6,458,1,b,m,5,b,i620ya-fn.jpg,f,fc,,0
1,97,19,f,1,1,98,6,458,1,b,m,6,b,0513,m,t,6,1
1,97,19,f,1,1,98,6,458,1,b,m,7,y,0839,m,fs,,0
1,97,19,f,1,1,98,6,458,1,b,m,8,b,i248ua-fn.jpg,f,fc,,0
1,98,19,f,1,1,99,7,407,1,b,m,0,y,0938,m,fs,,0
1,98,19,f,1,1,99,7,407,1,b,m,1,y,0561,m,fs,,0
1,98,19,f,1,1,99,7,407,1,b,m,2,y,0929,m,fs,,0
1,98,19,f,1,1,99,7,407,1,b,m,3,y,0073,m,fs,,0
1,98,19,f,1,1,99,7,407,1,b,m,4,b,1147,f,fc,,0
1,98,19,f,1,1,99,7,407,1,b,m,5,b,0941,f,fc,,0
1,98,19,f,1,1,99,7,407,1,b,m,6,b,0211,f,fc,,0
1,98,19,f,1,1,99,7,407,1,b,m,7,b,1150,m,t,7,1
1,98,19,f,1,1,99,7,407,1,b,m,8,b,1021,f,fc,,0
1,99,19,f,1,1,100,1,436,1,b,m,0,y,0289,m,fs,,0
1,99,19,f,1,1,100,1,436,1,b,m,1,b,0166,m,t,1,1
1,99,19,f,1,1,100,1,436,1,b,m,2,b,1067,f,fc,,0
1,99,19,f,1,1,100,1,436,1,b,m,3,y,0171,m,fs,,0
1,99,19,f,1,1,100,1,436,1,b,m,4,b,0574,f,fc,,0
1,99,19,f,1,1,100,1,436,1,b,m,5,b,0044,f,fc,,0
1,99,19,f,1,1,100,1,436,1,b,m,6,y,0928,m,fs,,0
1,99,19,f,1,1,100,1,436,1,b,m,7,b,0441,f,fc,,0
1,99,19,f,1,1,100,1,436,1,b,m,8,y,0679,m,fs,,0
2,0,17,f,1,1,101,6,1820,0,y,m,0,y,0930,m,t,0,1
2,0,17,f,1,1,101,6,1820,0,y,m,1,y,0534,f,fc,,0
2,0,17,f,1,1,101,6,1820,0,y,m,2,b,1096,m,fs,,0
2,0,17,f,1,1,101,6,1820,0,y,m,3,y,1075,f,fc,,0
2,0,17,f,1,1,101,6,1820,0,y,m,4,b,0821,m,fs,,0
2,0,17,f,1,1,101,6,1820,0,y,m,5,y,0342,f,fc,,0
2,0,17,f,1,1,101,6,1820,0,y,m,6,y,i608za-fn.jpg,f,fc,,0
2,0,17,f,1,1,101,6,1820,0,y,m,7,b,1104,m,fs,,0
2,0,17,f,1,1,101,6,1820,0,y,m,8,b,0923,m,fs,,0
2,1,17,f,1,1,102,3,1232,0,y,m,0,b,0552,m,fs,,0
2,1,17,f,1,1,102,3,1232,0,y,m,1,y,0577,m,t,1,1
2,1,17,f,1,1,102,3,1232,0,y,m,2,b,0979,m,fs,,0
2,1,17,f,1,1,102,3,1232,0,y,m,3,y,0957,f,fc,,0
2,1,17,f,1,1,102,3,1232,0,y,m,4,b,0117,m,fs,,0
2,1,17,f,1,1,102,3,1232,0,y,m,5,y,0725,f,fc,,0
2,1,17,f,1,1,102,3,1232,0,y,m,6,y,0027,f,fc,,0
2,1,17,f,1,1,102,3,1232,0,y,m,7,y,i088qa-fn.jpg,f,fc,,0
2,1,17,f,1,1,102,3,1232,0,y,m,8,b,i227ua-mn.jpg,m,fs,,0
2,2,17,f,1,1,103,7,2401,0,y,m,0,b,0692,m,fs,,0
2,2,17,f,1,1,103,7,2401,0,y,m,1,y,i023qa-fn.jpg,f,fc,,0
2,2,17,f,1,1,103,7,2401,0,y,m,2,b,0522,m,fs,,0
2,2,17,f,1,1,103,7,2401,0,y,m,3,y,0940,m,t,3,1
2,2,17,f,1,1,103,7,2401,0,y,m,4,b,0966,m,fs,,0
2,2,17,f,1,1,103,7,2401,0,y,m,5,y,0353,f,fc,,0
2,2,17,f,1,1,103,7,2401,0,y,m,6,b,0073,m,fs,,0
2,2,17,f,1,1,103,7,2401,0,y,m,7,y,i235ua-fn.jpg,f,fc,,0
2,2,17,f,1,1,103,7,2401,0,y,m,8,y,i428wa-fn.jpg,f,fc,,0
2,3,17,f,1,1,104,8,703,1,y,m,0,y,1049,f,fc,,0
2,3,17,f,1,1,104,8,703,1,y,m,1,y,0387,f,fc,,0
2,3,17,f,1,1,104,8,703,1,y,m,2,b,0580,m,fs,,0
2,3,17,f,1,1,104,8,703,1,y,m,3,b,0713,m,fs,,0
2,3,17,f,1,1,104,8,703,1,y,m,4,y,0443,f,fc,,0
2,3,17,f,1,1,104,8,703,1,y,m,5,b,0741,m,fs,,0
2,3,17,f,1,1,104,8,703,1,y,m,6,y,i207ta-fn.jpg,f,fc,,0
2,3,17,f,1,1,104,8,703,1,y,m,7,b,0006,m,fs,,0
2,3,17,f,1,1,104,8,703,1,y,m,8,y,0546,m,t,8,1
2,4,17,f,1,1,105,1,735,1,y,m,0,y,0600,f,fc,,0
2,4,17,f,1,1,105,1,735,1,y,m,1,y,0866,m,t,1,1
2,4,17,f,1,1,105,1,735,1,y,m,2,b,0752,m,fs,,0
2,4,17,f,1,1,105,1,735,1,y,m,3,b,0955,m,fs,,0
2,4,17,f,1,1,105,1,735,1,y,m,4,b,0767,m,fs,,0
2,4,17,f,1,1,105,1,735,1,y,m,5,b,0567,m,fs,,0
2,4,17,f,1,1,105,1,735,1,y,m,6,y,i421wa-fn.jpg,f,fc,,0
2,4,17,f,1,1,105,1,735,1,y,m,7,y,i021qa-fn.jpg,f,fc,,0
2,4,17,f,1,1,105,1,735,1,y,m,8,y,0837,f,fc,,0
2,5,17,f,1,1,106,3,2397,0,y,m,0,y,0946,f,fc,,0
2,5,17,f,1,1,106,3,2397,0,y,m,1,b,0256,m,fs,,0
2,5,17,f,1,1,106,3,2397,0,y,m,2,b,0499,m,fs,,0
2,5,17,f,1,1,106,3,2397,0,y,m,3,b,0341,m,fs,,0
2,5,17,f,1,1,106,3,2397,0,y,m,4,y,1021,f,fc,,0
2,5,17,f,1,1,106,3,2397,0,y,m,5,y,0554,f,fc,,0
2,5,17,f,1,1,106,3,2397,0,y,m,6,y,0668,m,t,6,1
2,5,17,f,1,1,106,3,2397,0,y,m,7,b,0517,m,fs,,0
2,5,17,f,1,1,106,3,2397,0,y,m,8,y,1161,f,fc,,0
2,6,17,f,1,1,107,7,1917,1,y,m,0,y,0357,f,fc,,0
2,6,17,f,1,1,107,7,1917,1,y,m,1,b,0911,m,fs,,0
2,6,17,f,1,1,107,7,1917,1,y,m,2,b,0110,m,fs,,0
2,6,17,f,1,1,107,7,1917,1,y,m,3,y,0974,f,fc,,0
2,6,17,f,1,1,107,7,1917,1,y,m,4,y,i600za-fn.jpg,f,fc,,0
2,6,17,f,1,1,107,7,1917,1,y,m,5,b,0234,m,fs,,0
2,6,17,f,1,1,107,7,1917,1,y,m,6,b,0902,m,fs,,0
2,6,17,f,1,1,107,7,1917,1,y,m,7,y,0867,m,t,7,1
2,6,17,f,1,1,107,7,1917,1,y,m,8,y,0307,f,fc,,0
2,7,17,f,1,1,108,2,905,1,y,m,0,y,0244,f,fc,,0
2,7,17,f,1,1,108,2,905,1,y,m,1,y,0787,f,fc,,0
2,7,17,f,1,1,108,2,905,1,y,m,2,y,0299,m,t,2,1
2,7,17,f,1,1,108,2,905,1,y,m,3,b,0136,m,fs,,0
2,7,17,f,1,1,108,2,905,1,y,m,4,y,1047,f,fc,,0
2,7,17,f,1,1,108,2,905,1,y,m,5,b,0612,m,fs,,0
2,7,17,f,1,1,108,2,905,1,y,m,6,y,0742,f,fc,,0
2,7,17,f,1,1,108,2,905,1,y,m,7,b,0066,m,fs,,0
2,7,17,f,1,1,108,2,905,1,y,m,8,b,1041,m,fs,,0
2,8,17,f,1,1,109,5,383,1,y,m,0,b,0590,m,fs,,0
2,8,17,f,1,1,109,5,383,1,y,m,1,y,1139,f,fc,,0
2,8,17,f,1,1,109,5,383,1,y,m,2,y,0210,f,fc,,0
2,8,17,f,1,1,109,5,383,1,y,m,3,b,0812,m,fs,,0
2,8,17,f,1,1,109,5,383,1,y,m,4,y,0185,f,fc,,0
2,8,17,f,1,1,109,5,383,1,y,m,5,y,0545,m,t,5,1
2,8,17,f,1,1,109,5,383,1,y,m,6,b,0131,m,fs,,0
2,8,17,f,1,1,109,5,383,1,y,m,7,b,0056,m,fs,,0
2,8,17,f,1,1,109,5,383,1,y,m,8,y,0208,f,fc,,0
2,9,17,f,1,1,110,0,955,1,y,m,0,y,0509,m,t,0,1
2,9,17,f,1,1,110,0,955,1,y,m,1,y,i446wa-fn.jpg,f,fc,,0
2,9,17,f,1,1,110,0,955,1,y,m,2,b,0814,m,fs,,0
2,9,17,f,1,1,110,0,955,1,y,m,3,b,0829,m,fs,,0
2,9,17,f,1,1,110,0,955,1,y,m,4,y,0306,f,fc,,0
2,9,17,f,1,1,110,0,955,1,y,m,5,y,i062qa-fn.jpg,f,fc,,0
2,9,17,f,1,1,110,0,955,1,y,m,6,b,0806,m,fs,,0
2,9,17,f,1,1,110,0,955,1,y,m,7,y,1034,f,fc,,0
2,9,17,f,1,1,110,0,955,1,y,m,8,b,0550,m,fs,,0
2,10,17,f,1,1,111,2,1717,0,y,m,0,y,0674,m,t,0,1
2,10,17,f,1,1,111,2,1717,0,y,m,1,b,i225ua-mn.jpg,m,fs,,0
2,10,17,f,1,1,111,2,1717,0,y,m,2,y,0969,f,fc,,0
2,10,17,f,1,1,111,2,1717,0,y,m,3,y,0996,f,fc,,0
2,10,17,f,1,1,111,2,1717,0,y,m,4,y,i053qa-fg.jpg,f,fc,,0
2,10,17,f,1,1,111,2,1717,0,y,m,5,b,0879,m,fs,,0
2,10,17,f,1,1,111,2,1717,0,y,m,6,y,0981,f,fc,,0
2,10,17,f,1,1,111,2,1717,0,y,m,7,b,i085ra-mg.jpg,m,fs,,0
2,10,17,f,1,1,111,2,1717,0,y,m,8,b,i423wa-mn.jpg,m,fs,,0
2,11,17,f,1,1,112,5,1385,0,y,m,0,y,0512,m,t,0,1
2,11,17,f,1,1,112,5,1385,0,y,m,1,y,0390,f,fc,,0
2,11,17,f,1,1,112,5,1385,0,y,m,2,b,0046,m,fs,,0
2,11,17,f,1,1,112,5,1385,0,y,m,3,b,0722,m,fs,,0
2,11,17,f,1,1,112,5,1385,0,y,m,4,b,0672,m,fs,,0
2,11,17,f,1,1,112,5,1385,0,y,m,5,b,1029,m,fs,,0
2,11,17,f,1,1,112,5,1385,0,y,m,6,y,0598,f,fc,,0
2,11,17,f,1,1,112,5,1385,0,y,m,7,y,0970,f,fc,,0
2,11,17,f,1,1,112,5,1385,0,y,m,8,y,0373,f,fc,,0
2,12,17,f,1,1,113,2,585,1,y,m,0,y,0702,f,fc,,0
2,12,17,f,1,1,113,2,585,1,y,m,1,y,i057ra-fn.jpg,f,fc,,0
2,12,17,f,1,1,113,2,585,1,y,m,2,y,0038,m,t,2,1
2,12,17,f,1,1,113,2,585,1,y,m,3,b,0473,m,fs,,0
2,12,17,f,1,1,113,2,585,1,y,m,4,b,0217,m,fs,,0
2,12,17,f,1,1,113,2,585,1,y,m,5,y,0111,f,fc,,0
2,12,17,f,1,1,113,2,585,1,y,m,6,y,0121,f,fc,,0
2,12,17,f,1,1,113,2,585,1,y,m,7,b,0673,m,fs,,0
2,12,17,f,1,1,113,2,585,1,y,m,8,b,0544,m,fs,,0
2,13,17,f,1,1,114,1,254,1,y,m,0,y,i282ta-fn.jpg,f,fc,,0
2,13,17,f,1,1,114,1,254,1,y,m,1,y,0870,m,t,1,1
2,13,17,f,1,1,114,1,254,1,y,m,2,b,1014,m,fs,,0
2,13,17,f,1,1,114,1,254,1,y,m,3,y,0378,f,fc,,0
2,13,17,f,1,1,114,1,254,1,y,m,4,y,i037ra-fn.jpg,f,fc,,0
2,13,17,f,1,1,114,1,254,1,y,m,5,b,0976,m,fs,,0
2,13,17,f,1,1,114,1,254,1,y,m,6,y,0420,f,fc,,0
2,13,17,f,1,1,114,1,254,1,y,m,7,b,1115,m,fs,,0
2,13,17,f,1,1,114,1,254,1,y,m,8,b,1179,m,fs,,0
2,14,17,f,1,1,115,8,2699,0,y,m,0,b,1120,m,fs,,0
2,14,17,f,1,1,115,8,2699,0,y,m,1,y,i404xa-fn.jpg,f,fc,,0
2,14,17,f,1,1,115,8,2699,0,y,m,2,y,0416,f,fc,,0
2,14,17,f,1,1,115,8,2699,0,y,m,3,b,0685,m,fs,,0
2,14,17,f,1,1,115,8,2699,0,y,m,4,y,0481,f,fc,,0
2,14,17,f,1,1,115,8,2699,0,y,m,5,b,0138,m,fs,,0
2,14,17,f,1,1,115,8,2699,0,y,m,6,y,0858,f,fc,,0
2,14,17,f,1,1,115,8,2699,0,y,m,7,y,i288ta-mn.jpg,m,t,7,1
2,14,17,f,1,1,115,8,2699,0,y,m,8,b,0748,m,fs,,0
2,15,17,f,1,1,116,3,132,1,y,m,0,b,0592,m,fs,,0
2,15,17,f,1,1,116,3,132,1,y,m,1,b,0484,m,fs,,0
2,15,17,f,1,1,116,3,132,1,y,m,2,y,1202,f,fc,,0
2,15,17,f,1,1,116,3,132,1,y,m,3,y,0783,m,t,3,1
2,15,17,f,1,1,116,3,132,1,y,m,4,y,i026qa-fn.jpg,f,fc,,0
2,15,17,f,1,1,116,3,132,1,y,m,5,y,0288,f,fc,,0
2,15,17,f,1,1,116,3,132,1,y,m,6,b,0570,m,fs,,0
2,15,17,f,1,1,116,3,132,1,y,m,7,y,1018,f,fc,,0
2,15,17,f,1,1,116,3,132,1,y,m,8,b,i027qa-mn.jpg,m,fs,,0
2,16,17,f,1,1,117,2,599,1,y,m,0,b,1190,m,fs,,0
2,16,17,f,1,1,117,2,599,1,y,m,1,b,0331,m,fs,,0
2,16,17,f,1,1,117,2,599,1,y,m,2,y,0755,m,t,2,1
2,16,17,f,1,1,117,2,599,1,y,m,3,y,0951,f,fc,,0
2,16,17,f,1,1,117,2,599,1,y,m,4,y,0385,f,fc,,0
2,16,17,f,1,1,117,2,599,1,y,m,5,y,1089,f,fc,,0
2,16,17,f,1,1,117,2,599,1,y,m,6,y,0380,f,fc,,0
2,16,17,f,1,1,117,2,599,1,y,m,7,b,0007,m,fs,,0
2,16,17,f,1,1,117,2,599,1,y,m,8,b,0055,m,fs,,0
2,17,17,f,1,1,118,3,726,1,y,m,0,y,0065,f,fc,,0
2,17,17,f,1,1,118,3,726,1,y,m,1,b,0573,m,fs,,0
2,17,17,f,1,1,118,3,726,1,y,m,2,b,1114,m,fs,,0
2,17,17,f,1,1,118,3,726,1,y,m,3,y,0749,m,t,3,1
2,17,17,f,1,1,118,3,726,1,y,m,4,b,0900,m,fs,,0
2,17,17,f,1,1,118,3,726,1,y,m,5,y,0450,f,fc,,0
2,17,17,f,1,1,118,3,726,1,y,m,6,b,0587,m,fs,,0
2,17,17,f,1,1,118,3,726,1,y,m,7,y,0412,f,fc,,0
2,17,17,f,1,1,118,3,726,1,y,m,8,y,0140,f,fc,,0
2,18,17,f,1,1,119,4,803,1,y,m,0,b,0865,m,fs,,0
2,18,17,f,1,1,119,4,803,1,y,m,1,y,0607,f,fc,,0
2,18,17,f,1,1,119,4,803,1,y,m,2,y,0532,f,fc,,0
2,18,17,f,1,1,119,4,803,1,y,m,3,y,1136,f,fc,,0
2,18,17,f,1,1,119,4,803,1,y,m,4,y,0076,m,t,4,1
2,18,17,f,1,1,119,4,803,1,y,m,5,y,1052,f,fc,,0
2,18,17,f,1,1,119,4,803,1,y,m,6,b,0793,m,fs,,0
2,18,17,f,1,1,119,4,803,1,y,m,7,b,0640,m,fs,,0
2,18,17,f,1,1,119,4,803,1,y,m,8,b,0078,m,fs,,0
2,19,17,f,1,1,120,2,2109,0,y,m,0,y,i616ya-fn.jpg,f,fc,,0
2,19,17,f,1,1,120,2,2109,0,y,m,1,b,0146,m,fs,,0
2,19,17,f,1,1,120,2,2109,0,y,m,2,y,0328,f,fc,,0
2,19,17,f,1,1,120,2,2109,0,y,m,3,b,0795,m,fs,,0
2,19,17,f,1,1,120,2,2109,0,y,m,4,b,0187,m,fs,,0
2,19,17,f,1,1,120,2,2109,0,y,m,5,y,0389,f,fc,,0
2,19,17,f,1,1,120,2,2109,0,y,m,6,b,0921,m,fs,,0
2,19,17,f,1,1,120,2,2109,0,y,m,7,y,0039,m,t,7,1
2,19,17,f,1,1,120,2,2109,0,y,m,8,y,i621ya-fn.jpg,f,fc,,0
2,20,17,f,1,1,121,1,699,1,y,m,0,y,i262ta-fn.jpg,f,fc,,0
2,20,17,f,1,1,121,1,699,1,y,m,1,y,0616,m,t,1,1
2,20,17,f,1,1,121,1,699,1,y,m,2,b,1186,m,fs,,0
2,20,17,f,1,1,121,1,699,1,y,m,3,b,0491,m,fs,,0
2,20,17,f,1,1,121,1,699,1,y,m,4,y,0903,f,fc,,0
2,20,17,f,1,1,121,1,699,1,y,m,5,y,0145,f,fc,,0
2,20,17,f,1,1,121,1,699,1,y,m,6,y,0045,f,fc,,0
2,20,17,f,1,1,121,1,699,1,y,m,7,b,1097,m,fs,,0
2,20,17,f,1,1,121,1,699,1,y,m,8,b,0049,m,fs,,0
2,21,17,f,1,1,122,6,3829,1,y,m,0,b,i043ra-mn.jpg,m,fs,,0
2,21,17,f,1,1,122,6,3829,1,y,m,1,y,i020qa-fg.jpg,f,fc,,0
2,21,17,f,1,1,122,6,3829,1,y,m,2,b,i307ta-mg.jpg,m,fs,,0
2,21,17,f,1,1,122,6,3829,1,y,m,3,b,i438xa-mn.jpg,m,fs,,0
2,21,17,f,1,1,122,6,3829,1,y,m,4,b,0739,m,fs,,0
2,21,17,f,1,1,122,6,3829,1,y,m,5,y,i610ya-fn.jpg,f,fc,,0
2,21,17,f,1,1,122,6,3829,1,y,m,6,y,1039,m,t,6,1
2,21,17,f,1,1,122,6,3829,1,y,m,7,y,0381,f,fc,,0
2,21,17,f,1,1,122,6,3829,1,y,m,8,y,i063ra-fn.jpg,f,fc,,0
2,22,17,f,1,1,123,1,517,1,y,m,0,y,0425,f,fc,,0
2,22,17,f,1,1,123,1,517,1,y,m,1,y,0321,m,t,1,1
2,22,17,f,1,1,123,1,517,1,y,m,2,b,0809,m,fs,,0
2,22,17,f,1,1,123,1,517,1,y,m,3,b,0588,m,fs,,0
2,22,17,f,1,1,123,1,517,1,y,m,4,y,1070,f,fc,,0
2,22,17,f,1,1,123,1,517,1,y,m,5,b,0171,m,fs,,0
2,22,17,f,1,1,123,1,517,1,y,m,6,y,0279,f,fc,,0
2,22,17,f,1,1,123,1,517,1,y,m,7,b,0521,m,fs,,0
2,22,17,f,1,1,123,1,517,1,y,m,8,y,0479,f,fc,,0
2,23,17,f,1,1,124,1,723,1,y,m,0,y,0053,f,fc,,0
2,23,17,f,1,1,124,1,723,1,y,m,1,y,0578,m,t,1,1
2,23,17,f,1,1,124,1,723,1,y,m,2,b,i439wa-mn.jpg,m,fs,,0
2,23,17,f,1,1,124,1,723,1,y,m,3,b,0272,m,fs,,0
2,23,17,f,1,1,124,1,723,1,y,m,4,b,i263ua-mn.jpg,m,fs,,0
2,23,17,f,1,1,124,1,723,1,y,m,5,y,0154,f,fc,,0
2,23,17,f,1,1,124,1,723,1,y,m,6,y,0910,f,fc,,0
2,23,17,f,1,1,124,1,723,1,y,m,7,y,0661,f,fc,,0
2,23,17,f,1,1,124,1,723,1,y,m,8,b,i231ua-mn.jpg,m,fs,,0
2,24,17,f,1,1,125,1,777,1,y,m,0,b,i052qa-mn.jpg,m,fs,,0
2,24,17,f,1,1,125,1,777,1,y,m,1,y,0711,m,t,1,1
2,24,17,f,1,1,125,1,777,1,y,m,2,b,0551,m,fs,,0
2,24,17,f,1,1,125,1,777,1,y,m,3,y,0483,f,fc,,0
2,24,17,f,1,1,125,1,777,1,y,m,4,b,0649,m,fs,,0
2,24,17,f,1,1,125,1,777,1,y,m,5,y,1126,f,fc,,0
2,24,17,f,1,1,125,1,777,1,y,m,6,b,1209,m,fs,,0
2,24,17,f,1,1,125,1,777,1,y,m,7,y,0175,f,fc,,0
2,24,17,f,1,1,125,1,777,1,y,m,8,y,0556,f,fc,,0
2,25,17,f,1,1,126,2,758,1,y,m,0,y,0634,f,fc,,0
2,25,17,f,1,1,126,2,758,1,y,m,1,y,0041,f,fc,,0
2,25,17,f,1,1,126,2,758,1,y,m,2,y,0155,m,t,2,1
2,25,17,f,1,1,126,2,758,1,y,m,3,b,i408xa-mn.jpg,m,fs,,0
2,25,17,f,1,1,126,2,758,1,y,m,4,b,i290ta-mn.jpg,m,fs,,0
2,25,17,f,1,1,126,2,758,1,y,m,5,b,0846,m,fs,,0
2,25,17,f,1,1,126,2,758,1,y,m,6,y,0547,f,fc,,0
2,25,17,f,1,1,126,2,758,1,y,m,7,b,1002,m,fs,,0
2,25,17,f,1,1,126,2,758,1,y,m,8,y,0727,f,fc,,0
2,26,17,f,1,1,127,8,2049,0,y,m,0,b,0274,m,fs,,0
2,26,17,f,1,1,127,8,2049,0,y,m,1,y,1024,m,t,1,1
2,26,17,f,1,1,127,8,2049,0,y,m,2,y,0444,f,fc,,0
2,26,17,f,1,1,127,8,2049,0,y,m,3,y,1094,f,fc,,0
2,26,17,f,1,1,127,8,2049,0,y,m,4,y,0098,f,fc,,0
2,26,17,f,1,1,127,8,2049,0,y,m,5,b,i289ta-mg.jpg,m,fs,,0
2,26,17,f,1,1,127,8,2049,0,y,m,6,y,i272ta-fg.jpg,f,fc,,0
2,26,17,f,1,1,127,8,2049,0,y,m,7,b,0909,m,fs,,0
2,26,17,f,1,1,127,8,2049,0,y,m,8,b,0148,m,fs,,0
2,27,17,f,1,1,128,3,370,1,y,m,0,b,i081ra-mn.jpg,m,fs,,0
2,27,17,f,1,1,128,3,370,1,y,m,1,y,i065qa-fn.jpg,f,fc,,0
2,27,17,f,1,1,128,3,370,1,y,m,2,b,0603,m,fs,,0
2,27,17,f,1,1,128,3,370,1,y,m,3,y,0803,m,t,3,1
2,27,17,f,1,1,128,3,370,1,y,m,4,b,0913,m,fs,,0
2,27,17,f,1,1,128,3,370,1,y,m,5,y,1160,f,fc,,0
2,27,17,f,1,1,128,3,370,1,y,m,6,y,0487,f,fc,,0
2,27,17,f,1,1,128,3,370,1,y,m,7,y,i613ya-fg.jpg,f,fc,,0
2,27,17,f,1,1,128,3,370,1,y,m,8,b,0501,m,fs,,0
2,28,17,f,1,1,129,6,787,1,y,m,0,b,1006,m,fs,,0
2,28,17,f,1,1,129,6,787,1,y,m,1,b,1000,m,fs,,0
2,28,17,f,1,1,129,6,787,1,y,m,2,b,i002ra-mn.jpg,m,fs,,0
2,28,17,f,1,1,129,6,787,1,y,m,3,y,0630,f,fc,,0
2,28,17,f,1,1,129,6,787,1,y,m,4,b,0285,m,fs,,0
2,28,17,f,1,1,129,6,787,1,y,m,5,y,0842,f,fc,,0
2,28,17,f,1,1,129,6,787,1,y,m,6,y,0926,m,t,6,1
2,28,17,f,1,1,129,6,787,1,y,m,7,y,0013,f,fc,,0
2,28,17,f,1,1,129,6,787,1,y,m,8,y,0351,f,fc,,0
2,29,17,f,1,1,130,5,674,0,y,m,0,y,0470,m,t,0,1
2,29,17,f,1,1,130,5,674,0,y,m,1,y,i298ua-fn.jpg,f,fc,,0
2,29,17,f,1,1,130,5,674,0,y,m,2,b,0298,m,fs,,0
2,29,17,f,1,1,130,5,674,0,y,m,3,b,0572,m,fs,,0
2,29,17,f,1,1,130,5,674,0,y,m,4,y,0663,f,fc,,0
2,29,17,f,1,1,130,5,674,0,y,m,5,y,0925,f,fc,,0
2,29,17,f,1,1,130,5,674,0,y,m,6,b,0513,m,fs,,0
2,29,17,f,1,1,130,5,674,0,y,m,7,b,i277ua-mg.jpg,m,fs,,0
2,29,17,f,1,1,130,5,674,0,y,m,8,y,0993,f,fc,,0
2,30,17,f,1,1,131,2,708,1,y,m,0,y,0259,f,fc,,0
2,30,17,f,1,1,131,2,708,1,y,m,1,y,0112,f,fc,,0
2,30,17,f,1,1,131,2,708,1,y,m,2,y,0164,m,t,2,1
2,30,17,f,1,1,131,2,708,1,y,m,3,y,0956,f,fc,,0
2,30,17,f,1,1,131,2,708,1,y,m,4,b,1100,m,fs,,0
2,30,17,f,1,1,131,2,708,1,y,m,5,y,0211,f,fc,,0
2,30,17,f,1,1,131,2,708,1,y,m,6,b,0994,m,fs,,0
2,30,17,f,1,1,131,2,708,1,y,m,7,b,0182,m,fs,,0
2,30,17,f,1,1,131,2,708,1,y,m,8,b,0931,m,fs,,0
2,31,17,f,1,1,132,1,581,1,y,m,0,b,i254ua-mn.jpg,m,fs,,0
2,31,17,f,1,1,132,1,581,1,y,m,1,y,0241,m,t,1,1
2,31,17,f,1,1,132,1,581,1,y,m,2,b,0659,m,fs,,0
2,31,17,f,1,1,132,1,581,1,y,m,3,b,0585,m,fs,,0
2,31,17,f,1,1,132,1,581,1,y,m,4,y,1151,f,fc,,0
2,31,17,f,1,1,132,1,581,1,y,m,5,b,i059qa-mg.jpg,m,fs,,0
2,31,17,f,1,1,132,1,581,1,y,m,6,y,i401xa-fn.jpg,f,fc,,0
2,31,17,f,1,1,132,1,581,1,y,m,7,y,0681,f,fc,,0
2,31,17,f,1,1,132,1,581,1,y,m,8,y,i432wa-fn.jpg,f,fc,,0
2,32,17,f,1,1,133,3,651,1,y,m,0,b,0645,m,fs,,0
2,32,17,f,1,1,133,3,651,1,y,m,1,b,i255ua-mn.jpg,m,fs,,0
2,32,17,f,1,1,133,3,651,1,y,m,2,y,i046qa-fn.jpg,f,fc,,0
2,32,17,f,1,1,133,3,651,1,y,m,3,y,0023,m,t,3,1
2,32,17,f,1,1,133,3,651,1,y,m,4,b,0468,m,fs,,0
2,32,17,f,1,1,133,3,651,1,y,m,5,y,0915,f,fc,,0
2,32,17,f,1,1,133,3,651,1,y,m,6,b,0906,m,fs,,0
2,32,17,f,1,1,133,3,651,1,y,m,7,y,0214,f,fc,,0
2,32,17,f,1,1,133,3,651,1,y,m,8,y,i434wa-fn.jpg,f,fc,,0
2,33,17,f,1,1,134,6,703,1,y,m,0,y,i601ya-fn.jpg,f,fc,,0
2,33,17,f,1,1,134,6,703,1,y,m,1,y,0492,f,fc,,0
2,33,17,f,1,1,134,6,703,1,y,m,2,b,0477,m,fs,,0
2,33,17,f,1,1,134,6,703,1,y,m,3,y,0633,f,fc,,0
2,33,17,f,1,1,134,6,703,1,y,m,4,b,0137,m,fs,,0
2,33,17,f,1,1,134,6,703,1,y,m,5,b,0553,m,fs,,0
2,33,17,f,1,1,134,6,703,1,y,m,6,y,0798,m,t,6,1
2,33,17,f,1,1,134,6,703,1,y,m,7,b,1123,m,fs,,0
2,33,17,f,1,1,134,6,703,1,y,m,8,y,1176,f,fc,,0
2,34,17,f,1,1,135,8,471,1,y,m,0,y,0704,f,fc,,0
2,34,17,f,1,1,135,8,471,1,y,m,1,y,i617ya-fn.jpg,f,fc,,0
2,34,17,f,1,1,135,8,471,1,y,m,2,b,i038qa-mn.jpg,m,fs,,0
2,34,17,f,1,1,135,8,471,1,y,m,3,y,i429xa-fn.jpg,f,fc,,0
2,34,17,f,1,1,135,8,471,1,y,m,4,b,1193,m,fs,,0
2,34,17,f,1,1,135,8,471,1,y,m,5,b,0734,m,fs,,0
2,34,17,f,1,1,135,8,471,1,y,m,6,b,i219ta-mn.jpg,m,fs,,0
2,34,17,f,1,1,135,8,471,1,y,m,7,y,0417,f,fc,,0
2,34,17,f,1,1,135,8,471,1,y,m,8,y,0345,m,t,8,1
2,35,17,f,1,1,136,2,1727,0,y,m,0,y,0799,m,t,0,1
2,35,17,f,1,1,136,2,1727,0,y,m,1,b,0074,m,fs,,0
2,35,17,f,1,1,136,2,1727,0,y,m,2,y,0466,f,fc,,0
2,35,17,f,1,1,136,2,1727,0,y,m,3,y,0458,f,fc,,0
2,35,17,f,1,1,136,2,1727,0,y,m,4,y,0687,f,fc,,0
2,35,17,f,1,1,136,2,1727,0,y,m,5,y,0455,f,fc,,0
2,35,17,f,1,1,136,2,1727,0,y,m,6,b,i442xa-mn.jpg,m,fs,,0
2,35,17,f,1,1,136,2,1727,0,y,m,7,b,1065,m,fs,,0
2,35,17,f,1,1,136,2,1727,0,y,m,8,b,0939,m,fs,,0
2,36,17,f,1,1,137,8,856,0,y,m,0,y,0216,m,t,0,1
2,36,17,f,1,1,137,8,856,0,y,m,1,y,0374,f,fc,,0
2,36,17,f,1,1,137,8,856,0,y,m,2,b,0959,m,fs,,0
2,36,17,f,1,1,137,8,856,0,y,m,3,b,1113,m,fs,,0
2,36,17,f,1,1,137,8,856,0,y,m,4,y,0448,f,fc,,0
2,36,17,f,1,1,137,8,856,0,y,m,5,y,0823,f,fc,,0
2,36,17,f,1,1,137,8,856,0,y,m,6,b,0707,m,fs,,0
2,36,17,f,1,1,137,8,856,0,y,m,7,b,0478,m,fs,,0
2,36,17,f,1,1,137,8,856,0,y,m,8,y,0472,f,fc,,0
2,37,17,f,1,1,138,5,634,1,y,m,0,y,i022qa-fn.jpg,f,fc,,0
2,37,17,f,1,1,138,5,634,1,y,m,1,b,0887,m,fs,,0
2,37,17,f,1,1,138,5,634,1,y,m,2,y,i444xa-fn.jpg,f,fc,,0
2,37,17,f,1,1,138,5,634,1,y,m,3,b,0518,m,fs,,0
2,37,17,f,1,1,138,5,634,1,y,m,4,y,i603ya-fn.jpg,f,fc,,0
2,37,17,f,1,1,138,5,634,1,y,m,5,y,0139,m,t,5,1
2,37,17,f,1,1,138,5,634,1,y,m,6,b,0643,m,fs,,0
2,37,17,f,1,1,138,5,634,1,y,m,7,b,0777,m,fs,,0
2,37,17,f,1,1,138,5,634,1,y,m,8,y,i300ta-fn.jpg,f,fc,,0
2,38,17,f,1,1,139,8,330,1,y,m,0,b,i044qa-mn.jpg,m,fs,,0
2,38,17,f,1,1,139,8,330,1,y,m,1,y,1008,f,fc,,0
2,38,17,f,1,1,139,8,330,1,y,m,2,b,0860,m,fs,,0
2,38,17,f,1,1,139,8,330,1,y,m,3,y,0840,f,fc,,0
2,38,17,f,1,1,139,8,330,1,y,m,4,y,0709,f,fc,,0
2,38,17,f,1,1,139,8,330,1,y,m,5,y,0703,f,fc,,0
2,38,17,f,1,1,139,8,330,1,y,m,6,b,0014,m,fs,,0
2,38,17,f,1,1,139,8,330,1,y,m,7,b,0708,m,fs,,0
2,38,17,f,1,1,139,8,330,1,y,m,8,y,0151,m,t,8,1
2,39,17,f,1,1,140,1,721,1,y,m,0,y,i605ya-fn.jpg,f,fc,,0
2,39,17,f,1,1,140,1,721,1,y,m,1,y,0122,m,t,1,1
2,39,17,f,1,1,140,1,721,1,y,m,2,b,0115,m,fs,,0
2,39,17,f,1,1,140,1,721,1,y,m,3,y,0104,f,fc,,0
2,39,17,f,1,1,140,1,721,1,y,m,4,b,1122,m,fs,,0
2,39,17,f,1,1,140,1,721,1,y,m,5,b,0058,m,fs,,0
2,39,17,f,1,1,140,1,721,1,y,m,6,b,1173,m,fs,,0
2,39,17,f,1,1,140,1,721,1,y,m,7,y,0267,f,fc,,0
2,39,17,f,1,1,140,1,721,1,y,m,8,y,1045,f,fc,,0
2,40,17,f,1,1,141,8,1472,1,y,m,0,b,0222,m,fs,,0
2,40,17,f,1,1,141,8,1472,1,y,m,1,b,1036,m,fs,,0
2,40,17,f,1,1,141,8,1472,1,y,m,2,y,i265ta-fn.jpg,f,fc,,0
2,40,17,f,1,1,141,8,1472,1,y,m,3,y,0963,f,fc,,0
2,40,17,f,1,1,141,8,1472,1,y,m,4,b,0079,m,fs,,0
2,40,17,f,1,1,141,8,1472,1,y,m,5,y,0943,f,fc,,0
2,40,17,f,1,1,141,8,1472,1,y,m,6,b,i010qa-mn.jpg,m,fs,,0
2,40,17,f,1,1,141,8,1472,1,y,m,7,y,0758,f,fc,,0
2,40,17,f,1,1,141,8,1472,1,y,m,8,y,0610,m,t,8,1
2,41,17,f,1,1,142,1,2981,0,y,m,0,y,i615za-fn.jpg,f,fc,,0
2,41,17,f,1,1,142,1,2981,0,y,m,1,y,0262,f,fc,,0
2,41,17,f,1,1,142,1,2981,0,y,m,2,b,i259ta-mn.jpg,m,fs,,0
2,41,17,f,1,1,142,1,2981,0,y,m,3,y,0219,f,fc,,0
2,41,17,f,1,1,142,1,2981,0,y,m,4,b,i253ua-mg.jpg,m,fs,,0
2,41,17,f,1,1,142,1,2981,0,y,m,5,b,0080,m,fs,,0
2,41,17,f,1,1,142,1,2981,0,y,m,6,y,0248,m,t,6,1
2,41,17,f,1,1,142,1,2981,0,y,m,7,b,1198,m,fs,,0
2,41,17,f,1,1,142,1,2981,0,y,m,8,y,0366,f,fc,,0
2,42,17,f,1,1,143,7,1048,0,y,m,0,y,0826,m,t,0,1
2,42,17,f,1,1,143,7,1048,0,y,m,1,y,0599,f,fc,,0
2,42,17,f,1,1,143,7,1048,0,y,m,2,b,i261ta-mn.jpg,m,fs,,0
2,42,17,f,1,1,143,7,1048,0,y,m,3,b,0289,m,fs,,0
2,42,17,f,1,1,143,7,1048,0,y,m,4,b,0679,m,fs,,0
2,42,17,f,1,1,143,7,1048,0,y,m,5,y,1013,f,fc,,0
2,42,17,f,1,1,143,7,1048,0,y,m,6,b,0759,m,fs,,0
2,42,17,f,1,1,143,7,1048,0,y,m,7,y,0530,f,fc,,0
2,42,17,f,1,1,143,7,1048,0,y,m,8,y,1154,f,fc,,0
2,43,17,f,1,1,144,1,524,1,y,m,0,b,0584,m,fs,,0
2,43,17,f,1,1,144,1,524,1,y,m,1,y,0463,m,t,1,1
2,43,17,f,1,1,144,1,524,1,y,m,2,b,i274ta-mn.jpg,m,fs,,0
2,43,17,f,1,1,144,1,524,1,y,m,3,y,i284ta-fg.jpg,f,fc,,0
2,43,17,f,1,1,144,1,524,1,y,m,4,y,0635,f,fc,,0
2,43,17,f,1,1,144,1,524,1,y,m,5,y,i619ya-fg.jpg,f,fc,,0
2,43,17,f,1,1,144,1,524,1,y,m,6,y,0699,f,fc,,0
2,43,17,f,1,1,144,1,524,1,y,m,7,b,0520,m,fs,,0
2,43,17,f,1,1,144,1,524,1,y,m,8,b,0998,m,fs,,0
2,44,17,f,1,1,145,7,571,1,y,m,0,y,i409wa-fg.jpg,f,fc,,0
2,44,17,f,1,1,145,7,571,1,y,m,1,b,0820,m,fs,,0
2,44,17,f,1,1,145,7,571,1,y,m,2,y,0101,f,fc,,0
2,44,17,f,1,1,145,7,571,1,y,m,3,y,0026,f,fc,,0
2,44,17,f,1,1,145,7,571,1,y,m,4,b,0415,m,fs,,0
2,44,17,f,1,1,145,7,571,1,y,m,5,y,i418wa-fn.jpg,f,fc,,0
2,44,17,f,1,1,145,7,571,1,y,m,6,b,0695,m,fs,,0
2,44,17,f,1,1,145,7,571,1,y,m,7,y,1149,m,t,7,1
2,44,17,f,1,1,145,7,571,1,y,m,8,b,1074,m,fs,,0
2,45,17,f,1,1,146,0,632,1,y,m,0,y,0493,m,t,0,1
2,45,17,f,1,1,146,0,632,1,y,m,1,b,0830,m,fs,,0
2,45,17,f,1,1,146,0,632,1,y,m,2,b,1110,m,fs,,0
2,45,17,f,1,1,146,0,632,1,y,m,3,y,i410wa-fn.jpg,f,fc,,0
2,45,17,f,1,1,146,0,632,1,y,m,4,y,0782,f,fc,,0
2,45,17,f,1,1,146,0,632,1,y,m,5,b,0721,m,fs,,0
2,45,17,f,1,1,146,0,632,1,y,m,6,y,0316,f,fc,,0
2,45,17,f,1,1,146,0,632,1,y,m,7,y,i087ra-fn.jpg,f,fc,,0
2,45,17,f,1,1,146,0,632,1,y,m,8,b,0535,m,fs,,0
2,46,17,f,1,1,147,8,554,1,y,m,0,b,0800,m,fs,,0
2,46,17,f,1,1,147,8,554,1,y,m,1,b,0236,m,fs,,0
2,46,17,f,1,1,147,8,554,1,y,m,2,y,1132,f,fc,,0
2,46,17,f,1,1,147,8,554,1,y,m,3,y,0439,f,fc,,0
2,46,17,f,1,1,147,8,554,1,y,m,4,y,0350,f,fc,,0
2,46,17,f,1,1,147,8,554,1,y,m,5,b,i296ta-mg.jpg,m,fs,,0
2,46,17,f,1,1,147,8,554,1,y,m,6,y,0400,f,fc,,0
2,46,17,f,1,1,147,8,554,1,y,m,7,b,1192,m,fs,,0
2,46,17,f,1,1,147,8,554,1,y,m,8,y,0067,m,t,8,1
2,47,17,f,1,1,148,4,755,1,y,m,0,y,0047,f,fc,,0
2,47,17,f,1,1,148,4,755,1,y,m,1,b,0161,m,fs,,0
2,47,17,f,1,1,148,4,755,1,y,m,2,y,0639,f,fc,,0
2,47,17,f,1,1,148,4,755,1,y,m,3,b,0471,m,fs,,0
2,47,17,f,1,1,148,4,755,1,y,m,4,y,0531,m,t,4,1
2,47,17,f,1,1,148,4,755,1,y,m,5,b,0333,m,fs,,0
2,47,17,f,1,1,148,4,755,1,y,m,6,y,i422wa-fn.jpg,f,fc,,0
2,47,17,f,1,1,148,4,755,1,y,m,7,b,0008,m,fs,,0
2,47,17,f,1,1,148,4,755,1,y,m,8,y,1044,f,fc,,0
2,48,17,f,1,1,149,1,927,1,y,m,0,y,i245ua-fn.jpg,f,fc,,0
2,48,17,f,1,1,149,1,927,1,y,m,1,y,0180,m,t,1,1
2,48,17,f,1,1,149,1,927,1,y,m,2,b,1004,m,fs,,0
2,48,17,f,1,1,149,1,927,1,y,m,3,y,0435,f,fc,,0
2,48,17,f,1,1,149,1,927,1,y,m,4,b,0203,m,fs,,0
2,48,17,f,1,1,149,1,927,1,y,m,5,y,0375,f,fc,,0
2,48,17,f,1,1,149,1,927,1,y,m,6,b,0968,m,fs,,0
2,48,17,f,1,1,149,1,927,1,y,m,7,b,0247,m,fs,,0
2,48,17,f,1,1,149,1,927,1,y,m,8,y,0395,f,fc,,0
2,49,17,f,1,1,150,8,193,1,y,m,0,y,1194,f,fc,,0
2,49,17,f,1,1,150,8,193,1,y,m,1,y,1072,f,fc,,0
2,49,17,f,1,1,150,8,193,1,y,m,2,y,i306ua-fg.jpg,f,fc,,0
2,49,17,f,1,1,150,8,193,1,y,m,3,b,1163,m,fs,,0
2,49,17,f,1,1,150,8,193,1,y,m,4,b,0666,m,fs,,0
2,49,17,f,1,1,150,8,193,1,y,m,5,b,0859,m,fs,,0
2,49,17,f,1,1,150,8,193,1,y,m,6,b,i294ta-mg.jpg,m,fs,,0
2,49,17,f,1,1,150,8,193,1,y,m,7,y,0927,f,fc,,0
2,49,17,f,1,1,150,8,193,1,y,m,8,y,i090ra-mn.jpg,m,t,8,1
2,50,17,f,1,1,151,1,576,0,y,m,0,b,0527,m,fs,,0
2,50,17,f,1,1,151,1,576,0,y,m,1,y,0449,f,fc,,0
2,50,17,f,1,1,151,1,576,0,y,m,2,b,0536,m,fs,,0
2,50,17,f,1,1,151,1,576,0,y,m,3,y,0855,m,t,3,1
2,50,17,f,1,1,151,1,576,0,y,m,4,y,0040,f,fc,,0
2,50,17,f,1,1,151,1,576,0,y,m,5,y,0317,f,fc,,0
2,50,17,f,1,1,151,1,576,0,y,m,6,y,1135,f,fc,,0
2,50,17,f,1,1,151,1,576,0,y,m,7,b,0251,m,fs,,0
2,50,17,f,1,1,151,1,576,0,y,m,8,b,i068qa-mn.jpg,m,fs,,0
2,51,17,f,1,1,152,8,367,1,y,m,0,y,0589,f,fc,,0
2,51,17,f,1,1,152,8,367,1,y,m,1,b,0135,m,fs,,0
2,51,17,f,1,1,152,8,367,1,y,m,2,b,1142,m,fs,,0
2,51,17,f,1,1,152,8,367,1,y,m,3,y,0107,f,fc,,0
2,51,17,f,1,1,152,8,367,1,y,m,4,y,1185,f,fc,,0
2,51,17,f,1,1,152,8,367,1,y,m,5,b,0833,m,fs,,0
2,51,17,f,1,1,152,8,367,1,y,m,6,y,0665,f,fc,,0
2,51,17,f,1,1,152,8,367,1,y,m,7,b,1124,m,fs,,0
2,51,17,f,1,1,152,8,367,1,y,m,8,y,0885,m,t,8,1
2,52,17,f,1,1,153,2,653,1,y,m,0,y,0831,f,fc,,0
2,52,17,f,1,1,153,2,653,1,y,m,1,b,1086,m,fs,,0
2,52,17,f,1,1,153,2,653,1,y,m,2,y,0794,m,t,2,1
2,52,17,f,1,1,153,2,653,1,y,m,3,y,i281ua-fn.jpg,f,fc,,0
2,52,17,f,1,1,153,2,653,1,y,m,4,b,1162,m,fs,,0
2,52,17,f,1,1,153,2,653,1,y,m,5,y,1078,f,fc,,0
2,52,17,f,1,1,153,2,653,1,y,m,6,b,0011,m,fs,,0
2,52,17,f,1,1,153,2,653,1,y,m,7,b,1062,m,fs,,0
2,52,17,f,1,1,153,2,653,1,y,m,8,y,0873,f,fc,,0
2,53,17,f,1,1,154,2,797,0,y,m,0,y,1167,f,fc,,0
2,53,17,f,1,1,154,2,797,0,y,m,1,b,0942,m,fs,,0
2,53,17,f,1,1,154,2,797,0,y,m,2,y,1061,f,fc,,0
2,53,17,f,1,1,154,2,797,0,y,m,3,y,0936,f,fc,,0
2,53,17,f,1,1,154,2,797,0,y,m,4,y,0252,m,t,4,1
2,53,17,f,1,1,154,2,797,0,y,m,5,y,0549,f,fc,,0
2,53,17,f,1,1,154,2,797,0,y,m,6,b,i048qa-mn.jpg,m,fs,,0
2,53,17,f,1,1,154,2,797,0,y,m,7,b,0646,m,fs,,0
2,53,17,f,1,1,154,2,797,0,y,m,8,b,1056,m,fs,,0
2,54,17,f,1,1,155,1,653,1,y,m,0,b,0383,m,fs,,0
2,54,17,f,1,1,155,1,653,1,y,m,1,y,0898,m,t,1,1
2,54,17,f,1,1,155,1,653,1,y,m,2,b,0657,m,fs,,0
2,54,17,f,1,1,155,1,653,1,y,m,3,b,0684,m,fs,,0
2,54,17,f,1,1,155,1,653,1,y,m,4,y,0413,f,fc,,0
2,54,17,f,1,1,155,1,653,1,y,m,5,y,0398,f,fc,,0
2,54,17,f,1,1,155,1,653,1,y,m,6,b,0736,m,fs,,0
2,54,17,f,1,1,155,1,653,1,y,m,7,y,0421,f,fc,,0
2,54,17,f,1,1,155,1,653,1,y,m,8,y,0327,f,fc,,0
2,55,17,f,1,1,156,1,416,0,y,m,0,y,0558,m,t,0,1
2,55,17,f,1,1,156,1,416,0,y,m,1,y,0424,f,fc,,0
2,55,17,f,1,1,156,1,416,0,y,m,2,b,0462,m,fs,,0
2,55,17,f,1,1,156,1,416,0,y,m,3,y,0631,f,fc,,0
2,55,17,f,1,1,156,1,416,0,y,m,4,y,0506,f,fc,,0
2,55,17,f,1,1,156,1,416,0,y,m,5,b,1105,m,fs,,0
2,55,17,f,1,1,156,1,416,0,y,m,6,b,i008ra-mn.jpg,m,fs,,0
2,55,17,f,1,1,156,1,416,0,y,m,7,y,i285ta-fn.jpg,f,fc,,0
2,55,17,f,1,1,156,1,416,0,y,m,8,b,0081,m,fs,,0
2,56,17,f,1,1,157,1,981,0,y,m,0,y,0391,f,fc,,0
2,56,17,f,1,1,157,1,981,0,y,m,1,y,0438,f,fc,,0
2,56,17,f,1,1,157,1,981,0,y,m,2,b,0173,m,fs,,0
2,56,17,f,1,1,157,1,981,0,y,m,3,b,i028qa-mg.jpg,m,fs,,0
2,56,17,f,1,1,157,1,981,0,y,m,4,b,0724,m,fs,,0
2,56,17,f,1,1,157,1,981,0,y,m,5,b,0246,m,fs,,0
2,56,17,f,1,1,157,1,981,0,y,m,6,y,0773,f,fc,,0
2,56,17,f,1,1,157,1,981,0,y,m,7,y,i302ta-fn.jpg,f,fc,,0
2,56,17,f,1,1,157,1,981,0,y,m,8,y,1038,m,t,8,1
2,57,17,f,1,1,158,1,467,1,y,m,0,y,0403,f,fc,,0
2,57,17,f,1,1,158,1,467,1,y,m,1,y,0286,m,t,1,1
2,57,17,f,1,1,158,1,467,1,y,m,2,b,i040qa-mn.jpg,m,fs,,0
2,57,17,f,1,1,158,1,467,1,y,m,3,b,0497,m,fs,,0
2,57,17,f,1,1,158,1,467,1,y,m,4,y,0308,f,fc,,0
2,57,17,f,1,1,158,1,467,1,y,m,5,y,0191,f,fc,,0
2,57,17,f,1,1,158,1,467,1,y,m,6,y,0141,f,fc,,0
2,57,17,f,1,1,158,1,467,1,y,m,7,b,1076,m,fs,,0
2,57,17,f,1,1,158,1,467,1,y,m,8,b,0880,m,fs,,0
2,58,17,f,1,1,159,5,355,1,y,m,0,b,i229ua-mn.jpg,m,fs,,0
2,58,17,f,1,1,159,5,355,1,y,m,1,y,0263,f,fc,,0
2,58,17,f,1,1,159,5,355,1,y,m,2,y,0980,f,fc,,0
2,58,17,f,1,1,159,5,355,1,y,m,3,y,i007ra-fn.jpg,f,fc,,0
2,58,17,f,1,1,159,5,355,1,y,m,4,b,1092,m,fs,,0
2,58,17,f,1,1,159,5,355,1,y,m,5,y,0524,m,t,5,1
2,58,17,f,1,1,159,5,355,1,y,m,6,y,i437xa-fn.jpg,f,fc,,0
2,58,17,f,1,1,159,5,355,1,y,m,7,b,1077,m,fs,,0
2,58,17,f,1,1,159,5,355,1,y,m,8,b,0989,m,fs,,0
2,59,17,f,1,1,160,2,3858,1,y,m,0,y,0437,f,fc,,0
2,59,17,f,1,1,160,2,3858,1,y,m,1,b,1003,m,fs,,0
2,59,17,f,1,1,160,2,3858,1,y,m,2,y,0988,m,t,2,1
2,59,17,f,1,1,160,2,3858,1,y,m,3,y,i433xa-fn.jpg,f,fc,,0
2,59,17,f,1,1,160,2,3858,1,y,m,4,y,i061ra-fn.jpg,f,fc,,0
2,59,17,f,1,1,160,2,3858,1,y,m,5,b,0009,m,fs,,0
2,59,17,f,1,1,160,2,3858,1,y,m,6,b,0127,m,fs,,0
2,59,17,f,1,1,160,2,3858,1,y,m,7,y,0384,f,fc,,0
2,59,17,f,1,1,160,2,3858,1,y,m,8,b,i260ta-mn.jpg,m,fs,,0
2,60,17,f,1,1,161,5,5259,0,y,m,0,y,0656,m,t,0,1
2,60,17,f,1,1,161,5,5259,0,y,m,1,y,1165,f,fc,,0
2,60,17,f,1,1,161,5,5259,0,y,m,2,y,i403wa-fn.jpg,f,fc,,0
2,60,17,f,1,1,161,5,5259,0,y,m,3,b,0995,m,fs,,0
2,60,17,f,1,1,161,5,5259,0,y,m,4,b,0228,m,fs,,0
2,60,17,f,1,1,161,5,5259,0,y,m,5,y,1102,f,fc,,0
2,60,17,f,1,1,161,5,5259,0,y,m,6,b,0822,m,fs,,0
2,60,17,f,1,1,161,5,5259,0,y,m,7,y,0202,f,fc,,0
2,60,17,f,1,1,161,5,5259,0,y,m,8,b,0162,m,fs,,0
2,61,17,f,1,1,162,4,359,1,y,m,0,b,0474,m,fs,,0
2,61,17,f,1,1,162,4,359,1,y,m,1,y,0606,f,fc,,0
2,61,17,f,1,1,162,4,359,1,y,m,2,b,0097,m,fs,,0
2,61,17,f,1,1,162,4,359,1,y,m,3,b,1129,m,fs,,0
2,61,17,f,1,1,162,4,359,1,y,m,4,y,1073,m,t,4,1
2,61,17,f,1,1,162,4,359,1,y,m,5,y,0227,f,fc,,0
2,61,17,f,1,1,162,4,359,1,y,m,6,y,1181,f,fc,,0
2,61,17,f,1,1,162,4,359,1,y,m,7,y,i448xa-fn.jpg,f,fc,,0
2,61,17,f,1,1,162,4,359,1,y,m,8,b,1207,m,fs,,0
2,62,17,f,1,1,163,0,742,1,y,m,0,y,i084qa-mn.jpg,m,t,0,1
2,62,17,f,1,1,163,0,742,1,y,m,1,b,0615,m,fs,,0
2,62,17,f,1,1,163,0,742,1,y,m,2,y,0769,f,fc,,0
2,62,17,f,1,1,163,0,742,1,y,m,3,b,0240,m,fs,,0
2,62,17,f,1,1,163,0,742,1,y,m,4,b,0792,m,fs,,0
2,62,17,f,1,1,163,0,742,1,y,m,5,y,1079,f,fc,,0
2,62,17,f,1,1,163,0,742,1,y,m,6,y,0944,f,fc,,0
2,62,17,f,1,1,163,0,742,1,y,m,7,b,0714,m,fs,,0
2,62,17,f,1,1,163,0,742,1,y,m,8,y,0689,f,fc,,0
2,63,17,f,1,1,164,1,620,1,y,m,0,b,1081,m,fs,,0
2,63,17,f,1,1,164,1,620,1,y,m,1,y,0062,m,t,1,1
2,63,17,f,1,1,164,1,620,1,y,m,2,b,1197,m,fs,,0
2,63,17,f,1,1,164,1,620,1,y,m,3,y,0958,f,fc,,0
2,63,17,f,1,1,164,1,620,1,y,m,4,y,0568,f,fc,,0
2,63,17,f,1,1,164,1,620,1,y,m,5,b,0596,m,fs,,0
2,63,17,f,1,1,164,1,620,1,y,m,6,b,0093,m,fs,,0
2,63,17,f,1,1,164,1,620,1,y,m,7,y,1127,f,fc,,0
2,63,17,f,1,1,164,1,620,1,y,m,8,y,0406,f,fc,,0
2,64,17,f,1,1,165,8,313,1,y,m,0,y,0356,f,fc,,0
2,64,17,f,1,1,165,8,313,1,y,m,1,b,0082,m,fs,,0
2,64,17,f,1,1,165,8,313,1,y,m,2,y,i233ta-fn.jpg,f,fc,,0
2,64,17,f,1,1,165,8,313,1,y,m,3,b,0300,m,fs,,0
2,64,17,f,1,1,165,8,313,1,y,m,4,b,0693,m,fs,,0
2,64,17,f,1,1,165,8,313,1,y,m,5,y,0209,f,fc,,0
2,64,17,f,1,1,165,8,313,1,y,m,6,b,0875,m,fs,,0
2,64,17,f,1,1,165,8,313,1,y,m,7,y,0525,f,fc,,0
2,64,17,f,1,1,165,8,313,1,y,m,8,y,0533,m,t,8,1
2,65,17,f,1,1,166,0,507,1,y,m,0,y,0516,m,t,0,1
2,65,17,f,1,1,166,0,507,1,y,m,1,b,i244ta-mn.jpg,m,fs,,0
2,65,17,f,1,1,166,0,507,1,y,m,2,y,0720,f,fc,,0
2,65,17,f,1,1,166,0,507,1,y,m,3,b,0322,m,fs,,0
2,65,17,f,1,1,166,0,507,1,y,m,4,y,i424xa-fn.jpg,f,fc,,0
2,65,17,f,1,1,166,0,507,1,y,m,5,y,0779,f,fc,,0
2,65,17,f,1,1,166,0,507,1,y,m,6,b,0193,m,fs,,0
2,65,17,f,1,1,166,0,507,1,y,m,7,y,0889,f,fc,,0
2,65,17,f,1,1,166,0,507,1,y,m,8,b,i440xa-mg.jpg,m,fs,,0
2,66,17,f,1,1,167,3,323,1,y,m,0,y,0429,f,fc,,0
2,66,17,f,1,1,167,3,323,1,y,m,1,b,0627,m,fs,,0
2,66,17,f,1,1,167,3,323,1,y,m,2,y,1152,f,fc,,0
2,66,17,f,1,1,167,3,323,1,y,m,3,y,0132,m,t,3,1
2,66,17,f,1,1,167,3,323,1,y,m,4,y,0605,f,fc,,0
2,66,17,f,1,1,167,3,323,1,y,m,5,y,0559,f,fc,,0
2,66,17,f,1,1,167,3,323,1,y,m,6,b,0332,m,fs,,0
2,66,17,f,1,1,167,3,323,1,y,m,7,b,0671,m,fs,,0
2,66,17,f,1,1,167,3,323,1,y,m,8,b,1050,m,fs,,0
2,67,17,f,1,1,168,5,5264,0,y,m,0,y,1146,f,fc,,0
2,67,17,f,1,1,168,5,5264,0,y,m,1,y,0405,f,fc,,0
2,67,17,f,1,1,168,5,5264,0,y,m,2,b,0863,m,fs,,0
2,67,17,f,1,1,168,5,5264,0,y,m,3,b,0586,m,fs,,0
2,67,17,f,1,1,168,5,5264,0,y,m,4,b,0726,m,fs,,0
2,67,17,f,1,1,168,5,5264,0,y,m,5,y,1196,f,fc,,0
2,67,17,f,1,1,168,5,5264,0,y,m,6,y,0033,f,fc,,0
2,67,17,f,1,1,168,5,5264,0,y,m,7,y,1001,m,t,7,1
2,67,17,f,1,1,168,5,5264,0,y,m,8,b,i270ta-mn.jpg,m,fs,,0
2,68,17,f,1,1,169,0,465,1,y,m,0,y,0701,m,t,0,1
2,68,17,f,1,1,169,0,465,1,y,m,1,y,0388,f,fc,,0
2,68,17,f,1,1,169,0,465,1,y,m,2,b,0142,m,fs,,0
2,68,17,f,1,1,169,0,465,1,y,m,3,b,0819,m,fs,,0
2,68,17,f,1,1,169,0,465,1,y,m,4,y,0507,f,fc,,0
2,68,17,f,1,1,169,0,465,1,y,m,5,y,0730,f,fc,,0
2,68,17,f,1,1,169,0,465,1,y,m,6,b,0625,m,fs,,0
2,68,17,f,1,1,169,0,465,1,y,m,7,y,i248ua-fn.jpg,f,fc,,0
2,68,17,f,1,1,169,0,465,1,y,m,8,b,0094,m,fs,,0
2,69,17,f,1,1,170,3,515,1,y,m,0,y,0500,f,fc,,0
2,69,17,f,1,1,170,3,515,1,y,m,1,b,0753,m,fs,,0
2,69,17,f,1,1,170,3,515,1,y,m,2,b,0108,m,fs,,0
2,69,17,f,1,1,170,3,515,1,y,m,3,y,0002,m,t,3,1
2,69,17,f,1,1,170,3,515,1,y,m,4,y,0280,f,fc,,0
2,69,17,f,1,1,170,3,515,1,y,m,5,b,0905,m,fs,,0
2,69,17,f,1,1,170,3,515,1,y,m,6,y,1026,f,fc,,0
2,69,17,f,1,1,170,3,515,1,y,m,7,y,i293ua-fn.jpg,f,fc,,0
2,69,17,f,1,1,170,3,515,1,y,m,8,b,0215,m,fs,,0
2,70,17,f,1,1,171,4,1537,0,y,m,0,b,0030,m,fs,,0
2,70,17,f,1,1,171,4,1537,0,y,m,1,y,0945,f,fc,,0
2,70,17,f,1,1,171,4,1537,0,y,m,2,b,i241ua-mn.jpg,m,fs,,0
2,70,17,f,1,1,171,4,1537,0,y,m,3,y,0445,f,fc,,0
2,70,17,f,1,1,171,4,1537,0,y,m,4,y,i030qa-fg.jpg,f,fc,,0
2,70,17,f,1,1,171,4,1537,0,y,m,5,y,0102,f,fc,,0
2,70,17,f,1,1,171,4,1537,0,y,m,6,y,0844,m,t,6,1
2,70,17,f,1,1,171,4,1537,0,y,m,7,b,0089,m,fs,,0
2,70,17,f,1,1,171,4,1537,0,y,m,8,b,0301,m,fs,,0
2,71,17,f,1,1,172,0,466,1,y,m,0,y,i273ua-mn.jpg,m,t,0,1
2,71,17,f,1,1,172,0,466,1,y,m,1,y,0638,f,fc,,0
2,71,17,f,1,1,172,0,466,1,y,m,2,y,0061,f,fc,,0
2,71,17,f,1,1,172,0,466,1,y,m,3,b,i083ra-mn.jpg,m,fs,,0
2,71,17,f,1,1,172,0,466,1,y,m,4,b,0339,m,fs,,0
2,71,17,f,1,1,172,0,466,1,y,m,5,y,i301ta-fg.jpg,f,fc,,0
2,71,17,f,1,1,172,0,466,1,y,m,6,b,0876,m,fs,,0
2,71,17,f,1,1,172,0,466,1,y,m,7,y,0543,f,fc,,0
2,71,17,f,1,1,172,0,466,1,y,m,8,b,i054ra-mg.jpg,m,fs,,0
2,72,17,f,1,1,173,2,501,1,y,m,0,b,1023,m,fs,,0
2,72,17,f,1,1,173,2,501,1,y,m,1,b,0318,m,fs,,0
2,72,17,f,1,1,173,2,501,1,y,m,2,y,0077,m,t,2,1
2,72,17,f,1,1,173,2,501,1,y,m,3,y,i283ta-fn.jpg,f,fc,,0
2,72,17,f,1,1,173,2,501,1,y,m,4,y,0399,f,fc,,0
2,72,17,f,1,1,173,2,501,1,y,m,5,b,i011qa-mn.jpg,m,fs,,0
2,72,17,f,1,1,173,2,501,1,y,m,6,y,0324,f,fc,,0
2,72,17,f,1,1,173,2,501,1,y,m,7,b,0334,m,fs,,0
2,72,17,f,1,1,173,2,501,1,y,m,8,y,1177,f,fc,,0
2,73,17,f,1,1,174,8,488,1,y,m,0,y,0894,f,fc,,0
2,73,17,f,1,1,174,8,488,1,y,m,1,b,0490,m,fs,,0
2,73,17,f,1,1,174,8,488,1,y,m,2,y,0057,f,fc,,0
2,73,17,f,1,1,174,8,488,1,y,m,3,y,0694,f,fc,,0
2,73,17,f,1,1,174,8,488,1,y,m,4,b,0952,m,fs,,0
2,73,17,f,1,1,174,8,488,1,y,m,5,b,0871,m,fs,,0
2,73,17,f,1,1,174,8,488,1,y,m,6,y,1080,f,fc,,0
2,73,17,f,1,1,174,8,488,1,y,m,7,b,i215ta-mg.jpg,m,fs,,0
2,73,17,f,1,1,174,8,488,1,y,m,8,y,0869,m,t,8,1
2,74,17,f,1,1,175,2,903,1,y,m,0,b,0295,m,fs,,0
2,74,17,f,1,1,175,2,903,1,y,m,1,b,0304,m,fs,,0
2,74,17,f,1,1,175,2,903,1,y,m,2,y,0881,m,t,2,1
2,74,17,f,1,1,175,2,903,1,y,m,3,y,0426,f,fc,,0
2,74,17,f,1,1,175,2,903,1,y,m,4,b,0465,m,fs,,0
2,74,17,f,1,1,175,2,903,1,y,m,5,y,0717,f,fc,,0
2,74,17,f,1,1,175,2,903,1,y,m,6,b,0861,m,fs,,0
2,74,17,f,1,1,175,2,903,1,y,m,7,y,0087,f,fc,,0
2,74,17,f,1,1,175,2,903,1,y,m,8,y,1108,f,fc,,0
2,75,17,f,1,1,176,0,1592,0,y,m,0,b,i240ua-mn.jpg,m,fs,,0
2,75,17,f,1,1,176,0,1592,0,y,m,1,b,0186,m,fs,,0
2,75,17,f,1,1,176,0,1592,0,y,m,2,y,0349,f,fc,,0
2,75,17,f,1,1,176,0,1592,0,y,m,3,b,i246ua-mg.jpg,m,fs,,0
2,75,17,f,1,1,176,0,1592,0,y,m,4,b,0297,m,fs,,0
2,75,17,f,1,1,176,0,1592,0,y,m,5,y,0560,f,fc,,0
2,75,17,f,1,1,176,0,1592,0,y,m,6,y,i609za-fg.jpg,f,fc,,0
2,75,17,f,1,1,176,0,1592,0,y,m,7,y,0157,m,t,7,1
2,75,17,f,1,1,176,0,1592,0,y,m,8,y,0313,f,fc,,0
2,76,17,f,1,1,177,1,396,1,y,m,0,b,0025,m,fs,,0
2,76,17,f,1,1,177,1,396,1,y,m,1,y,0310,m,t,1,1
2,76,17,f,1,1,177,1,396,1,y,m,2,b,0159,m,fs,,0
2,76,17,f,1,1,177,1,396,1,y,m,3,y,0221,f,fc,,0
2,76,17,f,1,1,177,1,396,1,y,m,4,b,0618,m,fs,,0
2,76,17,f,1,1,177,1,396,1,y,m,5,y,i286ta-fn.jpg,f,fc,,0
2,76,17,f,1,1,177,1,396,1,y,m,6,y,0408,f,fc,,0
2,76,17,f,1,1,177,1,396,1,y,m,7,y,0452,f,fc,,0
2,76,17,f,1,1,177,1,396,1,y,m,8,b,0230,m,fs,,0
2,77,17,f,1,1,178,4,480,1,y,m,0,b,0715,m,fs,,0
2,77,17,f,1,1,178,4,480,1,y,m,1,y,1017,f,fc,,0
2,77,17,f,1,1,178,4,480,1,y,m,2,y,1133,f,fc,,0
2,77,17,f,1,1,178,4,480,1,y,m,3,b,i264ta-mn.jpg,m,fs,,0
2,77,17,f,1,1,178,4,480,1,y,m,4,y,0200,m,t,4,1
2,77,17,f,1,1,178,4,480,1,y,m,5,b,0565,m,fs,,0
2,77,17,f,1,1,178,4,480,1,y,m,6,b,1150,m,fs,,0
2,77,17,f,1,1,178,4,480,1,y,m,7,y,0231,f,fc,,0
2,77,17,f,1,1,178,4,480,1,y,m,8,y,0804,f,fc,,0
2,78,17,f,1,1,179,4,219,1,y,m,0,y,0266,f,fc,,0
2,78,17,f,1,1,179,4,219,1,y,m,1,y,i214ua-fn.jpg,f,fc,,0
2,78,17,f,1,1,179,4,219,1,y,m,2,y,0675,f,fc,,0
2,78,17,f,1,1,179,4,219,1,y,m,3,b,0502,m,fs,,0
2,78,17,f,1,1,179,4,219,1,y,m,4,y,0528,m,t,4,1
2,78,17,f,1,1,179,4,219,1,y,m,5,y,1031,f,fc,,0
2,78,17,f,1,1,179,4,219,1,y,m,6,b,i017qa-mg.jpg,m,fs,,0
2,78,17,f,1,1,179,4,219,1,y,m,7,b,0364,m,fs,,0
2,78,17,f,1,1,179,4,219,1,y,m,8,b,i257ua-mn.jpg,m,fs,,0
2,79,17,f,1,1,180,2,544,1,y,m,0,b,i075qa-mn.jpg,m,fs,,0
2,79,17,f,1,1,180,2,544,1,y,m,1,b,i203ua-mn.jpg,m,fs,,0
2,79,17,f,1,1,180,2,544,1,y,m,2,y,0561,m,t,2,1
2,79,17,f,1,1,180,2,544,1,y,m,3,y,0376,f,fc,,0
2,79,17,f,1,1,180,2,544,1,y,m,4,y,0278,f,fc,,0
2,79,17,f,1,1,180,2,544,1,y,m,5,y,i415xa-fn.jpg,f,fc,,0
2,79,17,f,1,1,180,2,544,1,y,m,6,b,0460,m,fs,,0
2,79,17,f,1,1,180,2,544,1,y,m,7,y,0225,f,fc,,0
2,79,17,f,1,1,180,2,544,1,y,m,8,b,0838,m,fs,,0
2,80,17,f,1,1,181,8,709,0,y,m,0,b,0766,m,fs,,0
2,80,17,f,1,1,181,8,709,0,y,m,1,y,0411,f,fc,,0
2,80,17,f,1,1,181,8,709,0,y,m,2,b,i622ya-mn.jpg,m,fs,,0
2,80,17,f,1,1,181,8,709,0,y,m,3,b,0917,m,fs,,0
2,80,17,f,1,1,181,8,709,0,y,m,4,y,1106,f,fc,,0
2,80,17,f,1,1,181,8,709,0,y,m,5,y,0346,f,fc,,0
2,80,17,f,1,1,181,8,709,0,y,m,6,y,0698,m,t,6,1
2,80,17,f,1,1,181,8,709,0,y,m,7,b,0034,m,fs,,0
2,80,17,f,1,1,181,8,709,0,y,m,8,y,1159,f,fc,,0
2,81,17,f,1,1,182,2,642,1,y,m,0,y,1042,f,fc,,0
2,81,17,f,1,1,182,2,642,1,y,m,1,y,0949,f,fc,,0
2,81,17,f,1,1,182,2,642,1,y,m,2,y,i297ta-mn.jpg,m,t,2,1
2,81,17,f,1,1,182,2,642,1,y,m,3,b,0772,m,fs,,0
2,81,17,f,1,1,182,2,642,1,y,m,4,b,0114,m,fs,,0
2,81,17,f,1,1,182,2,642,1,y,m,5,b,0575,m,fs,,0
2,81,17,f,1,1,182,2,642,1,y,m,6,b,0017,m,fs,,0
2,81,17,f,1,1,182,2,642,1,y,m,7,y,0315,f,fc,,0
2,81,17,f,1,1,182,2,642,1,y,m,8,y,0343,f,fc,,0
2,82,17,f,1,1,183,7,1198,1,y,m,0,y,0574,f,fc,,0
2,82,17,f,1,1,183,7,1198,1,y,m,1,b,1172,m,fs,,0
2,82,17,f,1,1,183,7,1198,1,y,m,2,y,0548,f,fc,,0
2,82,17,f,1,1,183,7,1198,1,y,m,3,b,0960,m,fs,,0
2,82,17,f,1,1,183,7,1198,1,y,m,4,b,0983,m,fs,,0
2,82,17,f,1,1,183,7,1198,1,y,m,5,y,0914,f,fc,,0
2,82,17,f,1,1,183,7,1198,1,y,m,6,y,0441,f,fc,,0
2,82,17,f,1,1,183,7,1198,1,y,m,7,y,1091,m,t,7,1
2,82,17,f,1,1,183,7,1198,1,y,m,8,b,i405xa-fn.jpg,m,fs,,0
2,83,17,f,1,1,184,1,458,1,y,m,0,b,0778,m,fs,,0
2,83,17,f,1,1,184,1,458,1,y,m,1,y,0924,m,t,1,1
2,83,17,f,1,1,184,1,458,1,y,m,2,b,0051,m,fs,,0
2,83,17,f,1,1,184,1,458,1,y,m,3,y,1048,f,fc,,0
2,83,17,f,1,1,184,1,458,1,y,m,4,y,0791,f,fc,,0
2,83,17,f,1,1,184,1,458,1,y,m,5,b,1178,m,fs,,0
2,83,17,f,1,1,184,1,458,1,y,m,6,y,1011,f,fc,,0
2,83,17,f,1,1,184,1,458,1,y,m,7,y,i211ua-fn.jpg,f,fc,,0
2,83,17,f,1,1,184,1,458,1,y,m,8,b,0841,m,fs,,0
2,84,17,f,1,1,185,2,579,0,y,m,0,b,0091,m,fs,,0
2,84,17,f,1,1,185,2,579,0,y,m,1,y,1164,f,fc,,0
2,84,17,f,1,1,185,2,579,0,y,m,2,y,1083,f,fc,,0
2,84,17,f,1,1,185,2,579,0,y,m,3,b,i445xa-mg.jpg,m,fs,,0
2,84,17,f,1,1,185,2,579,0,y,m,4,y,i013qa-fn.jpg,f,fc,,0
2,84,17,f,1,1,185,2,579,0,y,m,5,y,0432,f,fc,,0
2,84,17,f,1,1,185,2,579,0,y,m,6,y,0856,m,t,6,1
2,84,17,f,1,1,185,2,579,0,y,m,7,b,0933,m,fs,,0
2,84,17,f,1,1,185,2,579,0,y,m,8,b,i232ua-mn.jpg,m,fs,,0
2,85,17,f,1,1,186,0,482,1,y,m,0,y,1130,m,t,0,1
2,85,17,f,1,1,186,0,482,1,y,m,1,y,0021,f,fc,,0
2,85,17,f,1,1,186,0,482,1,y,m,2,b,0624,m,fs,,0
2,85,17,f,1,1,186,0,482,1,y,m,3,y,0953,f,fc,,0
2,85,17,f,1,1,186,0,482,1,y,m,4,b,1030,m,fs,,0
2,85,17,f,1,1,186,0,482,1,y,m,5,y,i304ua-fg.jpg,f,fc,,0
2,85,17,f,1,1,186,0,482,1,y,m,6,y,0682,f,fc,,0
2,85,17,f,1,1,186,0,482,1,y,m,7,b,1085,m,fs,,0
2,85,17,f,1,1,186,0,482,1,y,m,8,b,0954,m,fs,,0
2,86,17,f,1,1,187,3,255,1,y,m,0,b,0003,m,fs,,0
2,86,17,f,1,1,187,3,255,1,y,m,1,y,0326,f,fc,,0
2,86,17,f,1,1,187,3,255,1,y,m,2,b,0303,m,fs,,0
2,86,17,f,1,1,187,3,255,1,y,m,3,y,0204,m,t,3,1
2,86,17,f,1,1,187,3,255,1,y,m,4,y,0941,f,fc,,0
2,86,17,f,1,1,187,3,255,1,y,m,5,y,0354,f,fc,,0
2,86,17,f,1,1,187,3,255,1,y,m,6,y,0392,f,fc,,0
2,86,17,f,1,1,187,3,255,1,y,m,7,b,0904,m,fs,,0
2,86,17,f,1,1,187,3,255,1,y,m,8,b,1145,m,fs,,0
2,87,17,f,1,1,188,0,236,1,y,m,0,y,0156,m,t,0,1
2,87,17,f,1,1,188,0,236,1,y,m,1,b,0028,m,fs,,0
2,87,17,f,1,1,188,0,236,1,y,m,2,y,0302,f,fc,,0
2,87,17,f,1,1,188,0,236,1,y,m,3,y,0632,f,fc,,0
2,87,17,f,1,1,188,0,236,1,y,m,4,b,i034qa-mg.jpg,m,fs,,0
2,87,17,f,1,1,188,0,236,1,y,m,5,y,i014qa-fn.jpg,f,fc,,0
2,87,17,f,1,1,188,0,236,1,y,m,6,y,0848,f,fc,,0
2,87,17,f,1,1,188,0,236,1,y,m,7,b,1093,m,fs,,0
2,87,17,f,1,1,188,0,236,1,y,m,8,b,1203,m,fs,,0
2,88,17,f,1,1,189,4,175,1,y,m,0,y,0414,f,fc,,0
2,88,17,f,1,1,189,4,175,1,y,m,1,b,1043,m,fs,,0
2,88,17,f,1,1,189,4,175,1,y,m,2,b,i238ta-mn.jpg,m,fs,,0
2,88,17,f,1,1,189,4,175,1,y,m,3,y,0719,f,fc,,0
2,88,17,f,1,1,189,4,175,1,y,m,4,y,0514,m,t,4,1
2,88,17,f,1,1,189,4,175,1,y,m,5,b,i009ra-mn.jpg,m,fs,,0
2,88,17,f,1,1,189,4,175,1,y,m,6,y,i051qa-fn.jpg,f,fc,,0
2,88,17,f,1,1,189,4,175,1,y,m,7,b,i045qa-mn.jpg,m,fs,,0
2,88,17,f,1,1,189,4,175,1,y,m,8,y,0529,f,fc,,0
2,89,17,f,1,1,190,1,447,1,y,m,0,b,0179,m,fs,,0
2,89,17,f,1,1,190,1,447,1,y,m,1,y,0697,m,t,1,1
2,89,17,f,1,1,190,1,447,1,y,m,2,y,i606za-fn.jpg,f,fc,,0
2,89,17,f,1,1,190,1,447,1,y,m,3,b,i228ua-mg.jpg,m,fs,,0
2,89,17,f,1,1,190,1,447,1,y,m,4,b,0489,m,fs,,0
2,89,17,f,1,1,190,1,447,1,y,m,5,b,0888,m,fs,,0
2,89,17,f,1,1,190,1,447,1,y,m,6,y,i222ua-fn.jpg,f,fc,,0
2,89,17,f,1,1,190,1,447,1,y,m,7,y,i447xa-fn.jpg,f,fc,,0
2,89,17,f,1,1,190,1,447,1,y,m,8,y,i411xa-fn.jpg,f,fc,,0
2,90,17,f,1,1,191,8,489,0,y,m,0,b,1109,m,fs,,0
2,90,17,f,1,1,191,8,489,0,y,m,1,y,i236ua-fn.jpg,f,fc,,0
2,90,17,f,1,1,191,8,489,0,y,m,2,y,0428,f,fc,,0
2,90,17,f,1,1,191,8,489,0,y,m,3,b,1027,m,fs,,0
2,90,17,f,1,1,191,8,489,0,y,m,4,b,0504,m,fs,,0
2,90,17,f,1,1,191,8,489,0,y,m,5,y,i604za-fn.jpg,f,fc,,0
2,90,17,f,1,1,191,8,489,0,y,m,6,b,0982,m,fs,,0
2,90,17,f,1,1,191,8,489,0,y,m,7,y,1170,m,t,7,1
2,90,17,f,1,1,191,8,489,0,y,m,8,y,0459,f,fc,,0
2,91,17,f,1,1,192,0,1837,1,y,m,0,y,0099,m,t,0,1
2,91,17,f,1,1,192,0,1837,1,y,m,1,b,0990,m,fs,,0
2,91,17,f,1,1,192,0,1837,1,y,m,2,y,0637,f,fc,,0
2,91,17,f,1,1,192,0,1837,1,y,m,3,y,0670,f,fc,,0
2,91,17,f,1,1,192,0,1837,1,y,m,4,y,0254,f,fc,,0
2,91,17,f,1,1,192,0,1837,1,y,m,5,b,i230ua-mn.jpg,m,fs,,0
2,91,17,f,1,1,192,0,1837,1,y,m,6,b,0595,m,fs,,0
2,91,17,f,1,1,192,0,1837,1,y,m,7,b,0359,m,fs,,0
2,91,17,f,1,1,192,0,1837,1,y,m,8,y,0581,f,fc,,0
2,92,17,f,1,1,193,2,596,1,y,m,0,b,i425xa-mn.jpg,m,fs,,0
2,92,17,f,1,1,193,2,596,1,y,m,1,b,0608,m,fs,,0
2,92,17,f,1,1,193,2,596,1,y,m,2,y,i041ra-mn.jpg,m,t,2,1
2,92,17,f,1,1,193,2,596,1,y,m,3,y,0396,f,fc,,0
2,92,17,f,1,1,193,2,596,1,y,m,4,y,0294,f,fc,,0
2,92,17,f,1,1,193,2,596,1,y,m,5,b,i278ua-mn.jpg,m,fs,,0
2,92,17,f,1,1,193,2,596,1,y,m,6,y,0647,f,fc,,0
2,92,17,f,1,1,193,2,596,1,y,m,7,b,0857,m,fs,,0
2,92,17,f,1,1,193,2,596,1,y,m,8,y,i067ra-fn.jpg,f,fc,,0
2,93,17,f,1,1,194,7,977,1,y,m,0,b,0892,m,fs,,0
2,93,17,f,1,1,194,7,977,1,y,m,1,b,0660,m,fs,,0
2,93,17,f,1,1,194,7,977,1,y,m,2,y,1019,f,fc,,0
2,93,17,f,1,1,194,7,977,1,y,m,3,b,i049qa-mn.jpg,m,fs,,0
2,93,17,f,1,1,194,7,977,1,y,m,4,b,0784,m,fs,,0
2,93,17,f,1,1,194,7,977,1,y,m,5,y,0319,f,fc,,0
2,93,17,f,1,1,194,7,977,1,y,m,6,y,i431xa-fn.jpg,f,fc,,0
2,93,17,f,1,1,194,7,977,1,y,m,7,y,0050,m,t,7,1
2,93,17,f,1,1,194,7,977,1,y,m,8,y,0628,f,fc,,0
2,94,17,f,1,1,195,1,530,1,y,m,0,y,1158,f,fc,,0
2,94,17,f,1,1,195,1,530,1,y,m,1,y,0964,m,t,1,1
2,94,17,f,1,1,195,1,530,1,y,m,2,y,1153,f,fc,,0
2,94,17,f,1,1,195,1,530,1,y,m,3,b,0776,m,fs,,0
2,94,17,f,1,1,195,1,530,1,y,m,4,b,0464,m,fs,,0
2,94,17,f,1,1,195,1,530,1,y,m,5,y,i019qa-fn.jpg,f,fc,,0
2,94,17,f,1,1,195,1,530,1,y,m,6,b,i242ta-mn.jpg,m,fs,,0
2,94,17,f,1,1,195,1,530,1,y,m,7,b,0761,m,fs,,0
2,94,17,f,1,1,195,1,530,1,y,m,8,y,i077qa-fn.jpg,f,fc,,0
2,95,17,f,1,1,196,4,237,1,y,m,0,y,0352,f,fc,,0
2,95,17,f,1,1,196,4,237,1,y,m,1,b,0205,m,fs,,0
2,95,17,f,1,1,196,4,237,1,y,m,2,y,i018ra-fn.jpg,f,fc,,0
2,95,17,f,1,1,196,4,237,1,y,m,3,b,0688,m,fs,,0
2,95,17,f,1,1,196,4,237,1,y,m,4,y,0369,m,t,4,1
2,95,17,f,1,1,196,4,237,1,y,m,5,b,0760,m,fs,,0
2,95,17,f,1,1,196,4,237,1,y,m,6,y,1090,f,fc,,0
2,95,17,f,1,1,196,4,237,1,y,m,7,y,0224,f,fc,,0
2,95,17,f,1,1,196,4,237,1,y,m,8,b,0877,m,fs,,0
2,96,17,f,1,1,197,1,612,1,y,m,0,b,0802,m,fs,,0
2,96,17,f,1,1,197,1,612,1,y,m,1,y,i443xa-mn.jpg,m,t,1,1
2,96,17,f,1,1,197,1,612,1,y,m,2,b,0774,m,fs,,0
2,96,17,f,1,1,197,1,612,1,y,m,3,y,0422,f,fc,,0
2,96,17,f,1,1,197,1,612,1,y,m,4,y,0442,f,fc,,0
2,96,17,f,1,1,197,1,612,1,y,m,5,y,0815,f,fc,,0
2,96,17,f,1,1,197,1,612,1,y,m,6,b,0716,m,fs,,0
2,96,17,f,1,1,197,1,612,1,y,m,7,b,0016,m,fs,,0
2,96,17,f,1,1,197,1,612,1,y,m,8,y,i303ua-fg.jpg,f,fc,,0
2,97,17,f,1,1,198,3,561,1,y,m,0,b,1131,m,fs,,0
2,97,17,f,1,1,198,3,561,1,y,m,1,y,0235,f,fc,,0
2,97,17,f,1,1,198,3,561,1,y,m,2,b,0641,m,fs,,0
2,97,17,f,1,1,198,3,561,1,y,m,3,y,0063,m,t,3,1
2,97,17,f,1,1,198,3,561,1,y,m,4,y,i607ya-fn.jpg,f,fc,,0
2,97,17,f,1,1,198,3,561,1,y,m,5,y,0292,f,fc,,0
2,97,17,f,1,1,198,3,561,1,y,m,6,b,1064,m,fs,,0
2,97,17,f,1,1,198,3,561,1,y,m,7,y,0495,f,fc,,0
2,97,17,f,1,1,198,3,561,1,y,m,8,b,i064ra-mn.jpg,m,fs,,0
2,98,17,f,1,1,199,3,567,0,y,m,0,b,1005,m,fs,,0
2,98,17,f,1,1,199,3,567,0,y,m,1,y,0434,f,fc,,0
2,98,17,f,1,1,199,3,567,0,y,m,2,b,0987,m,fs,,0
2,98,17,f,1,1,199,3,567,0,y,m,3,y,0469,f,fc,,0
2,98,17,f,1,1,199,3,567,0,y,m,4,y,0482,f,fc,,0
2,98,17,f,1,1,199,3,567,0,y,m,5,y,1204,m,t,5,1
2,98,17,f,1,1,199,3,567,0,y,m,6,y,0337,f,fc,,0
2,98,17,f,1,1,199,3,567,0,y,m,7,b,0591,m,fs,,0
2,98,17,f,1,1,199,3,567,0,y,m,8,b,i200ua-mg.jpg,m,fs,,0
2,99,17,f,1,1,200,8,328,1,y,m,0,b,0467,m,fs,,0
2,99,17,f,1,1,200,8,328,1,y,m,1,b,i073ra-mg.jpg,m,fs,,0
2,99,17,f,1,1,200,8,328,1,y,m,2,y,0377,f,fc,,0
2,99,17,f,1,1,200,8,328,1,y,m,3,y,0644,f,fc,,0
2,99,17,f,1,1,200,8,328,1,y,m,4,y,1051,f,fc,,0
2,99,17,f,1,1,200,8,328,1,y,m,5,b,0059,m,fs,,0
2,99,17,f,1,1,200,8,328,1,y,m,6,b,0042,m,fs,,0
2,99,17,f,1,1,200,8,328,1,y,m,7,y,0379,f,fc,,0
2,99,17,f,1,1,200,8,328,1,y,m,8,y,0511,m,t,8,1
3,0,23,m,1,1,201,8,1196,0,b,f,0,b,0568,f,t,0,1
3,0,23,m,1,1,201,8,1196,0,b,f,1,b,0014,m,fc,,0
3,0,23,m,1,1,201,8,1196,0,b,f,2,b,0195,m,fc,,0
3,0,23,m,1,1,201,8,1196,0,b,f,3,y,0255,f,fs,,0
3,0,23,m,1,1,201,8,1196,0,b,f,4,y,0944,f,fs,,0
3,0,23,m,1,1,201,8,1196,0,b,f,5,b,0892,m,fc,,0
3,0,23,m,1,1,201,8,1196,0,b,f,6,y,0429,f,fs,,0
3,0,23,m,1,1,201,8,1196,0,b,f,7,y,0773,f,fs,,0
3,0,23,m,1,1,201,8,1196,0,b,f,8,b,0573,m,fc,,0
3,1,23,m,1,1,202,2,1830,0,b,f,0,b,0733,m,fc,,0
3,1,23,m,1,1,202,2,1830,0,b,f,1,b,0850,f,t,1,1
3,1,23,m,1,1,202,2,1830,0,b,f,2,b,0603,m,fc,,0
3,1,23,m,1,1,202,2,1830,0,b,f,3,b,i251ta-mn.jpg,m,fc,,0
3,1,23,m,1,1,202,2,1830,0,b,f,4,y,0804,f,fs,,0
3,1,23,m,1,1,202,2,1830,0,b,f,5,y,1151,f,fs,,0
3,1,23,m,1,1,202,2,1830,0,b,f,6,b,0594,m,fc,,0
3,1,23,m,1,1,202,2,1830,0,b,f,7,y,0387,f,fs,,0
3,1,23,m,1,1,202,2,1830,0,b,f,8,y,0789,f,fs,,0
3,2,23,m,1,1,203,7,550,1,b,f,0,b,0999,m,fc,,0
3,2,23,m,1,1,203,7,550,1,b,f,1,y,i265ta-fn.jpg,f,fs,,0
3,2,23,m,1,1,203,7,550,1,b,f,2,b,0988,m,fc,,0
3,2,23,m,1,1,203,7,550,1,b,f,3,y,i233ta-fn.jpg,f,fs,,0
3,2,23,m,1,1,203,7,550,1,b,f,4,b,0917,m,fc,,0
3,2,23,m,1,1,203,7,550,1,b,f,5,y,0336,f,fs,,0
3,2,23,m,1,1,203,7,550,1,b,f,6,y,0379,f,fs,,0
3,2,23,m,1,1,203,7,550,1,b,f,7,b,0637,f,t,7,1
3,2,23,m,1,1,203,7,550,1,b,f,8,b,1096,m,fc,,0
3,3,23,m,1,1,204,1,1100,0,b,f,0,b,i420xa-mn.jpg,m,fc,,0
3,3,23,m,1,1,204,1,1100,0,b,f,1,y,1089,f,fs,,0
3,3,23,m,1,1,204,1,1100,0,b,f,2,y,0963,f,fs,,0
3,3,23,m,1,1,204,1,1100,0,b,f,3,b,1204,m,fc,,0
3,3,23,m,1,1,204,1,1100,0,b,f,4,y,0330,f,fs,,0
3,3,23,m,1,1,204,1,1100,0,b,f,5,b,0138,m,fc,,0
3,3,23,m,1,1,204,1,1100,0,b,f,6,y,0782,f,fs,,0
3,3,23,m,1,1,204,1,1100,0,b,f,7,b,0827,f,t,7,1
3,3,23,m,1,1,204,1,1100,0,b,f,8,b,i295ua-mg.jpg,m,fc,,0
3,4,23,m,1,1,205,6,738,0,b,f,0,y,0965,f,fs,,0
3,4,23,m,1,1,205,6,738,0,b,f,1,b,i416xa-mn.jpg,m,fc,,0
3,4,23,m,1,1,205,6,738,0,b,f,2,b,0738,m,fc,,0
3,4,23,m,1,1,205,6,738,0,b,f,3,y,i447xa-fn.jpg,f,fs,,0
3,4,23,m,1,1,205,6,738,0,b,f,4,b,i286ta-fn.jpg,f,t,4,1
3,4,23,m,1,1,205,6,738,0,b,f,5,y,0648,f,fs,,0
3,4,23,m,1,1,205,6,738,0,b,f,6,b,0756,m,fc,,0
3,4,23,m,1,1,205,6,738,0,b,f,7,y,0600,f,fs,,0
3,4,23,m,1,1,205,6,738,0,b,f,8,b,1024,m,fc,,0
3,5,23,m,1,1,206,5,1485,0,b,f,0,b,i228ua-mg.jpg,m,fc,,0
3,5,23,m,1,1,206,5,1485,0,b,f,1,y,1165,f,fs,,0
3,5,23,m,1,1,206,5,1485,0,b,f,2,y,i306ua-fg.jpg,f,fs,,0
3,5,23,m,1,1,206,5,1485,0,b,f,3,y,1136,f,fs,,0
3,5,23,m,1,1,206,5,1485,0,b,f,4,y,0047,f,fs,,0
3,5,23,m,1,1,206,5,1485,0,b,f,5,b,0626,m,fc,,0
3,5,23,m,1,1,206,5,1485,0,b,f,6,b,0678,m,fc,,0
3,5,23,m,1,1,206,5,1485,0,b,f,7,b,0190,f,t,7,1
3,5,23,m,1,1,206,5,1485,0,b,f,8,b,i215ta-mg.jpg,m,fc,,0
3,6,23,m,1,1,207,7,1246,0,b,f,0,y,0628,f,fs,,0
3,6,23,m,1,1,207,7,1246,0,b,f,1,y,0485,f,fs,,0
3,6,23,m,1,1,207,7,1246,0,b,f,2,b,0089,m,fc,,0
3,6,23,m,1,1,207,7,1246,0,b,f,3,b,i307ta-mg.jpg,m,fc,,0
3,6,23,m,1,1,207,7,1246,0,b,f,4,b,0166,m,fc,,0
3,6,23,m,1,1,207,7,1246,0,b,f,5,b,1067,f,t,5,1
3,6,23,m,1,1,207,7,1246,0,b,f,6,y,0980,f,fs,,0
3,6,23,m,1,1,207,7,1246,0,b,f,7,y,0569,f,fs,,0
3,6,23,m,1,1,207,7,1246,0,b,f,8,b,0204,m,fc,,0
3,7,23,m,1,1,208,6,664,1,b,f,0,y,0416,f,fs,,0
3,7,23,m,1,1,208,6,664,1,b,f,1,y,i086qa-fn.jpg,f,fs,,0
3,7,23,m,1,1,208,6,664,1,b,f,2,b,1036,m,fc,,0
3,7,23,m,1,1,208,6,664,1,b,f,3,y,0378,f,fs,,0
3,7,23,m,1,1,208,6,664,1,b,f,4,b,0718,m,fc,,0
3,7,23,m,1,1,208,6,664,1,b,f,5,b,i622ya-mn.jpg,m,fc,,0
3,7,23,m,1,1,208,6,664,1,b,f,6,b,0380,f,t,6,1
3,7,23,m,1,1,208,6,664,1,b,f,7,b,0515,m,fc,,0
3,7,23,m,1,1,208,6,664,1,b,f,8,y,0397,f,fs,,0
3,8,23,m,1,1,209,1,1061,0,b,f,0,y,0556,f,fs,,0
3,8,23,m,1,1,209,1,1061,0,b,f,1,y,0791,f,fs,,0
3,8,23,m,1,1,209,1,1061,0,b,f,2,y,0655,f,fs,,0
3,8,23,m,1,1,209,1,1061,0,b,f,3,b,0891,m,fc,,0
3,8,23,m,1,1,209,1,1061,0,b,f,4,b,0748,m,fc,,0
3,8,23,m,1,1,209,1,1061,0,b,f,5,b,i422wa-fn.jpg,f,t,5,1
3,8,23,m,1,1,209,1,1061,0,b,f,6,b,0124,m,fc,,0
3,8,23,m,1,1,209,1,1061,0,b,f,7,y,i620ya-fn.jpg,f,fs,,0
3,8,23,m,1,1,209,1,1061,0,b,f,8,b,i294ta-mg.jpg,m,fc,,0
3,9,23,m,1,1,210,5,1399,1,b,f,0,b,i203ua-mn.jpg,m,fc,,0
3,9,23,m,1,1,210,5,1399,1,b,f,1,y,0914,f,fs,,0
3,9,23,m,1,1,210,5,1399,1,b,f,2,b,0621,m,fc,,0
3,9,23,m,1,1,210,5,1399,1,b,f,3,b,i035ra-mn.jpg,m,fc,,0
3,9,23,m,1,1,210,5,1399,1,b,f,4,y,0260,f,fs,,0
3,9,23,m,1,1,210,5,1399,1,b,f,5,b,1042,f,t,5,1
3,9,23,m,1,1,210,5,1399,1,b,f,6,b,0994,m,fc,,0
3,9,23,m,1,1,210,5,1399,1,b,f,7,y,i303ua-fg.jpg,f,fs,,0
3,9,23,m,1,1,210,5,1399,1,b,f,8,y,0599,f,fs,,0
3,10,23,m,1,1,211,0,715,1,b,f,0,b,0391,f,t,0,1
3,10,23,m,1,1,211,0,715,1,b,f,1,y,0492,f,fs,,0
3,10,23,m,1,1,211,0,715,1,b,f,2,b,0517,m,fc,,0
3,10,23,m,1,1,211,0,715,1,b,f,3,y,0280,f,fs,,0
3,10,23,m,1,1,211,0,715,1,b,f,4,b,0520,m,fc,,0
3,10,23,m,1,1,211,0,715,1,b,f,5,y,i613ya-fg.jpg,f,fs,,0
3,10,23,m,1,1,211,0,715,1,b,f,6,b,0503,m,fc,,0
3,10,23,m,1,1,211,0,715,1,b,f,7,y,0549,f,fs,,0
3,10,23,m,1,1,211,0,715,1,b,f,8,b,0774,m,fc,,0
3,11,23,m,1,1,212,8,1486,1,b,f,0,y,0312,f,fs,,0
3,11,23,m,1,1,212,8,1486,1,b,f,1,b,1038,m,fc,,0
3,11,23,m,1,1,212,8,1486,1,b,f,2,y,i007ra-fn.jpg,f,fs,,0
3,11,23,m,1,1,212,8,1486,1,b,f,3,b,i223ua-mn.jpg,m,fc,,0
3,11,23,m,1,1,212,8,1486,1,b,f,4,y,0675,f,fs,,0
3,11,23,m,1,1,212,8,1486,1,b,f,5,y,0202,f,fs,,0
3,11,23,m,1,1,212,8,1486,1,b,f,6,b,0570,m,fc,,0
3,11,23,m,1,1,212,8,1486,1,b,f,7,b,0660,m,fc,,0
3,11,23,m,1,1,212,8,1486,1,b,f,8,b,1057,f,t,8,1
3,12,23,m,1,1,213,5,671,0,b,f,0,b,1131,m,fc,,0
3,12,23,m,1,1,213,5,671,0,b,f,1,b,0971,f,t,1,1
3,12,23,m,1,1,213,5,671,0,b,f,2,b,1205,m,fc,,0
3,12,23,m,1,1,213,5,671,0,b,f,3,y,0787,f,fs,,0
3,12,23,m,1,1,213,5,671,0,b,f,4,y,i293ua-fn.jpg,f,fs,,0
3,12,23,m,1,1,213,5,671,0,b,f,5,b,0904,m,fc,,0
3,12,23,m,1,1,213,5,671,0,b,f,6,y,0662,f,fs,,0
3,12,23,m,1,1,213,5,671,0,b,f,7,y,0107,f,fs,,0
3,12,23,m,1,1,213,5,671,0,b,f,8,b,0009,m,fc,,0
3,13,23,m,1,1,214,2,1302,0,b,f,0,b,0897,m,fc,,0
3,13,23,m,1,1,214,2,1302,0,b,f,1,b,0286,m,fc,,0
3,13,23,m,1,1,214,2,1302,0,b,f,2,y,1118,f,fs,,0
3,13,23,m,1,1,214,2,1302,0,b,f,3,b,0350,f,t,3,1
3,13,23,m,1,1,214,2,1302,0,b,f,4,y,0225,f,fs,,0
3,13,23,m,1,1,214,2,1302,0,b,f,5,y,0815,f,fs,,0
3,13,23,m,1,1,214,2,1302,0,b,f,6,b,1183,m,fc,,0
3,13,23,m,1,1,214,2,1302,0,b,f,7,y,0525,f,fs,,0
3,13,23,m,1,1,214,2,1302,0,b,f,8,b,0684,m,fc,,0
3,14,23,m,1,1,215,6,455,1,b,f,0,b,i405xa-fn.jpg,m,fc,,0
3,14,23,m,1,1,215,6,455,1,b,f,1,y,0903,f,fs,,0
3,14,23,m,1,1,215,6,455,1,b,f,2,y,0346,f,fs,,0
3,14,23,m,1,1,215,6,455,1,b,f,3,b,0189,m,fc,,0
3,14,23,m,1,1,215,6,455,1,b,f,4,y,0448,f,fs,,0
3,14,23,m,1,1,215,6,455,1,b,f,5,b,i225ua-mn.jpg,m,fc,,0
3,14,23,m,1,1,215,6,455,1,b,f,6,b,0147,f,t,6,1
3,14,23,m,1,1,215,6,455,1,b,f,7,y,i249ua-fn.jpg,f,fs,,0
3,14,23,m,1,1,215,6,455,1,b,f,8,b,0253,m,fc,,0
3,15,23,m,1,1,216,1,399,0,b,f,0,b,0463,m,fc,,0
3,15,23,m,1,1,216,1,399,0,b,f,1,b,0610,m,fc,,0
3,15,23,m,1,1,216,1,399,0,b,f,2,b,1128,f,t,2,1
3,15,23,m,1,1,216,1,399,0,b,f,3,y,0420,f,fs,,0
3,15,23,m,1,1,216,1,399,0,b,f,4,b,0504,m,fc,,0
3,15,23,m,1,1,216,1,399,0,b,f,5,y,0530,f,fs,,0
3,15,23,m,1,1,216,1,399,0,b,f,6,b,0977,m,fc,,0
3,15,23,m,1,1,216,1,399,0,b,f,7,y,i211ua-fn.jpg,f,fs,,0
3,15,23,m,1,1,216,1,399,0,b,f,8,y,i281ua-fn.jpg,f,fs,,0
3,16,23,m,1,1,217,8,2294,1,b,f,0,y,0723,f,fs,,0
3,16,23,m,1,1,217,8,2294,1,b,f,1,b,0749,m,fc,,0
3,16,23,m,1,1,217,8,2294,1,b,f,2,y,1090,f,fs,,0
3,16,23,m,1,1,217,8,2294,1,b,f,3,b,i290ta-mn.jpg,m,fc,,0
3,16,23,m,1,1,217,8,2294,1,b,f,4,y,0483,f,fs,,0
3,16,23,m,1,1,217,8,2294,1,b,f,5,y,0466,f,fs,,0
3,16,23,m,1,1,217,8,2294,1,b,f,6,b,0876,m,fc,,0
3,16,23,m,1,1,217,8,2294,1,b,f,7,b,0582,m,fc,,0
3,16,23,m,1,1,217,8,2294,1,b,f,8,b,0455,f,t,8,1
3,17,23,m,1,1,218,6,516,1,b,f,0,y,0984,f,fs,,0
3,17,23,m,1,1,218,6,516,1,b,f,1,b,i274ta-mn.jpg,m,fc,,0
3,17,23,m,1,1,218,6,516,1,b,f,2,y,1185,f,fs,,0
3,17,23,m,1,1,218,6,516,1,b,f,3,b,0975,m,fc,,0
3,17,23,m,1,1,218,6,516,1,b,f,4,y,i235ua-fn.jpg,f,fs,,0
3,17,23,m,1,1,218,6,516,1,b,f,5,b,i056qa-mn.jpg,m,fc,,0
3,17,23,m,1,1,218,6,516,1,b,f,6,b,0072,f,t,6,1
3,17,23,m,1,1,218,6,516,1,b,f,7,y,0769,f,fs,,0
3,17,23,m,1,1,218,6,516,1,b,f,8,b,0490,m,fc,,0
3,18,23,m,1,1,219,8,670,0,b,f,0,y,0920,f,fs,,0
3,18,23,m,1,1,219,8,670,0,b,f,1,y,1009,f,fs,,0
3,18,23,m,1,1,219,8,670,0,b,f,2,b,0724,m,fc,,0
3,18,23,m,1,1,219,8,670,0,b,f,3,b,0902,m,fc,,0
3,18,23,m,1,1,219,8,670,0,b,f,4,b,0932,m,fc,,0
3,18,23,m,1,1,219,8,670,0,b,f,5,y,0996,f,fs,,0
3,18,23,m,1,1,219,8,670,0,b,f,6,b,0389,f,t,6,1
3,18,23,m,1,1,219,8,670,0,b,f,7,y,0101,f,fs,,0
3,18,23,m,1,1,219,8,670,0,b,f,8,b,0251,m,fc,,0
3,19,23,m,1,1,220,3,520,1,b,f,0,b,0058,m,fc,,0
3,19,23,m,1,1,220,3,520,1,b,f,1,b,1109,m,fc,,0
3,19,23,m,1,1,220,3,520,1,b,f,2,y,0433,f,fs,,0
3,19,23,m,1,1,220,3,520,1,b,f,3,b,0373,f,t,3,1
3,19,23,m,1,1,220,3,520,1,b,f,4,y,0242,f,fs,,0
3,19,23,m,1,1,220,3,520,1,b,f,5,b,0680,m,fc,,0
3,19,23,m,1,1,220,3,520,1,b,f,6,y,0636,f,fs,,0
3,19,23,m,1,1,220,3,520,1,b,f,7,b,1074,m,fc,,0
3,19,23,m,1,1,220,3,520,1,b,f,8,y,i305ta-fg.jpg,f,fs,,0
3,20,23,m,1,1,221,6,801,1,b,f,0,b,i224ta-mn.jpg,m,fc,,0
3,20,23,m,1,1,221,6,801,1,b,f,1,y,i266ta-fn.jpg,f,fs,,0
3,20,23,m,1,1,221,6,801,1,b,f,2,y,0393,f,fs,,0
3,20,23,m,1,1,221,6,801,1,b,f,3,b,i243ua-mn.jpg,m,fc,,0
3,20,23,m,1,1,221,6,801,1,b,f,4,b,1068,m,fc,,0
3,20,23,m,1,1,221,6,801,1,b,f,5,b,i442xa-mn.jpg,m,fc,,0
3,20,23,m,1,1,221,6,801,1,b,f,6,b,1059,f,t,6,1
3,20,23,m,1,1,221,6,801,1,b,f,7,y,0562,f,fs,,0
3,20,23,m,1,1,221,6,801,1,b,f,8,y,1167,f,fs,,0
3,21,23,m,1,1,222,3,875,1,b,f,0,y,i610ya-fn.jpg,f,fs,,0
3,21,23,m,1,1,222,3,875,1,b,f,1,y,0719,f,fs,,0
3,21,23,m,1,1,222,3,875,1,b,f,2,y,0068,f,fs,,0
3,21,23,m,1,1,222,3,875,1,b,f,3,b,1154,f,t,3,1
3,21,23,m,1,1,222,3,875,1,b,f,4,b,0023,m,fc,,0
3,21,23,m,1,1,222,3,875,1,b,f,5,b,0688,m,fc,,0
3,21,23,m,1,1,222,3,875,1,b,f,6,b,0959,m,fc,,0
3,21,23,m,1,1,222,3,875,1,b,f,7,b,0763,m,fc,,0
3,21,23,m,1,1,222,3,875,1,b,f,8,y,0505,f,fs,,0
3,22,23,m,1,1,223,4,372,0,b,f,0,y,0313,f,fs,,0
3,22,23,m,1,1,223,4,372,0,b,f,1,b,0924,m,fc,,0
3,22,23,m,1,1,223,4,372,0,b,f,2,y,i236ua-fn.jpg,f,fs,,0
3,22,23,m,1,1,223,4,372,0,b,f,3,y,1007,f,fs,,0
3,22,23,m,1,1,223,4,372,0,b,f,4,y,i207ta-fn.jpg,f,fs,,0
3,22,23,m,1,1,223,4,372,0,b,f,5,b,i411xa-fn.jpg,f,t,5,1
3,22,23,m,1,1,223,4,372,0,b,f,6,b,0546,m,fc,,0
3,22,23,m,1,1,223,4,372,0,b,f,7,b,i256ua-mn.jpg,m,fc,,0
3,22,23,m,1,1,223,4,372,0,b,f,8,b,0729,m,fc,,0
3,23,23,m,1,1,224,8,312,0,b,f,0,y,0032,f,fs,,0
3,23,23,m,1,1,224,8,312,0,b,f,1,y,0554,f,fs,,0
3,23,23,m,1,1,224,8,312,0,b,f,2,b,0766,m,fc,,0
3,23,23,m,1,1,224,8,312,0,b,f,3,b,0623,m,fc,,0
3,23,23,m,1,1,224,8,312,0,b,f,4,b,1047,f,t,4,1
3,23,23,m,1,1,224,8,312,0,b,f,5,y,1166,f,fs,,0
3,23,23,m,1,1,224,8,312,0,b,f,6,y,0609,f,fs,,0
3,23,23,m,1,1,224,8,312,0,b,f,7,b,0885,m,fc,,0
3,23,23,m,1,1,224,8,312,0,b,f,8,b,0161,m,fc,,0
3,24,23,m,1,1,225,3,331,1,b,f,0,y,0786,f,fs,,0
3,24,23,m,1,1,225,3,331,1,b,f,1,y,0388,f,fs,,0
3,24,23,m,1,1,225,3,331,1,b,f,2,b,0744,m,fc,,0
3,24,23,m,1,1,225,3,331,1,b,f,3,b,i291ua-fg.jpg,f,t,3,1
3,24,23,m,1,1,225,3,331,1,b,f,4,y,0650,f,fs,,0
3,24,23,m,1,1,225,3,331,1,b,f,5,b,1006,m,fc,,0
3,24,23,m,1,1,225,3,331,1,b,f,6,b,0474,m,fc,,0
3,24,23,m,1,1,225,3,331,1,b,f,7,y,0395,f,fs,,0
3,24,23,m,1,1,225,3,331,1,b,f,8,b,0119,m,fc,,0
3,25,23,m,1,1,226,0,347,0,b,f,0,b,0460,m,fc,,0
3,25,23,m,1,1,226,0,347,0,b,f,1,b,0432,f,t,1,1
3,25,23,m,1,1,226,0,347,0,b,f,2,y,0374,f,fs,,0
3,25,23,m,1,1,226,0,347,0,b,f,3,y,0329,f,fs,,0
3,25,23,m,1,1,226,0,347,0,b,f,4,b,0740,m,fc,,0
3,25,23,m,1,1,226,0,347,0,b,f,5,b,1003,m,fc,,0
3,25,23,m,1,1,226,0,347,0,b,f,6,b,i425xa-mn.jpg,m,fc,,0
3,25,23,m,1,1,226,0,347,0,b,f,7,y,1195,f,fs,,0
3,25,23,m,1,1,226,0,347,0,b,f,8,y,0052,f,fs,,0
3,26,23,m,1,1,227,1,444,0,b,f,0,b,0282,m,fc,,0
3,26,23,m,1,1,227,1,444,0,b,f,1,y,0398,f,fs,,0
3,26,23,m,1,1,227,1,444,0,b,f,2,y,1021,f,fs,,0
3,26,23,m,1,1,227,1,444,0,b,f,3,b,0327,f,t,3,1
3,26,23,m,1,1,227,1,444,0,b,f,4,b,0685,m,fc,,0
3,26,23,m,1,1,227,1,444,0,b,f,5,y,i020qa-fg.jpg,f,fs,,0
3,26,23,m,1,1,227,1,444,0,b,f,6,b,0143,m,fc,,0
3,26,23,m,1,1,227,1,444,0,b,f,7,y,0399,f,fs,,0
3,26,23,m,1,1,227,1,444,0,b,f,8,b,1091,m,fc,,0
3,27,23,m,1,1,228,2,788,0,b,f,0,y,0427,f,fs,,0
3,27,23,m,1,1,228,2,788,0,b,f,1,y,0231,f,fs,,0
3,27,23,m,1,1,228,2,788,0,b,f,2,b,0082,m,fc,,0
3,27,23,m,1,1,228,2,788,0,b,f,3,b,1022,m,fc,,0
3,27,23,m,1,1,228,2,788,0,b,f,4,b,0514,m,fc,,0
3,27,23,m,1,1,228,2,788,0,b,f,5,y,0013,f,fs,,0
3,27,23,m,1,1,228,2,788,0,b,f,6,y,0123,f,fs,,0
3,27,23,m,1,1,228,2,788,0,b,f,7,b,0681,f,t,7,1
3,27,23,m,1,1,228,2,788,0,b,f,8,b,0759,m,fc,,0
3,28,23,m,1,1,229,6,326,1,b,f,0,y,1008,f,fs,,0
3,28,23,m,1,1,229,6,326,1,b,f,1,b,1193,m,fc,,0
3,28,23,m,1,1,229,6,326,1,b,f,2,b,0085,m,fc,,0
3,28,23,m,1,1,229,6,326,1,b,f,3,b,1206,m,fc,,0
3,28,23,m,1,1,229,6,326,1,b,f,4,b,1066,m,fc,,0
3,28,23,m,1,1,229,6,326,1,b,f,5,y,1020,f,fs,,0
3,28,23,m,1,1,229,6,326,1,b,f,6,b,0315,f,t,6,1
3,28,23,m,1,1,229,6,326,1,b,f,7,y,1169,f,fs,,0
3,28,23,m,1,1,229,6,326,1,b,f,8,y,1159,f,fs,,0
3,29,23,m,1,1,230,0,379,0,b,f,0,b,0093,m,fc,,0
3,29,23,m,1,1,230,0,379,0,b,f,1,y,0936,f,fs,,0
3,29,23,m,1,1,230,0,379,0,b,f,2,y,0981,f,fs,,0
3,29,23,m,1,1,230,0,379,0,b,f,3,y,1155,f,fs,,0
3,29,23,m,1,1,230,0,379,0,b,f,4,b,0258,m,fc,,0
3,29,23,m,1,1,230,0,379,0,b,f,5,b,0301,m,fc,,0
3,29,23,m,1,1,230,0,379,0,b,f,6,b,0480,f,t,6,1
3,29,23,m,1,1,230,0,379,0,b,f,7,b,0511,m,fc,,0
3,29,23,m,1,1,230,0,379,0,b,f,8,y,0411,f,fs,,0
