uidf,trial,age,usex,session,block,block_id,tid,response,rt,correct,target_color,target_sex,correctResponse
1,0,19,f,1,1,1,1,8,7478,0,b,m,2
1,1,19,f,1,1,1,2,3,1816,1,b,m,3
1,2,19,f,1,1,1,3,4,571,1,b,m,4
1,3,19,f,1,1,1,4,0,740,0,b,m,2
1,4,19,f,1,1,1,5,3,937,1,b,m,3
1,5,19,f,1,1,1,6,8,513,1,b,m,8
1,6,19,f,1,1,1,7,8,491,1,b,m,8
1,7,19,f,1,1,1,8,2,869,1,b,m,2
1,8,19,f,1,1,1,9,6,1465,1,b,m,6
1,9,19,f,1,1,1,10,4,1029,0,b,m,5
1,10,19,f,1,1,1,11,3,1177,1,b,m,3
1,11,19,f,1,1,1,12,2,1099,1,b,m,2
1,12,19,f,1,1,1,13,7,514,1,b,m,7
1,13,19,f,1,1,1,14,3,408,1,b,m,3
1,14,19,f,1,1,1,15,2,675,1,b,m,2
1,15,19,f,1,1,1,16,1,1102,0,b,m,3
1,16,19,f,1,1,1,17,0,259,1,b,m,0
1,17,19,f,1,1,1,18,6,391,0,b,m,3
1,18,19,f,1,1,1,19,0,159,1,b,m,0
1,19,19,f,1,1,1,20,0,748,1,b,m,0
1,20,19,f,1,1,1,21,8,317,1,b,m,8
1,21,19,f,1,1,1,22,8,496,0,b,m,0
1,22,19,f,1,1,1,23,4,467,1,b,m,4
1,23,19,f,1,1,1,24,5,952,1,b,m,5
1,24,19,f,1,1,1,25,3,662,0,b,m,8
1,25,19,f,1,1,1,26,4,314,1,b,m,4
1,26,19,f,1,1,1,27,3,345,1,b,m,3
1,27,19,f,1,1,1,28,6,359,1,b,m,6
1,28,19,f,1,1,1,29,2,1810,0,b,m,6
1,29,19,f,1,1,1,30,2,661,1,b,m,2
1,30,19,f,1,1,1,31,8,644,1,b,m,8
1,31,19,f,1,1,1,32,3,388,1,b,m,3
1,32,19,f,1,1,1,33,7,860,0,b,m,2
1,33,19,f,1,1,1,34,1,364,1,b,m,1
1,34,19,f,1,1,1,35,3,484,1,b,m,3
1,35,19,f,1,1,1,36,7,686,0,b,m,0
1,36,19,f,1,1,1,37,6,465,1,b,m,6
1,37,19,f,1,1,1,38,0,505,1,b,m,0
1,38,19,f,1,1,1,39,6,175,1,b,m,6
1,39,19,f,1,1,1,40,2,437,1,b,m,2
1,40,19,f,1,1,1,41,3,325,1,b,m,3
1,41,19,f,1,1,1,42,8,612,0,b,m,2
1,42,19,f,1,1,1,43,2,455,1,b,m,2
1,43,19,f,1,1,1,44,4,79,1,b,m,4
1,44,19,f,1,1,1,45,4,649,1,b,m,4
1,45,19,f,1,1,1,46,6,402,1,b,m,6
1,46,19,f,1,1,1,47,2,606,1,b,m,2
1,47,19,f,1,1,1,48,3,503,1,b,m,3
1,48,19,f,1,1,1,49,8,640,1,b,m,8
1,49,19,f,1,1,1,50,8,329,1,b,m,8
1,50,19,f,1,1,1,51,1,805,0,b,m,3
1,51,19,f,1,1,1,52,4,143,1,b,m,4
1,52,19,f,1,1,1,53,7,670,0,b,m,1
1,53,19,f,1,1,1,54,4,512,0,b,m,5
1,54,19,f,1,1,1,55,3,535,1,b,m,3
1,55,19,f,1,1,1,56,3,552,1,b,m,3
1,56,19,f,1,1,1,57,4,1135,0,b,m,6
1,57,19,f,1,1,1,58,4,180,1,b,m,4
1,58,19,f,1,1,1,59,2,597,0,b,m,4
1,59,19,f,1,1,1,60,1,317,1,b,m,1
1,60,19,f,1,1,1,61,7,605,0,b,m,0
1,61,19,f,1,1,1,62,3,625,0,b,m,6
1,62,19,f,1,1,1,63,4,330,1,b,m,4
1,63,19,f,1,1,1,64,4,415,0,b,m,5
1,64,19,f,1,1,1,65,8,765,0,b,m,2
1,65,19,f,1,1,1,66,3,298,1,b,m,3
1,66,19,f,1,1,1,67,1,162,1,b,m,1
1,67,19,f,1,1,1,68,3,207,1,b,m,3
1,68,19,f,1,1,1,69,7,454,1,b,m,7
1,69,19,f,1,1,1,70,2,707,1,b,m,2
1,70,19,f,1,1,1,71,7,476,1,b,m,7
1,71,19,f,1,1,1,72,2,585,1,b,m,2
1,72,19,f,1,1,1,73,2,472,1,b,m,2
1,73,19,f,1,1,1,74,1,385,1,b,m,1
1,74,19,f,1,1,1,75,2,576,0,b,m,1
1,75,19,f,1,1,1,76,3,281,1,b,m,3
1,76,19,f,1,1,1,77,1,500,1,b,m,1
1,77,19,f,1,1,1,78,1,1308,0,b,m,2
1,78,19,f,1,1,1,79,8,724,1,b,m,8
1,79,19,f,1,1,1,80,6,257,1,b,m,6
1,80,19,f,1,1,1,81,6,1121,1,b,m,6
1,81,19,f,1,1,1,82,5,747,1,b,m,5
1,82,19,f,1,1,1,83,2,665,0,b,m,3
1,83,19,f,1,1,1,84,1,413,1,b,m,1
1,84,19,f,1,1,1,85,4,824,1,b,m,4
1,85,19,f,1,1,1,86,4,941,1,b,m,4
1,86,19,f,1,1,1,87,2,900,1,b,m,2
1,87,19,f,1,1,1,88,7,1206,1,b,m,7
1,88,19,f,1,1,1,89,2,669,0,b,m,1
1,89,19,f,1,1,1,90,0,314,1,b,m,0
1,90,19,f,1,1,1,91,8,495,0,b,m,0
1,91,19,f,1,1,1,92,6,96,1,b,m,6
1,92,19,f,1,1,1,93,4,212,1,b,m,4
1,93,19,f,1,1,1,94,7,737,1,b,m,7
1,94,19,f,1,1,1,95,3,632,1,b,m,3
1,95,19,f,1,1,1,96,7,660,1,b,m,7
1,96,19,f,1,1,1,97,4,408,1,b,m,4
1,97,19,f,1,1,1,98,6,458,1,b,m,6
1,98,19,f,1,1,1,99,7,407,1,b,m,7
1,99,19,f,1,1,1,100,1,436,1,b,m,1
2,0,17,f,1,1,2,101,6,1820,0,y,m,0
2,1,17,f,1,1,2,102,3,1232,0,y,m,1
2,2,17,f,1,1,2,103,7,2401,0,y,m,3
2,3,17,f,1,1,2,104,8,703,1,y,m,8
2,4,17,f,1,1,2,105,1,735,1,y,m,1
2,5,17,f,1,1,2,106,3,2397,0,y,m,6
2,6,17,f,1,1,2,107,7,1917,1,y,m,7
2,7,17,f,1,1,2,108,2,905,1,y,m,2
2,8,17,f,1,1,2,109,5,383,1,y,m,5
2,9,17,f,1,1,2,110,0,955,1,y,m,0
2,10,17,f,1,1,2,111,2,1717,0,y,m,0
2,11,17,f,1,1,2,112,5,1385,0,y,m,0
2,12,17,f,1,1,2,113,2,585,1,y,m,2
2,13,17,f,1,1,2,114,1,254,1,y,m,1
2,14,17,f,1,1,2,115,8,2699,0,y,m,7
2,15,17,f,1,1,2,116,3,132,1,y,m,3
2,16,17,f,1,1,2,117,2,599,1,y,m,2
2,17,17,f,1,1,2,118,3,726,1,y,m,3
2,18,17,f,1,1,2,119,4,803,1,y,m,4
2,19,17,f,1,1,2,120,2,2109,0,y,m,7
2,20,17,f,1,1,2,121,1,699,1,y,m,1
2,21,17,f,1,1,2,122,6,3829,1,y,m,6
2,22,17,f,1,1,2,123,1,517,1,y,m,1
2,23,17,f,1,1,2,124,1,723,1,y,m,1
2,24,17,f,1,1,2,125,1,777,1,y,m,1
2,25,17,f,1,1,2,126,2,758,1,y,m,2
2,26,17,f,1,1,2,127,8,2049,0,y,m,1
2,27,17,f,1,1,2,128,3,370,1,y,m,3
2,28,17,f,1,1,2,129,6,787,1,y,m,6
2,29,17,f,1,1,2,130,5,674,0,y,m,0
2,30,17,f,1,1,2,131,2,708,1,y,m,2
2,31,17,f,1,1,2,132,1,581,1,y,m,1
2,32,17,f,1,1,2,133,3,651,1,y,m,3
2,33,17,f,1,1,2,134,6,703,1,y,m,6
2,34,17,f,1,1,2,135,8,471,1,y,m,8
2,35,17,f,1,1,2,136,2,1727,0,y,m,0
2,36,17,f,1,1,2,137,8,856,0,y,m,0
2,37,17,f,1,1,2,138,5,634,1,y,m,5
2,38,17,f,1,1,2,139,8,330,1,y,m,8
2,39,17,f,1,1,2,140,1,721,1,y,m,1
2,40,17,f,1,1,2,141,8,1472,1,y,m,8
2,41,17,f,1,1,2,142,1,2981,0,y,m,6
2,42,17,f,1,1,2,143,7,1048,0,y,m,0
2,43,17,f,1,1,2,144,1,524,1,y,m,1
2,44,17,f,1,1,2,145,7,571,1,y,m,7
2,45,17,f,1,1,2,146,0,632,1,y,m,0
2,46,17,f,1,1,2,147,8,554,1,y,m,8
2,47,17,f,1,1,2,148,4,755,1,y,m,4
2,48,17,f,1,1,2,149,1,927,1,y,m,1
2,49,17,f,1,1,2,150,8,193,1,y,m,8
2,50,17,f,1,1,2,151,1,576,0,y,m,3
2,51,17,f,1,1,2,152,8,367,1,y,m,8
2,52,17,f,1,1,2,153,2,653,1,y,m,2
2,53,17,f,1,1,2,154,2,797,0,y,m,4
2,54,17,f,1,1,2,155,1,653,1,y,m,1
2,55,17,f,1,1,2,156,1,416,0,y,m,0
2,56,17,f,1,1,2,157,1,981,0,y,m,8
2,57,17,f,1,1,2,158,1,467,1,y,m,1
2,58,17,f,1,1,2,159,5,355,1,y,m,5
2,59,17,f,1,1,2,160,2,3858,1,y,m,2
2,60,17,f,1,1,2,161,5,5259,0,y,m,0
2,61,17,f,1,1,2,162,4,359,1,y,m,4
2,62,17,f,1,1,2,163,0,742,1,y,m,0
2,63,17,f,1,1,2,164,1,620,1,y,m,1
2,64,17,f,1,1,2,165,8,313,1,y,m,8
2,65,17,f,1,1,2,166,0,507,1,y,m,0
2,66,17,f,1,1,2,167,3,323,1,y,m,3
2,67,17,f,1,1,2,168,5,5264,0,y,m,7
2,68,17,f,1,1,2,169,0,465,1,y,m,0
2,69,17,f,1,1,2,170,3,515,1,y,m,3
2,70,17,f,1,1,2,171,4,1537,0,y,m,6
2,71,17,f,1,1,2,172,0,466,1,y,m,0
2,72,17,f,1,1,2,173,2,501,1,y,m,2
2,73,17,f,1,1,2,174,8,488,1,y,m,8
2,74,17,f,1,1,2,175,2,903,1,y,m,2
2,75,17,f,1,1,2,176,0,1592,0,y,m,7
2,76,17,f,1,1,2,177,1,396,1,y,m,1
2,77,17,f,1,1,2,178,4,480,1,y,m,4
2,78,17,f,1,1,2,179,4,219,1,y,m,4
2,79,17,f,1,1,2,180,2,544,1,y,m,2
2,80,17,f,1,1,2,181,8,709,0,y,m,6
2,81,17,f,1,1,2,182,2,642,1,y,m,2
2,82,17,f,1,1,2,183,7,1198,1,y,m,7
2,83,17,f,1,1,2,184,1,458,1,y,m,1
2,84,17,f,1,1,2,185,2,579,0,y,m,6
2,85,17,f,1,1,2,186,0,482,1,y,m,0
2,86,17,f,1,1,2,187,3,255,1,y,m,3
2,87,17,f,1,1,2,188,0,236,1,y,m,0
2,88,17,f,1,1,2,189,4,175,1,y,m,4
2,89,17,f,1,1,2,190,1,447,1,y,m,1
2,90,17,f,1,1,2,191,8,489,0,y,m,7
2,91,17,f,1,1,2,192,0,1837,1,y,m,0
2,92,17,f,1,1,2,193,2,596,1,y,m,2
2,93,17,f,1,1,2,194,7,977,1,y,m,7
2,94,17,f,1,1,2,195,1,530,1,y,m,1
2,95,17,f,1,1,2,196,4,237,1,y,m,4
2,96,17,f,1,1,2,197,1,612,1,y,m,1
2,97,17,f,1,1,2,198,3,561,1,y,m,3
2,98,17,f,1,1,2,199,3,567,0,y,m,5
2,99,17,f,1,1,2,200,8,328,1,y,m,8
3,0,23,m,1,1,3,201,8,1196,0,b,f,0
3,1,23,m,1,1,3,202,2,1830,0,b,f,1
3,2,23,m,1,1,3,203,7,550,1,b,f,7
3,3,23,m,1,1,3,204,1,1100,0,b,f,7
3,4,23,m,1,1,3,205,6,738,0,b,f,4
3,5,23,m,1,1,3,206,5,1485,0,b,f,7
3,6,23,m,1,1,3,207,7,1246,0,b,f,5
3,7,23,m,1,1,3,208,6,664,1,b,f,6
3,8,23,m,1,1,3,209,1,1061,0,b,f,5
3,9,23,m,1,1,3,210,5,1399,1,b,f,5
3,10,23,m,1,1,3,211,0,715,1,b,f,0
3,11,23,m,1,1,3,212,8,1486,1,b,f,8
3,12,23,m,1,1,3,213,5,671,0,b,f,1
3,13,23,m,1,1,3,214,2,1302,0,b,f,3
3,14,23,m,1,1,3,215,6,455,1,b,f,6
3,15,23,m,1,1,3,216,1,399,0,b,f,2
3,16,23,m,1,1,3,217,8,2294,1,b,f,8
3,17,23,m,1,1,3,218,6,516,1,b,f,6
3,18,23,m,1,1,3,219,8,670,0,b,f,6
3,19,23,m,1,1,3,220,3,520,1,b,f,3
3,20,23,m,1,1,3,221,6,801,1,b,f,6
3,21,23,m,1,1,3,222,3,875,1,b,f,3
3,22,23,m,1,1,3,223,4,372,0,b,f,5
3,23,23,m,1,1,3,224,8,312,0,b,f,4
3,24,23,m,1,1,3,225,3,331,1,b,f,3
3,25,23,m,1,1,3,226,0,347,0,b,f,1
3,26,23,m,1,1,3,227,1,444,0,b,f,3
3,27,23,m,1,1,3,228,2,788,0,b,f,7
3,28,23,m,1,1,3,229,6,326,1,b,f,6
3,29,23,m,1,1,3,230,0,379,0,b,f,6
3,30,23,m,1,1,3,231,2,541,0,b,f,6
3,31,23,m,1,1,3,232,0,329,1,b,f,0
3,32,23,m,1,1,3,233,1,861,0,b,f,7
3,33,23,m,1,1,3,234,0,794,0,b,f,1
3,34,23,m,1,1,3,235,5,43,1,b,f,5
3,35,23,m,1,1,3,236,7,527,1,b,f,7
3,36,23,m,1,1,3,237,8,595,0,b,f,6
3,37,23,m,1,1,3,238,2,1257,0,b,f,3
3,38,23,m,1,1,3,239,8,309,0,b,f,6
3,39,23,m,1,1,3,240,5,517,1,b,f,5
3,40,23,m,1,1,3,241,7,5852,0,b,f,6
3,41,23,m,1,1,3,242,6,895,1,b,f,6
3,42,23,m,1,1,3,243,3,0,1,b,f,3
3,43,23,m,1,1,3,244,1,111,1,b,f,1
3,44,23,m,1,1,3,245,8,525,1,b,f,8
3,45,23,m,1,1,3,246,6,47,1,b,f,6
3,46,23,m,1,1,3,247,0,502,0,b,f,8
3,47,23,m,1,1,3,248,2,429,1,b,f,2
3,48,23,m,1,1,3,249,4,68,1,b,f,4
3,49,23,m,1,1,3,250,2,338,1,b,f,2
3,50,23,m,1,1,3,251,5,841,1,b,f,5
3,51,23,m,1,1,3,252,8,326,0,b,f,1
3,52,23,m,1,1,3,253,3,267,0,b,f,5
3,53,23,m,1,1,3,254,6,32,0,b,f,3
3,54,23,m,1,1,3,255,2,548,0,b,f,4
3,55,23,m,1,1,3,256,5,142,0,b,f,7
3,56,23,m,1,1,3,257,5,1036,1,b,f,5
3,57,23,m,1,1,3,258,6,640,1,b,f,6
3,58,23,m,1,1,3,259,2,149,0,b,f,8
3,59,23,m,1,1,3,260,0,617,1,b,f,0
3,60,23,m,1,1,3,261,1,404,1,b,f,1
3,61,23,m,1,1,3,262,1,340,0,b,f,6
3,62,23,m,1,1,3,263,2,590,0,b,f,1
3,63,23,m,1,1,3,264,5,678,1,b,f,5
3,64,23,m,1,1,3,265,2,373,0,b,f,3
3,65,23,m,1,1,3,266,6,210,1,b,f,6
3,66,23,m,1,1,3,267,5,18,1,b,f,5
3,67,23,m,1,1,3,268,2,555,0,b,f,4
3,68,23,m,1,1,3,269,1,667,0,b,f,3
3,69,23,m,1,1,3,270,4,218,1,b,f,4
3,70,23,m,1,1,3,271,1,33,1,b,f,1
3,71,23,m,1,1,3,272,2,351,1,b,f,2
3,72,23,m,1,1,3,273,1,529,0,b,f,4
3,73,23,m,1,1,3,274,4,372,0,b,f,8
3,74,23,m,1,1,3,275,2,331,1,b,f,2
3,75,23,m,1,1,3,276,2,558,0,b,f,3
3,76,23,m,1,1,3,277,0,762,0,b,f,5
3,77,23,m,1,1,3,278,2,499,0,b,f,0
3,78,23,m,1,1,3,279,6,290,0,b,f,8
3,79,23,m,1,1,3,280,2,382,0,b,f,5
3,80,23,m,1,1,3,281,2,393,0,b,f,0
3,81,23,m,1,1,3,282,8,605,1,b,f,8
3,82,23,m,1,1,3,283,2,514,0,b,f,6
3,83,23,m,1,1,3,284,4,336,1,b,f,4
3,84,23,m,1,1,3,285,6,323,1,b,f,6
3,85,23,m,1,1,3,286,6,11,0,b,f,0
3,86,23,m,1,1,3,287,7,529,0,b,f,6
3,87,23,m,1,1,3,288,7,1699,0,b,f,5
3,88,23,m,1,1,3,289,2,58,1,b,f,2
3,89,23,m,1,1,3,290,8,218,0,b,f,3
3,90,23,m,1,1,3,291,3,226,0,b,f,5
3,91,23,m,1,1,3,292,5,0,1,b,f,5
3,92,23,m,1,1,3,293,7,287,0,b,f,6
3,93,23,m,1,1,3,294,4,1,1,b,f,4
3,94,23,m,1,1,3,295,1,955,1,b,f,1
3,95,23,m,1,1,3,296,3,0,1,b,f,3
3,96,23,m,1,1,3,297,8,298,0,b,f,0
3,97,23,m,1,1,3,298,5,72,1,b,f,5
3,98,23,m,1,1,3,299,6,204,1,b,f,6
3,99,23,m,1,1,3,300,2,193,0,b,f,5
4,0,30,m,1,1,4,301,6,763,1,y,f,6
4,1,30,m,1,1,4,302,3,3323,0,y,f,7
4,2,30,m,1,1,4,303,7,2139,0,y,f,2
4,3,30,m,1,1,4,304,0,3729,0,y,f,2
4,4,30,m,1,1,4,305,6,1267,1,y,f,6
4,5,30,m,1,1,4,306,3,1402,0,y,f,2
4,6,30,m,1,1,4,307,8,569,1,y,f,8
4,7,30,m,1,1,4,308,4,1027,1,y,f,4
4,8,30,m,1,1,4,309,2,661,0,y,f,1
4,9,30,m,1,1,4,310,0,812,0,y,f,8
4,10,30,m,1,1,4,311,8,1082,0,y,f,0
4,11,30,m,1,1,4,312,6,880,0,y,f,7
4,12,30,m,1,1,4,313,0,723,1,y,f,0
4,13,30,m,1,1,4,314,3,1079,0,y,f,0
4,14,30,m,1,1,4,315,0,888,0,y,f,1
4,15,30,m,1,1,4,316,4,866,0,y,f,2
4,16,30,m,1,1,4,317,8,793,0,y,f,5
4,17,30,m,1,1,4,318,8,742,0,y,f,2
4,18,30,m,1,1,4,319,1,955,0,y,f,3
4,19,30,m,1,1,4,320,2,532,1,y,f,2
4,20,30,m,1,1,4,321,0,580,1,y,f,0
4,21,30,m,1,1,4,322,1,868,0,y,f,0
4,22,30,m,1,1,4,323,3,669,1,y,f,3
4,23,30,m,1,1,4,324,0,560,0,y,f,6
4,24,30,m,1,1,4,325,6,793,0,y,f,7
4,25,30,m,1,1,4,326,8,1286,0,y,f,2
4,26,30,m,1,1,4,327,6,1827,0,y,f,8
4,27,30,m,1,1,4,328,4,704,1,y,f,4
4,28,30,m,1,1,4,329,8,816,0,y,f,6
4,29,30,m,1,1,4,330,6,867,1,y,f,6
4,30,30,m,1,1,4,331,1,748,0,y,f,5
4,31,30,m,1,1,4,332,6,1132,0,y,f,7
4,32,30,m,1,1,4,333,4,1174,0,y,f,6
4,33,30,m,1,1,4,334,7,554,0,y,f,3
4,34,30,m,1,1,4,335,6,768,0,y,f,7
4,35,30,m,1,1,4,336,2,546,1,y,f,2
4,36,30,m,1,1,4,337,6,1241,0,y,f,5
4,37,30,m,1,1,4,338,5,1188,0,y,f,8
4,38,30,m,1,1,4,339,6,488,1,y,f,6
4,39,30,m,1,1,4,340,3,940,1,y,f,3
4,40,30,m,1,1,4,341,4,759,0,y,f,1
4,41,30,m,1,1,4,342,2,542,0,y,f,6
4,42,30,m,1,1,4,343,0,568,0,y,f,7
4,43,30,m,1,1,4,344,0,522,0,y,f,4
4,44,30,m,1,1,4,345,2,491,1,y,f,2
4,45,30,m,1,1,4,346,6,866,0,y,f,3
4,46,30,m,1,1,4,347,2,374,1,y,f,2
4,47,30,m,1,1,4,348,8,244,1,y,f,8
4,48,30,m,1,1,4,349,8,671,0,y,f,1
4,49,30,m,1,1,4,350,0,569,0,y,f,7
4,50,30,m,1,1,4,351,4,771,1,y,f,4
4,51,30,m,1,1,4,352,4,675,0,y,f,6
4,52,30,m,1,1,4,353,0,1233,0,y,f,3
4,53,30,m,1,1,4,354,6,789,0,y,f,5
4,54,30,m,1,1,4,355,0,779,0,y,f,3
4,55,30,m,1,1,4,356,6,1055,1,y,f,6
4,56,30,m,1,1,4,357,3,620,0,y,f,6
4,57,30,m,1,1,4,358,6,545,0,y,f,5
4,58,30,m,1,1,4,359,6,619,1,y,f,6
4,59,30,m,1,1,4,360,4,680,0,y,f,1
4,60,30,m,1,1,4,361,8,392,0,y,f,0
4,61,30,m,1,1,4,362,5,688,0,y,f,4
4,62,30,m,1,1,4,363,8,930,0,y,f,7
4,63,30,m,1,1,4,364,7,411,1,y,f,7
4,64,30,m,1,1,4,365,3,1460,0,y,f,7
4,65,30,m,1,1,4,366,1,1083,0,y,f,5
4,66,30,m,1,1,4,367,0,1988,0,y,f,7
4,67,30,m,1,1,4,368,6,601,0,y,f,5
4,68,30,m,1,1,4,369,3,777,0,y,f,7
4,69,30,m,1,1,4,370,4,515,1,y,f,4
4,70,30,m,1,1,4,371,8,467,0,y,f,4
4,71,30,m,1,1,4,372,1,531,1,y,f,1
4,72,30,m,1,1,4,373,6,1023,0,y,f,4
4,73,30,m,1,1,4,374,4,621,0,y,f,7
4,74,30,m,1,1,4,375,2,798,0,y,f,5
4,75,30,m,1,1,4,376,5,1339,0,y,f,2
4,76,30,m,1,1,4,377,2,516,1,y,f,2
4,77,30,m,1,1,4,378,6,566,0,y,f,0
4,78,30,m,1,1,4,379,4,740,0,y,f,1
4,79,30,m,1,1,4,380,0,526,0,y,f,8
4,80,30,m,1,1,4,381,4,777,0,y,f,5
4,81,30,m,1,1,4,382,0,671,0,y,f,3
4,82,30,m,1,1,4,383,7,2003,0,y,f,3
4,83,30,m,1,1,4,384,7,631,1,y,f,7
4,84,30,m,1,1,4,385,4,617,1,y,f,4
4,85,30,m,1,1,4,386,5,729,1,y,f,5
4,86,30,m,1,1,4,387,0,634,0,y,f,4
4,87,30,m,1,1,4,388,3,1228,0,y,f,7
4,88,30,m,1,1,4,389,6,812,0,y,f,4
4,89,30,m,1,1,4,390,6,1562,0,y,f,2
4,90,30,m,1,1,4,391,8,547,0,y,f,2
4,91,30,m,1,1,4,392,7,434,1,y,f,7
4,92,30,m,1,1,4,393,4,1111,0,y,f,1
4,93,30,m,1,1,4,394,1,1579,0,y,f,6
4,94,30,m,1,1,4,395,6,549,0,y,f,1
4,95,30,m,1,1,4,396,3,616,0,y,f,8
4,96,30,m,1,1,4,397,5,923,0,y,f,7
4,97,30,m,1,1,4,398,0,481,1,y,f,0
4,98,30,m,1,1,4,399,3,593,0,y,f,7
4,99,30,m,1,1,4,400,8,2473,0,y,f,2
5,0,21,f,1,1,5,401,2,3838,0,y,f,4
5,1,21,f,1,1,5,402,6,1176,0,y,f,0
5,2,21,f,1,1,5,403,1,616,1,y,f,1
5,3,21,f,1,1,5,404,2,690,1,y,f,2
5,4,21,f,1,1,5,405,4,2672,0,y,f,5
5,5,21,f,1,1,5,406,7,2453,0,y,f,4
5,6,21,f,1,1,5,407,7,3386,0,y,f,3
5,7,21,f,1,1,5,408,8,4510,0,y,f,0
5,8,21,f,1,1,5,409,1,2696,1,y,f,1
5,9,21,f,1,1,5,410,1,778,0,y,f,7
5,10,21,f,1,1,5,411,7,643,1,y,f,7
5,11,21,f,1,1,5,412,8,867,0,y,f,5
5,12,21,f,1,1,5,413,3,988,0,y,f,4
5,13,21,f,1,1,5,414,1,824,1,y,f,1
5,14,21,f,1,1,5,415,7,1141,1,y,f,7
5,15,21,f,1,1,5,416,7,2137,0,y,f,5
5,16,21,f,1,1,5,417,8,1631,0,y,f,7
5,17,21,f,1,1,5,418,5,827,1,y,f,5
5,18,21,f,1,1,5,419,1,759,0,y,f,5
5,19,21,f,1,1,5,420,1,683,1,y,f,1
5,20,21,f,1,1,5,421,6,940,1,y,f,6
5,21,21,f,1,1,5,422,6,695,1,y,f,6
5,22,21,f,1,1,5,423,6,285,1,y,f,6
5,23,21,f,1,1,5,424,3,784,1,y,f,3
5,24,21,f,1,1,5,425,2,723,1,y,f,2
5,25,21,f,1,1,5,426,2,506,1,y,f,2
5,26,21,f,1,1,5,427,7,1115,0,y,f,8
5,27,21,f,1,1,5,428,6,1035,0,y,f,0
5,28,21,f,1,1,5,429,2,966,0,y,f,4
5,29,21,f,1,1,5,430,1,722,0,y,f,8
5,30,21,f,1,1,5,431,7,779,0,y,f,0
5,31,21,f,1,1,5,432,6,1109,0,y,f,3
5,32,21,f,1,1,5,433,1,711,1,y,f,1
5,33,21,f,1,1,5,434,6,1001,1,y,f,6
5,34,21,f,1,1,5,435,0,876,1,y,f,0
5,35,21,f,1,1,5,436,5,185,1,y,f,5
5,36,21,f,1,1,5,437,7,656,0,y,f,8
5,37,21,f,1,1,5,438,8,848,1,y,f,8
5,38,21,f,1,1,5,439,5,2770,1,y,f,5
5,39,21,f,1,1,5,440,2,1064,1,y,f,2
5,40,21,f,1,1,5,441,7,940,0,y,f,2
5,41,21,f,1,1,5,442,5,3091,0,y,f,8
5,42,21,f,1,1,5,443,6,1624,1,y,f,6
5,43,21,f,1,1,5,444,1,860,1,y,f,1
5,44,21,f,1,1,5,445,2,801,1,y,f,2
5,45,21,f,1,1,5,446,8,694,1,y,f,8
5,46,21,f,1,1,5,447,2,1018,0,y,f,1
5,47,21,f,1,1,5,448,5,199,1,y,f,5
5,48,21,f,1,1,5,449,3,671,0,y,f,5
5,49,21,f,1,1,5,450,5,652,1,y,f,5
5,50,21,f,1,1,5,451,6,290,1,y,f,6
5,51,21,f,1,1,5,452,3,1495,1,y,f,3
5,52,21,f,1,1,5,453,0,751,1,y,f,0
5,53,21,f,1,1,5,454,2,426,1,y,f,2
5,54,21,f,1,1,5,455,5,273,1,y,f,5
5,55,21,f,1,1,5,456,8,1652,0,y,f,4
5,56,21,f,1,1,5,457,4,653,1,y,f,4
5,57,21,f,1,1,5,458,0,2730,0,y,f,2
5,58,21,f,1,1,5,459,3,676,1,y,f,3
5,59,21,f,1,1,5,460,2,604,0,y,f,3
5,60,21,f,1,1,5,461,1,612,1,y,f,1
5,61,21,f,1,1,5,462,0,566,1,y,f,0
5,62,21,f,1,1,5,463,8,1443,0,y,f,7
5,63,21,f,1,1,5,464,6,1044,0,y,f,2
5,64,21,f,1,1,5,465,1,521,0,y,f,0
5,65,21,f,1,1,5,466,3,788,1,y,f,3
5,66,21,f,1,1,5,467,2,814,0,y,f,1
5,67,21,f,1,1,5,468,6,570,1,y,f,6
5,68,21,f,1,1,5,469,4,1263,1,y,f,4
5,69,21,f,1,1,5,470,2,1032,0,y,f,4
5,70,21,f,1,1,5,471,6,613,0,y,f,5
5,71,21,f,1,1,5,472,0,486,1,y,f,0
5,72,21,f,1,1,5,473,5,1192,1,y,f,5
5,73,21,f,1,1,5,474,5,1052,1,y,f,5
5,74,21,f,1,1,5,475,1,1120,1,y,f,1
5,75,21,f,1,1,5,476,7,1001,1,y,f,7
5,76,21,f,1,1,5,477,6,666,1,y,f,6
5,77,21,f,1,1,5,478,0,153,1,y,f,0
5,78,21,f,1,1,5,479,1,256,1,y,f,1
5,79,21,f,1,1,5,480,5,950,1,y,f,5
5,80,21,f,1,1,5,481,7,761,1,y,f,7
5,81,21,f,1,1,5,482,3,578,1,y,f,3
5,82,21,f,1,1,5,483,0,559,1,y,f,0
5,83,21,f,1,1,5,484,0,479,1,y,f,0
5,84,21,f,1,1,5,485,8,488,1,y,f,8
5,85,21,f,1,1,5,486,5,455,1,y,f,5
5,86,21,f,1,1,5,487,7,891,1,y,f,7
5,87,21,f,1,1,5,488,2,868,1,y,f,2
5,88,21,f,1,1,5,489,3,1174,0,y,f,2
5,89,21,f,1,1,5,490,0,2904,1,y,f,0
5,90,21,f,1,1,5,491,3,699,0,y,f,1
5,91,21,f,1,1,5,492,7,103,1,y,f,7
5,92,21,f,1,1,5,493,3,663,0,y,f,7
5,93,21,f,1,1,5,494,1,310,1,y,f,1
5,94,21,f,1,1,5,495,5,412,1,y,f,5
5,95,21,f,1,1,5,496,3,1333,0,y,f,4
5,96,21,f,1,1,5,497,0,276,1,y,f,0
5,97,21,f,1,1,5,498,5,711,0,y,f,8
5,98,21,f,1,1,5,499,1,490,1,y,f,1
5,99,21,f,1,1,5,500,6,143,1,y,f,6
6,0,22,f,1,1,6,501,3,2133,0,b,m,1
6,1,22,f,1,1,6,502,3,641,1,b,m,3
6,2,22,f,1,1,6,503,5,899,0,b,m,4
6,3,22,f,1,1,6,504,0,780,1,b,m,0
6,4,22,f,1,1,6,505,7,516,0,b,m,1
6,5,22,f,1,1,6,506,7,1698,1,b,m,7
6,6,22,f,1,1,6,507,2,1586,1,b,m,2
6,7,22,f,1,1,6,508,3,697,0,b,m,1
6,8,22,f,1,1,6,509,8,1470,1,b,m,8
6,9,22,f,1,1,6,510,3,209,1,b,m,3
6,10,22,f,1,1,6,511,4,708,1,b,m,4
6,11,22,f,1,1,6,512,7,1161,0,b,m,6
6,12,22,f,1,1,6,513,6,483,1,b,m,6
6,13,22,f,1,1,6,514,5,338,1,b,m,5
6,14,22,f,1,1,6,515,0,298,1,b,m,0
6,15,22,f,1,1,6,516,0,121,1,b,m,0
6,16,22,f,1,1,6,517,5,446,1,b,m,5
6,17,22,f,1,1,6,518,5,145,1,b,m,5
6,18,22,f,1,1,6,519,8,362,1,b,m,8
6,19,22,f,1,1,6,520,3,810,1,b,m,3
6,20,22,f,1,1,6,521,6,1501,0,b,m,7
6,21,22,f,1,1,6,522,6,292,1,b,m,6
6,22,22,f,1,1,6,523,2,499,1,b,m,2
6,23,22,f,1,1,6,524,1,1081,0,b,m,8
6,24,22,f,1,1,6,525,0,286,1,b,m,0
6,25,22,f,1,1,6,526,1,313,1,b,m,1
6,26,22,f,1,1,6,527,1,374,1,b,m,1
6,27,22,f,1,1,6,528,0,139,1,b,m,0
6,28,22,f,1,1,6,529,0,332,1,b,m,0
6,29,22,f,1,1,6,530,0,244,1,b,m,0
6,30,22,f,1,1,6,531,7,359,0,b,m,6
6,31,22,f,1,1,6,532,3,484,0,b,m,2
6,32,22,f,1,1,6,533,3,270,1,b,m,3
6,33,22,f,1,1,6,534,6,434,0,b,m,7
6,34,22,f,1,1,6,535,6,584,1,b,m,6
6,35,22,f,1,1,6,536,5,603,0,b,m,4
6,36,22,f,1,1,6,537,5,171,1,b,m,5
6,37,22,f,1,1,6,538,3,340,1,b,m,3
6,38,22,f,1,1,6,539,4,342,1,b,m,4
6,39,22,f,1,1,6,540,3,660,1,b,m,3
6,40,22,f,1,1,6,541,3,340,1,b,m,3
6,41,22,f,1,1,6,542,4,292,1,b,m,4
6,42,22,f,1,1,6,543,0,430,0,b,m,8
6,43,22,f,1,1,6,544,7,801,0,b,m,3
6,44,22,f,1,1,6,545,5,267,1,b,m,5
6,45,22,f,1,1,6,546,0,272,1,b,m,0
6,46,22,f,1,1,6,547,0,209,1,b,m,0
6,47,22,f,1,1,6,548,0,336,1,b,m,0
6,48,22,f,1,1,6,549,6,615,1,b,m,6
6,49,22,f,1,1,6,550,1,412,1,b,m,1
6,50,22,f,1,1,6,551,1,116,1,b,m,1
6,51,22,f,1,1,6,552,0,101,1,b,m,0
6,52,22,f,1,1,6,553,4,1088,0,b,m,6
6,53,22,f,1,1,6,554,0,323,1,b,m,0
6,54,22,f,1,1,6,555,0,67,1,b,m,0
6,55,22,f,1,1,6,556,5,447,1,b,m,5
6,56,22,f,1,1,6,557,4,317,1,b,m,4
6,57,22,f,1,1,6,558,0,162,1,b,m,0
6,58,22,f,1,1,6,559,8,508,0,b,m,7
6,59,22,f,1,1,6,560,1,267,0,b,m,3
6,60,22,f,1,1,6,561,3,365,1,b,m,3
6,61,22,f,1,1,6,562,5,543,0,b,m,8
6,62,22,f,1,1,6,563,3,397,1,b,m,3
6,63,22,f,1,1,6,564,1,821,0,b,m,7
6,64,22,f,1,1,6,565,4,908,0,b,m,8
6,65,22,f,1,1,6,566,4,619,0,b,m,1
6,66,22,f,1,1,6,567,1,170,1,b,m,1
6,67,22,f,1,1,6,568,4,288,1,b,m,4
6,68,22,f,1,1,6,569,8,383,1,b,m,8
6,69,22,f,1,1,6,570,4,148,1,b,m,4
6,70,22,f,1,1,6,571,1,256,1,b,m,1
6,71,22,f,1,1,6,572,3,392,0,b,m,4
6,72,22,f,1,1,6,573,3,405,0,b,m,5
6,73,22,f,1,1,6,574,2,142,1,b,m,2
6,74,22,f,1,1,6,575,4,349,0,b,m,7
6,75,22,f,1,1,6,576,5,203,1,b,m,5
6,76,22,f,1,1,6,577,4,411,1,b,m,4
6,77,22,f,1,1,6,578,4,317,1,b,m,4
6,78,22,f,1,1,6,579,3,258,1,b,m,3
6,79,22,f,1,1,6,580,8,848,0,b,m,2
6,80,22,f,1,1,6,581,8,660,0,b,m,6
6,81,22,f,1,1,6,582,5,404,1,b,m,5
6,82,22,f,1,1,6,583,4,270,1,b,m,4
6,83,22,f,1,1,6,584,3,173,1,b,m,3
6,84,22,f,1,1,6,585,2,179,1,b,m,2
6,85,22,f,1,1,6,586,2,201,1,b,m,2
6,86,22,f,1,1,6,587,5,212,1,b,m,5
6,87,22,f,1,1,6,588,3,379,1,b,m,3
6,88,22,f,1,1,6,589,0,421,1,b,m,0
6,89,22,f,1,1,6,590,1,464,1,b,m,1
6,90,22,f,1,1,6,591,8,375,1,b,m,8
6,91,22,f,1,1,6,592,0,156,1,b,m,0
6,92,22,f,1,1,6,593,0,119,1,b,m,0
6,93,22,f,1,1,6,594,3,888,1,b,m,3
6,94,22,f,1,1,6,595,0,426,0,b,m,7
6,95,22,f,1,1,6,596,3,694,0,b,m,4
6,96,22,f,1,1,6,597,4,212,1,b,m,4
6,97,22,f,1,1,6,598,5,515,0,b,m,6
6,98,22,f,1,1,6,599,4,316,0,b,m,7
6,99,22,f,1,1,6,600,2,184,1,b,m,2
7,0,29,f,1,1,7,601,3,1763,0,y,m,8
7,1,29,f,1,1,7,602,4,580,1,y,m,4
7,2,29,f,1,1,7,603,5,1043,0,y,m,4
7,3,29,f,1,1,7,604,5,2046,0,y,m,7
7,4,29,f,1,1,7,605,1,656,1,y,m,1
7,5,29,f,1,1,7,606,3,477,1,y,m,3
7,6,29,f,1,1,7,607,7,692,0,y,m,2
7,7,29,f,1,1,7,608,5,706,1,y,m,5
7,8,29,f,1,1,7,609,5,503,1,y,m,5
7,9,29,f,1,1,7,610,5,566,1,y,m,5
7,10,29,f,1,1,7,611,5,424,0,y,m,4
7,11,29,f,1,1,7,612,7,806,1,y,m,7
7,12,29,f,1,1,7,613,1,431,1,y,m,1
7,13,29,f,1,1,7,614,4,590,1,y,m,4
7,14,29,f,1,1,7,615,7,540,1,y,m,7
7,15,29,f,1,1,7,616,1,945,0,y,m,0
7,16,29,f,1,1,7,617,8,503,0,y,m,0
7,17,29,f,1,1,7,618,2,835,0,y,m,0
7,18,29,f,1,1,7,619,3,209,1,y,m,3
7,19,29,f,1,1,7,620,2,1652,0,y,m,0
7,20,29,f,1,1,7,621,4,470,1,y,m,4
7,21,29,f,1,1,7,622,3,481,0,y,m,1
7,22,29,f,1,1,7,623,2,562,0,y,m,8
7,23,29,f,1,1,7,624,2,847,0,y,m,6
7,24,29,f,1,1,7,625,3,882,1,y,m,3
7,25,29,f,1,1,7,626,7,11,1,y,m,7
7,26,29,f,1,1,7,627,1,284,0,y,m,7
7,27,29,f,1,1,7,628,8,421,1,y,m,8
7,28,29,f,1,1,7,629,5,382,1,y,m,5
7,29,29,f,1,1,7,630,2,353,1,y,m,2
7,30,29,f,1,1,7,631,4,622,0,y,m,2
7,31,29,f,1,1,7,632,4,0,1,y,m,4
7,32,29,f,1,1,7,633,8,312,0,y,m,6
7,33,29,f,1,1,7,634,8,162,1,y,m,8
7,34,29,f,1,1,7,635,0,0,1,y,m,0
7,35,29,f,1,1,7,636,5,674,1,y,m,5
7,36,29,f,1,1,7,637,2,588,0,y,m,7
7,37,29,f,1,1,7,638,3,538,1,y,m,3
7,38,29,f,1,1,7,639,7,163,1,y,m,7
7,39,29,f,1,1,7,640,0,308,1,y,m,0
7,40,29,f,1,1,7,641,6,369,0,y,m,4
7,41,29,f,1,1,7,642,0,154,0,y,m,3
7,42,29,f,1,1,7,643,1,683,1,y,m,1
7,43,29,f,1,1,7,644,6,1051,0,y,m,4
7,44,29,f,1,1,7,645,3,824,0,y,m,0
7,45,29,f,1,1,7,646,4,270,1,y,m,4
7,46,29,f,1,1,7,647,3,185,1,y,m,3
7,47,29,f,1,1,7,648,8,363,0,y,m,1
7,48,29,f,1,1,7,649,6,339,0,y,m,4
7,49,29,f,1,1,7,650,8,0,1,y,m,8
7,50,29,f,1,1,7,651,7,3960,1,y,m,7
7,51,29,f,1,1,7,652,8,745,1,y,m,8
7,52,29,f,1,1,7,653,8,378,1,y,m,8
7,53,29,f,1,1,7,654,5,2186,0,y,m,4
7,54,29,f,1,1,7,655,4,67,1,y,m,4
7,55,29,f,1,1,7,656,7,440,0,y,m,3
7,56,29,f,1,1,7,657,2,275,1,y,m,2
7,57,29,f,1,1,7,658,6,0,1,y,m,6
7,58,29,f,1,1,7,659,4,264,0,y,m,5
7,59,29,f,1,1,7,660,5,11,1,y,m,5
7,60,29,f,1,1,7,661,1,170,1,y,m,1
7,61,29,f,1,1,7,662,3,0,1,y,m,3
7,62,29,f,1,1,7,663,2,950,0,y,m,6
7,63,29,f,1,1,7,664,8,343,0,y,m,0
7,64,29,f,1,1,7,665,5,2704,0,y,m,4
7,65,29,f,1,1,7,666,1,380,0,y,m,5
7,66,29,f,1,1,7,667,0,396,1,y,m,0
7,67,29,f,1,1,7,668,7,114,1,y,m,7
7,68,29,f,1,1,7,669,6,0,1,y,m,6
7,69,29,f,1,1,7,670,3,751,0,y,m,7
7,70,29,f,1,1,7,671,5,1925,0,y,m,8
7,71,29,f,1,1,7,672,3,338,1,y,m,3
7,72,29,f,1,1,7,673,3,506,1,y,m,3
7,73,29,f,1,1,7,674,1,1363,1,y,m,1
7,74,29,f,1,1,7,675,2,310,1,y,m,2
7,75,29,f,1,1,7,676,2,70,1,y,m,2
7,76,29,f,1,1,7,677,2,487,0,y,m,4
7,77,29,f,1,1,7,678,1,709,0,y,m,8
7,78,29,f,1,1,7,679,2,264,0,y,m,4
7,79,29,f,1,1,7,680,6,388,0,y,m,4
7,80,29,f,1,1,7,681,0,832,1,y,m,0
7,81,29,f,1,1,7,682,0,511,1,y,m,0
7,82,29,f,1,1,7,683,2,138,1,y,m,2
7,83,29,f,1,1,7,684,3,468,0,y,m,8
7,84,29,f,1,1,7,685,6,220,1,y,m,6
7,85,29,f,1,1,7,686,4,264,0,y,m,2
7,86,29,f,1,1,7,687,3,71,1,y,m,3
7,87,29,f,1,1,7,688,7,307,1,y,m,7
7,88,29,f,1,1,7,689,3,67,1,y,m,3
7,89,29,f,1,1,7,690,6,0,1,y,m,6
7,90,29,f,1,1,7,691,5,794,0,y,m,6
7,91,29,f,1,1,7,692,0,253,1,y,m,0
7,92,29,f,1,1,7,693,7,241,1,y,m,7
7,93,29,f,1,1,7,694,2,0,1,y,m,2
7,94,29,f,1,1,7,695,7,0,1,y,m,7
7,95,29,f,1,1,7,696,2,664,0,y,m,1
7,96,29,f,1,1,7,697,3,443,0,y,m,7
7,97,29,f,1,1,7,698,4,509,0,y,m,5
7,98,29,f,1,1,7,699,2,129,0,y,m,4
7,99,29,f,1,1,7,700,8,334,0,y,m,1
8,0,18,f,1,1,8,701,6,1775,1,b,f,6
8,1,18,f,1,1,8,702,2,1462,1,b,f,2
8,2,18,f,1,1,8,703,5,2561,0,b,f,4
8,3,18,f,1,1,8,704,6,935,1,b,f,6
8,4,18,f,1,1,8,705,2,2409,0,b,f,7
8,5,18,f,1,1,8,706,4,1969,0,b,f,1
8,6,18,f,1,1,8,707,0,724,0,b,f,5
8,7,18,f,1,1,8,708,4,600,1,b,f,4
8,8,18,f,1,1,8,709,0,651,0,b,f,7
8,9,18,f,1,1,8,710,3,527,1,b,f,3
8,10,18,f,1,1,8,711,2,1331,1,b,f,2
8,11,18,f,1,1,8,712,6,2183,0,b,f,2
8,12,18,f,1,1,8,713,6,700,1,b,f,6
8,13,18,f,1,1,8,714,6,1638,0,b,f,3
8,14,18,f,1,1,8,715,2,3275,0,b,f,3
8,15,18,f,1,1,8,716,6,1900,0,b,f,1
8,16,18,f,1,1,8,717,8,665,1,b,f,8
8,17,18,f,1,1,8,718,8,524,1,b,f,8
8,18,18,f,1,1,8,719,7,633,1,b,f,7
8,19,18,f,1,1,8,720,8,1425,0,b,f,0
8,20,18,f,1,1,8,721,4,2506,0,b,f,0
8,21,18,f,1,1,8,722,8,375,0,b,f,5
8,22,18,f,1,1,8,723,0,711,0,b,f,6
8,23,18,f,1,1,8,724,4,762,1,b,f,4
8,24,18,f,1,1,8,725,6,640,0,b,f,3
8,25,18,f,1,1,8,726,5,512,1,b,f,5
8,26,18,f,1,1,8,727,6,1298,1,b,f,6
8,27,18,f,1,1,8,728,3,418,1,b,f,3
8,28,18,f,1,1,8,729,0,401,1,b,f,0
8,29,18,f,1,1,8,730,7,1320,1,b,f,7
8,30,18,f,1,1,8,731,3,646,1,b,f,3
8,31,18,f,1,1,8,732,1,591,1,b,f,1
8,32,18,f,1,1,8,733,7,551,1,b,f,7
8,33,18,f,1,1,8,734,5,442,1,b,f,5
8,34,18,f,1,1,8,735,5,486,1,b,f,5
8,35,18,f,1,1,8,736,1,728,1,b,f,1
8,36,18,f,1,1,8,737,8,478,1,b,f,8
8,37,18,f,1,1,8,738,3,688,1,b,f,3
8,38,18,f,1,1,8,739,7,226,1,b,f,7
8,39,18,f,1,1,8,740,7,265,1,b,f,7
8,40,18,f,1,1,8,741,5,534,0,b,f,2
8,41,18,f,1,1,8,742,1,1506,0,b,f,6
8,42,18,f,1,1,8,743,6,412,1,b,f,6
8,43,18,f,1,1,8,744,0,449,1,b,f,0
8,44,18,f,1,1,8,745,3,380,1,b,f,3
8,45,18,f,1,1,8,746,3,452,1,b,f,3
8,46,18,f,1,1,8,747,4,1728,1,b,f,4
8,47,18,f,1,1,8,748,1,1294,1,b,f,1
8,48,18,f,1,1,8,749,2,789,1,b,f,2
8,49,18,f,1,1,8,750,8,551,1,b,f,8
8,50,18,f,1,1,8,751,2,858,0,b,f,0
8,51,18,f,1,1,8,752,4,819,1,b,f,4
8,52,18,f,1,1,8,753,8,544,0,b,f,2
8,53,18,f,1,1,8,754,6,646,0,b,f,1
8,54,18,f,1,1,8,755,4,1819,0,b,f,2
8,55,18,f,1,1,8,756,4,1086,0,b,f,1
8,56,18,f,1,1,8,757,4,463,1,b,f,4
8,57,18,f,1,1,8,758,1,337,1,b,f,1
8,58,18,f,1,1,8,759,6,322,1,b,f,6
8,59,18,f,1,1,8,760,2,890,0,b,f,7
8,60,18,f,1,1,8,761,0,678,0,b,f,1
8,61,18,f,1,1,8,762,8,233,0,b,f,4
8,62,18,f,1,1,8,763,2,242,1,b,f,2
8,63,18,f,1,1,8,764,1,304,1,b,f,1
8,64,18,f,1,1,8,765,2,467,0,b,f,8
8,65,18,f,1,1,8,766,3,111,1,b,f,3
8,66,18,f,1,1,8,767,7,1950,0,b,f,5
8,67,18,f,1,1,8,768,7,600,1,b,f,7
8,68,18,f,1,1,8,769,1,1088,0,b,f,4
8,69,18,f,1,1,8,770,1,1178,0,b,f,2
8,70,18,f,1,1,8,771,5,966,1,b,f,5
8,71,18,f,1,1,8,772,6,470,1,b,f,6
8,72,18,f,1,1,8,773,7,433,0,b,f,0
8,73,18,f,1,1,8,774,4,1339,0,b,f,5
8,74,18,f,1,1,8,775,7,174,1,b,f,7
8,75,18,f,1,1,8,776,4,532,1,b,f,4
8,76,18,f,1,1,8,777,3,2044,1,b,f,3
8,77,18,f,1,1,8,778,1,289,1,b,f,1
8,78,18,f,1,1,8,779,3,217,1,b,f,3
8,79,18,f,1,1,8,780,7,506,1,b,f,7
8,80,18,f,1,1,8,781,4,1403,0,b,f,3
8,81,18,f,1,1,8,782,7,116,1,b,f,7
8,82,18,f,1,1,8,783,3,627,1,b,f,3
8,83,18,f,1,1,8,784,0,738,0,b,f,5
8,84,18,f,1,1,8,785,5,942,0,b,f,4
8,85,18,f,1,1,8,786,3,441,1,b,f,3
8,86,18,f,1,1,8,787,1,455,0,b,f,8
8,87,18,f,1,1,8,788,3,487,0,b,f,2
8,88,18,f,1,1,8,789,1,946,0,b,f,8
8,89,18,f,1,1,8,790,5,1613,0,b,f,1
8,90,18,f,1,1,8,791,8,542,0,b,f,5
8,91,18,f,1,1,8,792,8,275,0,b,f,1
8,92,18,f,1,1,8,793,1,362,1,b,f,1
8,93,18,f,1,1,8,794,4,407,1,b,f,4
8,94,18,f,1,1,8,795,7,873,1,b,f,7
8,95,18,f,1,1,8,796,5,849,0,b,f,3
8,96,18,f,1,1,8,797,8,670,1,b,f,8
8,97,18,f,1,1,8,798,3,1079,0,b,f,4
8,98,18,f,1,1,8,799,0,2079,0,b,f,2
8,99,18,f,1,1,8,800,3,2754,0,b,f,4
9,0,19,f,1,1,9,801,1,1362,1,y,f,1
9,1,19,f,1,1,9,802,4,963,1,y,f,4
9,2,19,f,1,1,9,803,0,2229,0,y,f,3
9,3,19,f,1,1,9,804,0,578,1,y,f,0
9,4,19,f,1,1,9,805,1,712,0,y,f,4
9,5,19,f,1,1,9,806,2,1689,1,y,f,2
9,6,19,f,1,1,9,807,1,664,0,y,f,3
9,7,19,f,1,1,9,808,1,251,1,y,f,1
9,8,19,f,1,1,9,809,7,525,1,y,f,7
9,9,19,f,1,1,9,810,2,1068,0,y,f,5
9,10,19,f,1,1,9,811,3,455,1,y,f,3
9,11,19,f,1,1,9,812,1,371,1,y,f,1
9,12,19,f,1,1,9,813,2,1485,0,y,f,0
9,13,19,f,1,1,9,814,4,716,1,y,f,4
9,14,19,f,1,1,9,815,7,493,0,y,f,1
9,15,19,f,1,1,9,816,0,727,1,y,f,0
9,16,19,f,1,1,9,817,0,291,1,y,f,0
9,17,19,f,1,1,9,818,2,805,0,y,f,1
9,18,19,f,1,1,9,819,4,0,1,y,f,4
9,19,19,f,1,1,9,820,2,527,1,y,f,2
9,20,19,f,1,1,9,821,8,75,1,y,f,8
9,21,19,f,1,1,9,822,4,740,0,y,f,2
9,22,19,f,1,1,9,823,6,1013,1,y,f,6
9,23,19,f,1,1,9,824,1,527,1,y,f,1
9,24,19,f,1,1,9,825,8,175,1,y,f,8
9,25,19,f,1,1,9,826,2,1170,0,y,f,6
9,26,19,f,1,1,9,827,1,352,1,y,f,1
9,27,19,f,1,1,9,828,3,188,1,y,f,3
9,28,19,f,1,1,9,829,3,92,1,y,f,3
9,29,19,f,1,1,9,830,4,964,0,y,f,2
9,30,19,f,1,1,9,831,8,343,1,y,f,8
9,31,19,f,1,1,9,832,1,574,0,y,f,4
9,32,19,f,1,1,9,833,2,611,1,y,f,2
9,33,19,f,1,1,9,834,4,494,0,y,f,3
9,34,19,f,1,1,9,835,5,570,0,y,f,3
9,35,19,f,1,1,9,836,5,537,1,y,f,5
9,36,19,f,1,1,9,837,4,489,1,y,f,4
9,37,19,f,1,1,9,838,1,410,1,y,f,1
9,38,19,f,1,1,9,839,8,216,1,y,f,8
9,39,19,f,1,1,9,840,4,2693,0,y,f,5
9,40,19,f,1,1,9,841,2,785,0,y,f,3
9,41,19,f,1,1,9,842,3,350,1,y,f,3
9,42,19,f,1,1,9,843,3,618,0,y,f,6
9,43,19,f,1,1,9,844,4,1042,0,y,f,1
9,44,19,f,1,1,9,845,1,341,0,y,f,3
9,45,19,f,1,1,9,846,5,637,1,y,f,5
9,46,19,f,1,1,9,847,0,1682,0,y,f,6
9,47,19,f,1,1,9,848,1,302,1,y,f,1
9,48,19,f,1,1,9,849,5,454,1,y,f,5
9,49,19,f,1,1,9,850,1,74,1,y,f,1
9,50,19,f,1,1,9,851,1,359,0,y,f,8
9,51,19,f,1,1,9,852,7,331,1,y,f,7
9,52,19,f,1,1,9,853,7,1027,1,y,f,7
9,53,19,f,1,1,9,854,8,1827,0,y,f,7
9,54,19,f,1,1,9,855,3,771,0,y,f,4
9,55,19,f,1,1,9,856,4,457,0,y,f,1
9,56,19,f,1,1,9,857,4,34,1,y,f,4
9,57,19,f,1,1,9,858,1,49,1,y,f,1
9,58,19,f,1,1,9,859,1,209,1,y,f,1
9,59,19,f,1,1,9,860,1,16,1,y,f,1
9,60,19,f,1,1,9,861,8,503,1,y,f,8
9,61,19,f,1,1,9,862,4,205,1,y,f,4
9,62,19,f,1,1,9,863,4,736,1,y,f,4
9,63,19,f,1,1,9,864,6,234,1,y,f,6
9,64,19,f,1,1,9,865,8,561,1,y,f,8
9,65,19,f,1,1,9,866,7,162,1,y,f,7
9,66,19,f,1,1,9,867,4,191,1,y,f,4
9,67,19,f,1,1,9,868,3,64,1,y,f,3
9,68,19,f,1,1,9,869,0,114,1,y,f,0
9,69,19,f,1,1,9,870,6,384,0,y,f,1
9,70,19,f,1,1,9,871,8,234,1,y,f,8
9,71,19,f,1,1,9,872,7,445,1,y,f,7
9,72,19,f,1,1,9,873,3,658,0,y,f,1
9,73,19,f,1,1,9,874,4,632,1,y,f,4
9,74,19,f,1,1,9,875,1,302,1,y,f,1
9,75,19,f,1,1,9,876,1,378,1,y,f,1
9,76,19,f,1,1,9,877,4,303,0,y,f,3
9,77,19,f,1,1,9,878,7,683,1,y,f,7
9,78,19,f,1,1,9,879,7,85,1,y,f,7
9,79,19,f,1,1,9,880,4,373,0,y,f,5
9,80,19,f,1,1,9,881,2,0,1,y,f,2
9,81,19,f,1,1,9,882,3,380,0,y,f,1
9,82,19,f,1,1,9,883,7,0,1,y,f,7
9,83,19,f,1,1,9,884,3,341,1,y,f,3
9,84,19,f,1,1,9,885,1,193,1,y,f,1
9,85,19,f,1,1,9,886,6,247,1,y,f,6
9,86,19,f,1,1,9,887,6,292,1,y,f,6
9,87,19,f,1,1,9,888,6,1167,1,y,f,6
9,88,19,f,1,1,9,889,1,238,0,y,f,5
9,89,19,f,1,1,9,890,6,250,1,y,f,6
9,90,19,f,1,1,9,891,8,468,1,y,f,8
9,91,19,f,1,1,9,892,3,653,0,y,f,2
9,92,19,f,1,1,9,893,0,454,0,y,f,8
9,93,19,f,1,1,9,894,8,205,1,y,f,8
9,94,19,f,1,1,9,895,5,336,1,y,f,5
9,95,19,f,1,1,9,896,1,1162,0,y,f,8
9,96,19,f,1,1,9,897,1,524,0,y,f,4
9,97,19,f,1,1,9,898,6,288,1,y,f,6
9,98,19,f,1,1,9,899,1,211,1,y,f,1
9,99,19,f,1,1,9,900,1,1201,0,y,f,0
10,0,19,m,1,1,10,901,1,1810,0,b,m,3
10,1,19,m,1,1,10,902,0,907,0,b,m,2
10,2,19,m,1,1,10,903,8,893,0,b,m,0
10,3,19,m,1,1,10,904,6,1703,0,b,m,7
10,4,19,m,1,1,10,905,2,788,1,b,m,2
10,5,19,m,1,1,10,906,0,450,1,b,m,0
10,6,19,m,1,1,10,907,8,67,0,b,m,5
10,7,19,m,1,1,10,908,0,195,1,b,m,0
10,8,19,m,1,1,10,909,0,209,1,b,m,0
10,9,19,m,1,1,10,910,6,1393,0,b,m,2
10,10,19,m,1,1,10,911,8,126,1,b,m,8
10,11,19,m,1,1,10,912,2,600,0,b,m,1
10,12,19,m,1,1,10,913,6,346,1,b,m,6
10,13,19,m,1,1,10,914,5,1291,0,b,m,0
10,14,19,m,1,1,10,915,4,493,0,b,m,2
10,15,19,m,1,1,10,916,8,647,1,b,m,8
10,16,19,m,1,1,10,917,3,158,0,b,m,7
10,17,19,m,1,1,10,918,6,495,1,b,m,6
10,18,19,m,1,1,10,919,4,262,1,b,m,4
10,19,19,m,1,1,10,920,6,1534,0,b,m,7
10,20,19,m,1,1,10,921,4,913,1,b,m,4
10,21,19,m,1,1,10,922,8,1454,1,b,m,8
10,22,19,m,1,1,10,923,1,561,0,b,m,0
10,23,19,m,1,1,10,924,3,310,0,b,m,2
10,24,19,m,1,1,10,925,8,761,0,b,m,7
10,25,19,m,1,1,10,926,6,854,0,b,m,1
10,26,19,m,1,1,10,927,2,439,1,b,m,2
10,27,19,m,1,1,10,928,6,176,1,b,m,6
10,28,19,m,1,1,10,929,8,179,0,b,m,4
10,29,19,m,1,1,10,930,7,351,1,b,m,7
10,30,19,m,1,1,10,931,7,1487,1,b,m,7
10,31,19,m,1,1,10,932,2,502,1,b,m,2
10,32,19,m,1,1,10,933,8,649,0,b,m,0
10,33,19,m,1,1,10,934,8,443,1,b,m,8
10,34,19,m,1,1,10,935,0,220,0,b,m,6
10,35,19,m,1,1,10,936,3,114,0,b,m,1
10,36,19,m,1,1,10,937,7,1027,0,b,m,8
10,37,19,m,1,1,10,938,6,302,1,b,m,6
10,38,19,m,1,1,10,939,1,65,0,b,m,8
10,39,19,m,1,1,10,940,7,277,0,b,m,0
10,40,19,m,1,1,10,941,6,366,0,b,m,0
10,41,19,m,1,1,10,942,0,1004,0,b,m,5
10,42,19,m,1,1,10,943,1,457,1,b,m,1
10,43,19,m,1,1,10,944,6,641,1,b,m,6
10,44,19,m,1,1,10,945,7,165,1,b,m,7
10,45,19,m,1,1,10,946,2,944,1,b,m,2
10,46,19,m,1,1,10,947,8,429,0,b,m,6
10,47,19,m,1,1,10,948,6,0,0,b,m,7
10,48,19,m,1,1,10,949,6,47,1,b,m,6
10,49,19,m,1,1,10,950,1,412,0,b,m,6
10,50,19,m,1,1,10,951,8,629,0,b,m,3
10,51,19,m,1,1,10,952,1,1032,0,b,m,6
10,52,19,m,1,1,10,953,6,335,0,b,m,1
10,53,19,m,1,1,10,954,1,27,0,b,m,2
10,54,19,m,1,1,10,955,8,254,0,b,m,4
10,55,19,m,1,1,10,956,8,249,0,b,m,5
10,56,19,m,1,1,10,957,3,0,0,b,m,5
10,57,19,m,1,1,10,958,3,200,0,b,m,4
10,58,19,m,1,1,10,959,5,553,0,b,m,0
10,59,19,m,1,1,10,960,1,0,0,b,m,7
10,60,19,m,1,1,10,961,1,839,0,b,m,6
10,61,19,m,1,1,10,962,1,920,0,b,m,2
10,62,19,m,1,1,10,963,4,513,1,b,m,4
10,63,19,m,1,1,10,964,7,1,1,b,m,7
10,64,19,m,1,1,10,965,8,356,0,b,m,7
10,65,19,m,1,1,10,966,6,0,1,b,m,6
10,66,19,m,1,1,10,967,7,630,1,b,m,7
10,67,19,m,1,1,10,968,1,205,0,b,m,0
10,68,19,m,1,1,10,969,8,213,0,b,m,4
10,69,19,m,1,1,10,970,6,224,0,b,m,0
10,70,19,m,1,1,10,971,2,1049,0,b,m,3
10,71,19,m,1,1,10,972,1,916,0,b,m,0
10,72,19,m,1,1,10,973,2,412,0,b,m,0
10,73,19,m,1,1,10,974,3,630,1,b,m,3
10,74,19,m,1,1,10,975,3,635,1,b,m,3
10,75,19,m,1,1,10,976,3,1001,0,b,m,1
10,76,19,m,1,1,10,977,6,1436,0,b,m,8
10,77,19,m,1,1,10,978,6,1,0,b,m,4
10,78,19,m,1,1,10,979,2,879,0,b,m,7
10,79,19,m,1,1,10,980,1,800,0,b,m,0
10,80,19,m,1,1,10,981,0,1222,1,b,m,0
10,81,19,m,1,1,10,982,7,929,1,b,m,7
10,82,19,m,1,1,10,983,3,686,0,b,m,6
10,83,19,m,1,1,10,984,2,75,0,b,m,5
10,84,19,m,1,1,10,985,0,143,0,b,m,5
10,85,19,m,1,1,10,986,4,383,0,b,m,8
10,86,19,m,1,1,10,987,3,236,1,b,m,3
10,87,19,m,1,1,10,988,3,96,1,b,m,3
10,88,19,m,1,1,10,989,8,293,0,b,m,2
10,89,19,m,1,1,10,990,3,1213,1,b,m,3
10,90,19,m,1,1,10,991,2,102,0,b,m,4
10,91,19,m,1,1,10,992,5,460,1,b,m,5
10,92,19,m,1,1,10,993,2,474,1,b,m,2
10,93,19,m,1,1,10,994,6,296,1,b,m,6
10,94,19,m,1,1,10,995,2,177,0,b,m,1
10,95,19,m,1,1,10,996,2,558,1,b,m,2
10,96,19,m,1,1,10,997,8,193,0,b,m,5
10,97,19,m,1,1,10,998,1,478,1,b,m,1
10,98,19,m,1,1,10,999,8,643,1,b,m,8
10,99,19,m,1,1,10,1000,7,202,1,b,m,7
11,0,21,f,1,1,11,1001,8,4564,0,y,m,1
11,1,21,f,1,1,11,1002,2,732,0,y,m,0
11,2,21,f,1,1,11,1003,2,1115,0,y,m,7
11,3,21,f,1,1,11,1004,7,972,1,y,m,7
11,4,21,f,1,1,11,1005,2,619,1,y,m,2
11,5,21,f,1,1,11,1006,2,1347,0,y,m,0
11,6,21,f,1,1,11,1007,5,702,0,y,m,4
11,7,21,f,1,1,11,1008,1,513,1,y,m,1
11,8,21,f,1,1,11,1009,6,399,0,y,m,2
11,9,21,f,1,1,11,1010,7,535,1,y,m,7
11,10,21,f,1,1,11,1011,8,414,0,y,m,5
11,11,21,f,1,1,11,1012,7,593,1,y,m,7
11,12,21,f,1,1,11,1013,4,572,1,y,m,4
11,13,21,f,1,1,11,1014,2,500,1,y,m,2
11,14,21,f,1,1,11,1015,7,475,1,y,m,7
11,15,21,f,1,1,11,1016,5,760,0,y,m,1
11,16,21,f,1,1,11,1017,8,1349,0,y,m,6
11,17,21,f,1,1,11,1018,3,515,1,y,m,3
11,18,21,f,1,1,11,1019,1,1804,0,y,m,0
11,19,21,f,1,1,11,1020,3,619,1,y,m,3
11,20,21,f,1,1,11,1021,4,973,1,y,m,4
11,21,21,f,1,1,11,1022,4,941,0,y,m,6
11,22,21,f,1,1,11,1023,5,102,1,y,m,5
11,23,21,f,1,1,11,1024,8,730,0,y,m,0
11,24,21,f,1,1,11,1025,6,890,1,y,m,6
11,25,21,f,1,1,11,1026,5,555,1,y,m,5
11,26,21,f,1,1,11,1027,8,692,0,y,m,0
11,27,21,f,1,1,11,1028,8,786,0,y,m,4
11,28,21,f,1,1,11,1029,2,342,1,y,m,2
11,29,21,f,1,1,11,1030,8,501,0,y,m,1
11,30,21,f,1,1,11,1031,6,576,0,y,m,0
11,31,21,f,1,1,11,1032,3,464,0,y,m,1
11,32,21,f,1,1,11,1033,8,1151,0,y,m,7
11,33,21,f,1,1,11,1034,5,411,1,y,m,5
11,34,21,f,1,1,11,1035,3,245,1,y,m,3
11,35,21,f,1,1,11,1036,2,822,0,y,m,3
11,36,21,f,1,1,11,1037,8,290,1,y,m,8
11,37,21,f,1,1,11,1038,2,592,0,y,m,4
11,38,21,f,1,1,11,1039,4,1385,0,y,m,3
11,39,21,f,1,1,11,1040,0,555,0,y,m,8
11,40,21,f,1,1,11,1041,0,63,1,y,m,0
11,41,21,f,1,1,11,1042,5,576,1,y,m,5
11,42,21,f,1,1,11,1043,3,242,1,y,m,3
11,43,21,f,1,1,11,1044,8,390,1,y,m,8
11,44,21,f,1,1,11,1045,4,353,1,y,m,4
11,45,21,f,1,1,11,1046,2,645,0,y,m,4
11,46,21,f,1,1,11,1047,0,943,0,y,m,8
11,47,21,f,1,1,11,1048,4,771,0,y,m,0
11,48,21,f,1,1,11,1049,6,477,1,y,m,6
11,49,21,f,1,1,11,1050,6,1462,0,y,m,1
11,50,21,f,1,1,11,1051,0,1645,0,y,m,2
11,51,21,f,1,1,11,1052,5,1000,1,y,m,5
11,52,21,f,1,1,11,1053,6,1257,1,y,m,6
11,53,21,f,1,1,11,1054,7,656,0,y,m,8
11,54,21,f,1,1,11,1055,2,701,0,y,m,6
11,55,21,f,1,1,11,1056,8,787,0,y,m,6
11,56,21,f,1,1,11,1057,2,610,0,y,m,6
11,57,21,f,1,1,11,1058,8,521,0,y,m,2
11,58,21,f,1,1,11,1059,7,540,1,y,m,7
11,59,21,f,1,1,11,1060,5,854,0,y,m,6
11,60,21,f,1,1,11,1061,4,533,1,y,m,4
11,61,21,f,1,1,11,1062,5,404,1,y,m,5
11,62,21,f,1,1,11,1063,3,1395,0,y,m,8
11,63,21,f,1,1,11,1064,2,649,1,y,m,2
11,64,21,f,1,1,11,1065,2,644,0,y,m,3
11,65,21,f,1,1,11,1066,2,0,1,y,m,2
11,66,21,f,1,1,11,1067,3,722,1,y,m,3
11,67,21,f,1,1,11,1068,8,364,0,y,m,7
11,68,21,f,1,1,11,1069,2,274,0,y,m,4
11,69,21,f,1,1,11,1070,6,229,1,y,m,6
11,70,21,f,1,1,11,1071,3,198,0,y,m,8
11,71,21,f,1,1,11,1072,8,69,1,y,m,8
11,72,21,f,1,1,11,1073,0,313,1,y,m,0
11,73,21,f,1,1,11,1074,3,678,0,y,m,1
11,74,21,f,1,1,11,1075,3,148,1,y,m,3
11,75,21,f,1,1,11,1076,7,1511,1,y,m,7
11,76,21,f,1,1,11,1077,6,485,1,y,m,6
11,77,21,f,1,1,11,1078,2,135,1,y,m,2
11,78,21,f,1,1,11,1079,1,404,0,y,m,2
11,79,21,f,1,1,11,1080,1,1719,0,y,m,3
11,80,21,f,1,1,11,1081,7,357,1,y,m,7
11,81,21,f,1,1,11,1082,4,432,1,y,m,4
11,82,21,f,1,1,11,1083,1,355,1,y,m,1
11,83,21,f,1,1,11,1084,6,511,0,y,m,1
11,84,21,f,1,1,11,1085,2,0,1,y,m,2
11,85,21,f,1,1,11,1086,5,1599,0,y,m,8
11,86,21,f,1,1,11,1087,4,479,1,y,m,4
11,87,21,f,1,1,11,1088,6,961,1,y,m,6
11,88,21,f,1,1,11,1089,2,130,0,y,m,8
11,89,21,f,1,1,11,1090,4,487,0,y,m,7
11,90,21,f,1,1,11,1091,6,490,0,y,m,2
11,91,21,f,1,1,11,1092,6,360,0,y,m,2
11,92,21,f,1,1,11,1093,1,169,1,y,m,1
11,93,21,f,1,1,11,1094,6,695,1,y,m,6
11,94,21,f,1,1,11,1095,8,277,1,y,m,8
11,95,21,f,1,1,11,1096,1,321,1,y,m,1
11,96,21,f,1,1,11,1097,8,420,0,y,m,1
11,97,21,f,1,1,11,1098,1,646,1,y,m,1
11,98,21,f,1,1,11,1099,1,1159,1,y,m,1
11,99,21,f,1,1,11,1100,0,645,1,y,m,0
12,0,19,f,1,1,12,1101,0,1876,0,b,f,7
12,1,19,f,1,1,12,1102,1,2201,0,b,f,5
12,2,19,f,1,1,12,1103,0,372,1,b,f,0
12,3,19,f,1,1,12,1104,8,755,0,b,f,4
12,4,19,f,1,1,12,1105,5,1029,1,b,f,5
12,5,19,f,1,1,12,1106,5,632,0,b,f,4
12,6,19,f,1,1,12,1107,6,746,0,b,f,4
12,7,19,f,1,1,12,1108,6,482,1,b,f,6
12,8,19,f,1,1,12,1109,0,746,0,b,f,1
12,9,19,f,1,1,12,1110,0,695,0,b,f,3
12,10,19,f,1,1,12,1111,0,476,1,b,f,0
12,11,19,f,1,1,12,1112,8,537,0,b,f,0
12,12,19,f,1,1,12,1113,4,597,0,b,f,2
12,13,19,f,1,1,12,1114,7,382,1,b,f,7
12,14,19,f,1,1,12,1115,8,261,1,b,f,8
12,15,19,f,1,1,12,1116,5,468,1,b,f,5
12,16,19,f,1,1,12,1117,2,484,0,b,f,5
12,17,19,f,1,1,12,1118,1,562,1,b,f,1
12,18,19,f,1,1,12,1119,5,268,1,b,f,5
12,19,19,f,1,1,12,1120,7,266,1,b,f,7
12,20,19,f,1,1,12,1121,8,485,1,b,f,8
12,21,19,f,1,1,12,1122,6,495,1,b,f,6
12,22,19,f,1,1,12,1123,7,272,1,b,f,7
12,23,19,f,1,1,12,1124,0,421,0,b,f,1
12,24,19,f,1,1,12,1125,5,214,1,b,f,5
12,25,19,f,1,1,12,1126,7,568,0,b,f,4
12,26,19,f,1,1,12,1127,8,514,0,b,f,0
12,27,19,f,1,1,12,1128,0,483,1,b,f,0
12,28,19,f,1,1,12,1129,8,383,1,b,f,8
12,29,19,f,1,1,12,1130,5,350,1,b,f,5
12,30,19,f,1,1,12,1131,3,398,1,b,f,3
12,31,19,f,1,1,12,1132,0,477,1,b,f,0
12,32,19,f,1,1,12,1133,7,487,1,b,f,7
12,33,19,f,1,1,12,1134,5,829,1,b,f,5
12,34,19,f,1,1,12,1135,1,498,1,b,f,1
12,35,19,f,1,1,12,1136,3,613,0,b,f,2
12,36,19,f,1,1,12,1137,6,815,0,b,f,0
12,37,19,f,1,1,12,1138,0,564,0,b,f,3
12,38,19,f,1,1,12,1139,3,596,1,b,f,3
12,39,19,f,1,1,12,1140,4,407,1,b,f,4
12,40,19,f,1,1,12,1141,7,364,1,b,f,7
12,41,19,f,1,1,12,1142,2,469,0,b,f,4
12,42,19,f,1,1,12,1143,3,511,1,b,f,3
12,43,19,f,1,1,12,1144,0,369,1,b,f,0
12,44,19,f,1,1,12,1145,7,695,0,b,f,2
12,45,19,f,1,1,12,1146,6,411,1,b,f,6
12,46,19,f,1,1,12,1147,4,622,0,b,f,8
12,47,19,f,1,1,12,1148,2,454,0,b,f,1
12,48,19,f,1,1,12,1149,6,529,1,b,f,6
12,49,19,f,1,1,12,1150,6,249,1,b,f,6
12,50,19,f,1,1,12,1151,3,646,0,b,f,1
12,51,19,f,1,1,12,1152,6,476,1,b,f,6
12,52,19,f,1,1,12,1153,5,393,1,b,f,5
12,53,19,f,1,1,12,1154,3,288,1,b,f,3
12,54,19,f,1,1,12,1155,6,371,0,b,f,1
12,55,19,f,1,1,12,1156,1,443,1,b,f,1
12,56,19,f,1,1,12,1157,7,605,0,b,f,4
12,57,19,f,1,1,12,1158,6,316,1,b,f,6
12,58,19,f,1,1,12,1159,3,403,1,b,f,3
12,59,19,f,1,1,12,1160,0,578,0,b,f,1
12,60,19,f,1,1,12,1161,6,307,1,b,f,6
12,61,19,f,1,1,12,1162,5,533,1,b,f,5
12,62,19,f,1,1,12,1163,6,493,1,b,f,6
12,63,19,f,1,1,12,1164,7,473,1,b,f,7
12,64,19,f,1,1,12,1165,4,530,1,b,f,4
12,65,19,f,1,1,12,1166,7,600,1,b,f,7
12,66,19,f,1,1,12,1167,4,325,1,b,f,4
12,67,19,f,1,1,12,1168,2,522,1,b,f,2
12,68,19,f,1,1,12,1169,5,680,1,b,f,5
12,69,19,f,1,1,12,1170,8,435,0,b,f,6
12,70,19,f,1,1,12,1171,3,293,1,b,f,3
12,71,19,f,1,1,12,1172,5,350,1,b,f,5
12,72,19,f,1,1,12,1173,6,348,1,b,f,6
12,73,19,f,1,1,12,1174,4,529,1,b,f,4
12,74,19,f,1,1,12,1175,8,427,0,b,f,0
12,75,19,f,1,1,12,1176,8,549,1,b,f,8
12,76,19,f,1,1,12,1177,5,129,1,b,f,5
12,77,19,f,1,1,12,1178,3,557,1,b,f,3
12,78,19,f,1,1,12,1179,2,650,1,b,f,2
12,79,19,f,1,1,12,1180,1,536,0,b,f,3
12,80,19,f,1,1,12,1181,1,461,1,b,f,1
12,81,19,f,1,1,12,1182,2,308,1,b,f,2
12,82,19,f,1,1,12,1183,8,555,1,b,f,8
12,83,19,f,1,1,12,1184,7,584,1,b,f,7
12,84,19,f,1,1,12,1185,8,328,1,b,f,8
12,85,19,f,1,1,12,1186,6,953,1,b,f,6
12,86,19,f,1,1,12,1187,7,780,1,b,f,7
12,87,19,f,1,1,12,1188,3,499,1,b,f,3
12,88,19,f,1,1,12,1189,1,548,0,b,f,3
12,89,19,f,1,1,12,1190,5,381,1,b,f,5
12,90,19,f,1,1,12,1191,5,3777,0,b,f,1
12,91,19,f,1,1,12,1192,5,147,1,b,f,5
12,92,19,f,1,1,12,1193,0,371,0,b,f,4
12,93,19,f,1,1,12,1194,7,371,1,b,f,7
12,94,19,f,1,1,12,1195,8,624,1,b,f,8
12,95,19,f,1,1,12,1196,4,654,0,b,f,1
12,96,19,f,1,1,12,1197,5,403,1,b,f,5
12,97,19,f,1,1,12,1198,3,469,1,b,f,3
12,98,19,f,1,1,12,1199,8,301,0,b,f,0
12,99,19,f,1,1,12,1200,7,318,1,b,f,7
13,0,18,f,1,1,13,1201,6,9975,1,b,m,6
13,1,18,f,1,1,13,1202,6,1594,1,b,m,6
13,2,18,f,1,1,13,1203,0,16950,0,b,m,2
13,3,18,f,1,1,13,1204,1,2507,1,b,m,1
13,4,18,f,1,1,13,1205,8,535,0,b,m,3
13,5,18,f,1,1,13,1206,1,417,0,b,m,7
13,6,18,f,1,1,13,1207,8,1070,1,b,m,8
13,7,18,f,1,1,13,1208,8,442,1,b,m,8
13,8,18,f,1,1,13,1209,0,1020,0,b,m,3
13,9,18,f,1,1,13,1210,6,556,1,b,m,6
13,10,18,f,1,1,13,1211,1,1315,1,b,m,1
13,11,18,f,1,1,13,1212,4,1039,1,b,m,4
13,12,18,f,1,1,13,1213,6,442,0,b,m,1
13,13,18,f,1,1,13,1214,1,296,1,b,m,1
13,14,18,f,1,1,13,1215,6,452,0,b,m,1
13,15,18,f,1,1,13,1216,1,542,0,b,m,5
13,16,18,f,1,1,13,1217,1,2691,0,b,m,7
13,17,18,f,1,1,13,1218,7,801,0,b,m,0
13,18,18,f,1,1,13,1219,1,450,0,b,m,0
13,19,18,f,1,1,13,1220,8,694,1,b,m,8
13,20,18,f,1,1,13,1221,1,456,1,b,m,1
13,21,18,f,1,1,13,1222,0,332,1,b,m,0
13,22,18,f,1,1,13,1223,1,459,1,b,m,1
13,23,18,f,1,1,13,1224,4,878,0,b,m,5
13,24,18,f,1,1,13,1225,8,2261,0,b,m,2
13,25,18,f,1,1,13,1226,0,835,0,b,m,5
13,26,18,f,1,1,13,1227,2,3936,1,b,m,2
13,27,18,f,1,1,13,1228,6,540,1,b,m,6
13,28,18,f,1,1,13,1229,0,638,0,b,m,5
13,29,18,f,1,1,13,1230,1,1789,1,b,m,1
13,30,18,f,1,1,13,1231,6,410,1,b,m,6
13,31,18,f,1,1,13,1232,2,1872,0,b,m,4
13,32,18,f,1,1,13,1233,4,828,1,b,m,4
13,33,18,f,1,1,13,1234,3,1486,1,b,m,3
13,34,18,f,1,1,13,1235,0,1078,1,b,m,0
13,35,18,f,1,1,13,1236,4,676,1,b,m,4
13,36,18,f,1,1,13,1237,0,723,1,b,m,0
13,37,18,f,1,1,13,1238,7,283,1,b,m,7
13,38,18,f,1,1,13,1239,2,83,1,b,m,2
13,39,18,f,1,1,13,1240,7,366,0,b,m,5
13,40,18,f,1,1,13,1241,0,594,1,b,m,0
13,41,18,f,1,1,13,1242,3,680,1,b,m,3
13,42,18,f,1,1,13,1243,6,752,1,b,m,6
13,43,18,f,1,1,13,1244,1,798,1,b,m,1
13,44,18,f,1,1,13,1245,1,1213,0,b,m,0
13,45,18,f,1,1,13,1246,6,283,1,b,m,6
13,46,18,f,1,1,13,1247,1,1963,0,b,m,0
13,47,18,f,1,1,13,1248,0,434,0,b,m,2
13,48,18,f,1,1,13,1249,4,1867,0,b,m,6
13,49,18,f,1,1,13,1250,7,404,1,b,m,7
13,50,18,f,1,1,13,1251,7,732,1,b,m,7
13,51,18,f,1,1,13,1252,5,436,1,b,m,5
13,52,18,f,1,1,13,1253,1,670,1,b,m,1
13,53,18,f,1,1,13,1254,4,250,1,b,m,4
13,54,18,f,1,1,13,1255,1,2957,0,b,m,2
13,55,18,f,1,1,13,1256,2,760,1,b,m,2
13,56,18,f,1,1,13,1257,8,350,1,b,m,8
13,57,18,f,1,1,13,1258,1,1191,0,b,m,0
13,58,18,f,1,1,13,1259,0,476,1,b,m,0
13,59,18,f,1,1,13,1260,3,797,1,b,m,3
13,60,18,f,1,1,13,1261,0,252,1,b,m,0
13,61,18,f,1,1,13,1262,6,603,1,b,m,6
13,62,18,f,1,1,13,1263,1,503,0,b,m,2
13,63,18,f,1,1,13,1264,7,739,1,b,m,7
13,64,18,f,1,1,13,1265,3,852,0,b,m,2
13,65,18,f,1,1,13,1266,1,256,1,b,m,1
13,66,18,f,1,1,13,1267,6,529,1,b,m,6
13,67,18,f,1,1,13,1268,6,122,1,b,m,6
13,68,18,f,1,1,13,1269,7,390,1,b,m,7
13,69,18,f,1,1,13,1270,8,523,1,b,m,8
13,70,18,f,1,1,13,1271,1,532,0,b,m,3
13,71,18,f,1,1,13,1272,4,748,1,b,m,4
13,72,18,f,1,1,13,1273,1,530,0,b,m,5
13,73,18,f,1,1,13,1274,2,313,1,b,m,2
13,74,18,f,1,1,13,1275,4,534,1,b,m,4
13,75,18,f,1,1,13,1276,7,905,0,b,m,5
13,76,18,f,1,1,13,1277,5,193,1,b,m,5
13,77,18,f,1,1,13,1278,1,686,0,b,m,7
13,78,18,f,1,1,13,1279,8,461,1,b,m,8
13,79,18,f,1,1,13,1280,7,342,0,b,m,6
13,80,18,f,1,1,13,1281,0,732,1,b,m,0
13,81,18,f,1,1,13,1282,1,786,0,b,m,2
13,82,18,f,1,1,13,1283,8,445,1,b,m,8
13,83,18,f,1,1,13,1284,6,1088,0,b,m,2
13,84,18,f,1,1,13,1285,6,281,1,b,m,6
13,85,18,f,1,1,13,1286,0,617,1,b,m,0
13,86,18,f,1,1,13,1287,1,424,1,b,m,1
13,87,18,f,1,1,13,1288,2,199,1,b,m,2
13,88,18,f,1,1,13,1289,6,568,1,b,m,6
13,89,18,f,1,1,13,1290,8,534,1,b,m,8
13,90,18,f,1,1,13,1291,1,321,1,b,m,1
13,91,18,f,1,1,13,1292,1,300,1,b,m,1
13,92,18,f,1,1,13,1293,8,252,0,b,m,6
13,93,18,f,1,1,13,1294,0,224,1,b,m,0
13,94,18,f,1,1,13,1295,8,548,0,b,m,0
13,95,18,f,1,1,13,1296,3,736,0,b,m,4
13,96,18,f,1,1,13,1297,6,438,1,b,m,6
13,97,18,f,1,1,13,1298,1,323,1,b,m,1
13,98,18,f,1,1,13,1299,6,143,1,b,m,6
13,99,18,f,1,1,13,1300,0,402,0,b,m,3
15,0,20,m,1,1,14,1301,7,2416,0,y,f,2
15,1,20,m,1,1,14,1302,6,512,1,y,f,6
15,2,20,m,1,1,14,1303,7,942,0,y,f,8
15,3,20,m,1,1,14,1304,3,664,0,y,f,1
15,4,20,m,1,1,14,1305,8,1685,0,y,f,4
15,5,20,m,1,1,14,1306,0,613,0,y,f,5
15,6,20,m,1,1,14,1307,1,1310,1,y,f,1
15,7,20,m,1,1,14,1308,4,722,0,y,f,6
15,8,20,m,1,1,14,1309,5,517,1,y,f,5
15,9,20,m,1,1,14,1310,1,800,1,y,f,1
15,10,20,m,1,1,14,1311,8,748,0,y,f,6
15,11,20,m,1,1,14,1312,7,337,1,y,f,7
15,12,20,m,1,1,14,1313,0,366,1,y,f,0
15,13,20,m,1,1,14,1314,8,296,1,y,f,8
15,14,20,m,1,1,14,1315,5,362,1,y,f,5
15,15,20,m,1,1,14,1316,0,428,0,y,f,1
15,16,20,m,1,1,14,1317,1,352,1,y,f,1
15,17,20,m,1,1,14,1318,4,470,1,y,f,4
15,18,20,m,1,1,14,1319,0,423,1,y,f,0
15,19,20,m,1,1,14,1320,1,1232,1,y,f,1
15,20,20,m,1,1,14,1321,1,686,1,y,f,1
15,21,20,m,1,1,14,1322,0,462,1,y,f,0
15,22,20,m,1,1,14,1323,5,245,0,y,f,2
15,23,20,m,1,1,14,1324,3,399,1,y,f,3
15,24,20,m,1,1,14,1325,8,252,1,y,f,8
15,25,20,m,1,1,14,1326,8,792,1,y,f,8
15,26,20,m,1,1,14,1327,2,570,1,y,f,2
15,27,20,m,1,1,14,1328,3,354,1,y,f,3
15,28,20,m,1,1,14,1329,1,564,1,y,f,1
15,29,20,m,1,1,14,1330,6,383,1,y,f,6
15,30,20,m,1,1,14,1331,6,692,0,y,f,4
15,31,20,m,1,1,14,1332,4,231,1,y,f,4
15,32,20,m,1,1,14,1333,8,1221,1,y,f,8
15,33,20,m,1,1,14,1334,8,1396,0,y,f,0
15,34,20,m,1,1,14,1335,5,304,1,y,f,5
15,35,20,m,1,1,14,1336,4,450,0,y,f,3
15,36,20,m,1,1,14,1337,8,440,0,y,f,7
15,37,20,m,1,1,14,1338,7,346,1,y,f,7
15,38,20,m,1,1,14,1339,4,2057,0,y,f,7
15,39,20,m,1,1,14,1340,4,164,1,y,f,4
15,40,20,m,1,1,14,1341,8,507,0,y,f,6
15,41,20,m,1,1,14,1342,7,754,1,y,f,7
15,42,20,m,1,1,14,1343,4,2581,0,y,f,3
15,43,20,m,1,1,14,1344,2,639,1,y,f,2
15,44,20,m,1,1,14,1345,7,174,1,y,f,7
15,45,20,m,1,1,14,1346,3,209,1,y,f,3
15,46,20,m,1,1,14,1347,0,681,1,y,f,0
15,47,20,m,1,1,14,1348,2,464,0,y,f,3
15,48,20,m,1,1,14,1349,6,704,1,y,f,6
15,49,20,m,1,1,14,1350,6,144,1,y,f,6
15,50,20,m,1,1,14,1351,3,450,0,y,f,4
15,51,20,m,1,1,14,1352,0,377,1,y,f,0
15,52,20,m,1,1,14,1353,8,828,0,y,f,0
15,53,20,m,1,1,14,1354,6,0,1,y,f,6
15,54,20,m,1,1,14,1355,3,325,0,y,f,2
15,55,20,m,1,1,14,1356,2,428,0,y,f,1
15,56,20,m,1,1,14,1357,7,401,1,y,f,7
15,57,20,m,1,1,14,1358,5,186,1,y,f,5
15,58,20,m,1,1,14,1359,4,618,0,y,f,0
15,59,20,m,1,1,14,1360,8,3086,0,y,f,2
15,60,20,m,1,1,14,1361,5,248,1,y,f,5
15,61,20,m,1,1,14,1362,4,476,1,y,f,4
15,62,20,m,1,1,14,1363,4,418,0,y,f,3
15,63,20,m,1,1,14,1364,0,1067,0,y,f,1
15,64,20,m,1,1,14,1365,2,517,0,y,f,3
15,65,20,m,1,1,14,1366,2,230,0,y,f,4
15,66,20,m,1,1,14,1367,2,382,0,y,f,1
15,67,20,m,1,1,14,1368,8,1196,0,y,f,4
15,68,20,m,1,1,14,1369,6,581,0,y,f,2
15,69,20,m,1,1,14,1370,3,373,0,y,f,1
15,70,20,m,1,1,14,1371,5,180,1,y,f,5
15,71,20,m,1,1,14,1372,7,231,1,y,f,7
15,72,20,m,1,1,14,1373,3,31,1,y,f,3
15,73,20,m,1,1,14,1374,8,227,0,y,f,7
15,74,20,m,1,1,14,1375,4,201,1,y,f,4
15,75,20,m,1,1,14,1376,2,561,0,y,f,3
15,76,20,m,1,1,14,1377,2,192,1,y,f,2
15,77,20,m,1,1,14,1378,1,47,1,y,f,1
15,78,20,m,1,1,14,1379,8,455,1,y,f,8
15,79,20,m,1,1,14,1380,5,0,1,y,f,5
15,80,20,m,1,1,14,1381,0,1077,1,y,f,0
15,81,20,m,1,1,14,1382,5,515,0,y,f,3
15,82,20,m,1,1,14,1383,5,65,1,y,f,5
15,83,20,m,1,1,14,1384,2,504,0,y,f,0
15,84,20,m,1,1,14,1385,1,18,1,y,f,1
15,85,20,m,1,1,14,1386,6,1024,1,y,f,6
15,86,20,m,1,1,14,1387,2,1098,0,y,f,6
15,87,20,m,1,1,14,1388,6,514,1,y,f,6
15,88,20,m,1,1,14,1389,6,484,0,y,f,4
15,89,20,m,1,1,14,1390,0,560,0,y,f,2
15,90,20,m,1,1,14,1391,1,290,1,y,f,1
15,91,20,m,1,1,14,1392,0,277,0,y,f,2
15,92,20,m,1,1,14,1393,2,73,1,y,f,2
15,93,20,m,1,1,14,1394,3,284,1,y,f,3
15,94,20,m,1,1,14,1395,2,0,1,y,f,2
15,95,20,m,1,1,14,1396,6,165,1,y,f,6
15,96,20,m,1,1,14,1397,0,180,1,y,f,0
15,97,20,m,1,1,14,1398,6,729,0,y,f,8
15,98,20,m,1,1,14,1399,1,194,0,y,f,3
15,99,20,m,1,1,14,1400,7,127,1,y,f,7
16,0,20,m,1,1,15,1401,8,4703,0,b,m,7
16,1,20,m,1,1,15,1402,1,907,0,b,m,0
16,2,20,m,1,1,15,1403,5,882,0,b,m,4
16,3,20,m,1,1,15,1404,0,775,0,b,m,1
16,4,20,m,1,1,15,1405,7,624,0,b,m,0
16,5,20,m,1,1,15,1406,5,266,1,b,m,5
16,6,20,m,1,1,15,1407,6,69,1,b,m,6
16,7,20,m,1,1,15,1408,0,1006,0,b,m,8
16,8,20,m,1,1,15,1409,2,510,1,b,m,2
16,9,20,m,1,1,15,1410,1,752,1,b,m,1
16,10,20,m,1,1,15,1411,3,475,0,b,m,7
16,11,20,m,1,1,15,1412,3,381,1,b,m,3
16,12,20,m,1,1,15,1413,8,702,0,b,m,5
16,13,20,m,1,1,15,1414,1,488,0,b,m,0
16,14,20,m,1,1,15,1415,8,641,1,b,m,8
16,15,20,m,1,1,15,1416,3,575,1,b,m,3
16,16,20,m,1,1,15,1417,6,343,0,b,m,0
16,17,20,m,1,1,15,1418,7,496,0,b,m,5
16,18,20,m,1,1,15,1419,7,666,1,b,m,7
16,19,20,m,1,1,15,1420,3,606,0,b,m,2
16,20,20,m,1,1,15,1421,8,674,0,b,m,5
16,21,20,m,1,1,15,1422,1,871,1,b,m,1
16,22,20,m,1,1,15,1423,8,918,0,b,m,2
16,23,20,m,1,1,15,1424,8,88,1,b,m,8
16,24,20,m,1,1,15,1425,2,318,1,b,m,2
16,25,20,m,1,1,15,1426,1,314,0,b,m,7
16,26,20,m,1,1,15,1427,7,525,0,b,m,5
16,27,20,m,1,1,15,1428,3,473,0,b,m,8
16,28,20,m,1,1,15,1429,2,1,1,b,m,2
16,29,20,m,1,1,15,1430,0,696,1,b,m,0
16,30,20,m,1,1,15,1431,8,352,1,b,m,8
16,31,20,m,1,1,15,1432,8,462,1,b,m,8
16,32,20,m,1,1,15,1433,1,425,0,b,m,2
16,33,20,m,1,1,15,1434,1,252,1,b,m,1
16,34,20,m,1,1,15,1435,8,382,1,b,m,8
16,35,20,m,1,1,15,1436,1,539,0,b,m,6
16,36,20,m,1,1,15,1437,8,343,0,b,m,7
16,37,20,m,1,1,15,1438,6,308,1,b,m,6
16,38,20,m,1,1,15,1439,6,29,1,b,m,6
16,39,20,m,1,1,15,1440,7,366,1,b,m,7
16,40,20,m,1,1,15,1441,1,923,0,b,m,2
16,41,20,m,1,1,15,1442,1,823,0,b,m,2
16,42,20,m,1,1,15,1443,3,564,0,b,m,4
16,43,20,m,1,1,15,1444,0,247,1,b,m,0
16,44,20,m,1,1,15,1445,3,1093,0,b,m,1
16,45,20,m,1,1,15,1446,4,334,1,b,m,4
16,46,20,m,1,1,15,1447,1,461,1,b,m,1
16,47,20,m,1,1,15,1448,3,171,1,b,m,3
16,48,20,m,1,1,15,1449,4,136,1,b,m,4
16,49,20,m,1,1,15,1450,3,1073,1,b,m,3
16,50,20,m,1,1,15,1451,1,379,1,b,m,1
16,51,20,m,1,1,15,1452,5,317,1,b,m,5
16,52,20,m,1,1,15,1453,4,98,1,b,m,4
16,53,20,m,1,1,15,1454,6,568,1,b,m,6
16,54,20,m,1,1,15,1455,5,383,1,b,m,5
16,55,20,m,1,1,15,1456,1,511,0,b,m,8
16,56,20,m,1,1,15,1457,2,943,0,b,m,6
16,57,20,m,1,1,15,1458,0,492,0,b,m,8
16,58,20,m,1,1,15,1459,0,119,1,b,m,0
16,59,20,m,1,1,15,1460,5,618,1,b,m,5
16,60,20,m,1,1,15,1461,0,502,0,b,m,3
16,61,20,m,1,1,15,1462,6,203,1,b,m,6
16,62,20,m,1,1,15,1463,2,299,0,b,m,4
16,63,20,m,1,1,15,1464,7,1055,0,b,m,0
16,64,20,m,1,1,15,1465,1,1050,0,b,m,8
16,65,20,m,1,1,15,1466,0,351,0,b,m,4
16,66,20,m,1,1,15,1467,5,421,1,b,m,5
16,67,20,m,1,1,15,1468,1,452,0,b,m,7
16,68,20,m,1,1,15,1469,5,567,0,b,m,6
16,69,20,m,1,1,15,1470,2,1672,0,b,m,5
16,70,20,m,1,1,15,1471,5,0,1,b,m,5
16,71,20,m,1,1,15,1472,8,463,1,b,m,8
16,72,20,m,1,1,15,1473,7,134,1,b,m,7
16,73,20,m,1,1,15,1474,2,85,1,b,m,2
16,74,20,m,1,1,15,1475,7,274,1,b,m,7
16,75,20,m,1,1,15,1476,1,250,0,b,m,4
16,76,20,m,1,1,15,1477,0,154,1,b,m,0
16,77,20,m,1,1,15,1478,7,389,1,b,m,7
16,78,20,m,1,1,15,1479,3,309,1,b,m,3
16,79,20,m,1,1,15,1480,2,132,1,b,m,2
16,80,20,m,1,1,15,1481,7,179,1,b,m,7
16,81,20,m,1,1,15,1482,8,1,1,b,m,8
16,82,20,m,1,1,15,1483,3,635,0,b,m,5
16,83,20,m,1,1,15,1484,7,381,0,b,m,5
16,84,20,m,1,1,15,1485,3,1,1,b,m,3
16,85,20,m,1,1,15,1486,7,703,1,b,m,7
16,86,20,m,1,1,15,1487,6,87,1,b,m,6
16,87,20,m,1,1,15,1488,4,0,1,b,m,4
16,88,20,m,1,1,15,1489,2,71,1,b,m,2
16,89,20,m,1,1,15,1490,4,311,1,b,m,4
16,90,20,m,1,1,15,1491,7,466,1,b,m,7
16,91,20,m,1,1,15,1492,4,389,0,b,m,0
16,92,20,m,1,1,15,1493,6,478,0,b,m,7
16,93,20,m,1,1,15,1494,4,100,1,b,m,4
16,94,20,m,1,1,15,1495,8,245,0,b,m,2
16,95,20,m,1,1,15,1496,8,288,0,b,m,2
16,96,20,m,1,1,15,1497,0,670,0,b,m,7
16,97,20,m,1,1,15,1498,7,272,1,b,m,7
16,98,20,m,1,1,15,1499,3,122,0,b,m,4
16,99,20,m,1,1,15,1500,2,441,0,b,m,8
17,0,20,f,1,1,16,1501,7,14952,0,y,m,8
17,1,20,f,1,1,16,1502,6,721,0,y,m,1
17,2,20,f,1,1,16,1503,6,460,1,y,m,6
17,3,20,f,1,1,16,1504,4,564,1,y,m,4
17,4,20,f,1,1,16,1505,1,458,0,y,m,2
17,5,20,f,1,1,16,1506,8,561,1,y,m,8
17,6,20,f,1,1,16,1507,4,477,1,y,m,4
17,7,20,f,1,1,16,1508,8,469,0,y,m,1
17,8,20,f,1,1,16,1509,1,600,0,y,m,7
17,9,20,f,1,1,16,1510,1,509,0,y,m,0
17,10,20,f,1,1,16,1511,4,368,1,y,m,4
17,11,20,f,1,1,16,1512,6,349,1,y,m,6
17,12,20,f,1,1,16,1513,1,201,0,y,m,0
17,13,20,f,1,1,16,1514,6,165,1,y,m,6
17,14,20,f,1,1,16,1515,1,668,0,y,m,8
17,15,20,f,1,1,16,1516,2,391,0,y,m,6
17,16,20,f,1,1,16,1517,1,410,1,y,m,1
17,17,20,f,1,1,16,1518,1,422,0,y,m,2
17,18,20,f,1,1,16,1519,5,355,0,y,m,2
17,19,20,f,1,1,16,1520,6,778,0,y,m,3
17,20,20,f,1,1,16,1521,8,386,1,y,m,8
17,21,20,f,1,1,16,1522,1,668,1,y,m,1
17,22,20,f,1,1,16,1523,1,235,1,y,m,1
17,23,20,f,1,1,16,1524,3,1659,0,y,m,6
17,24,20,f,1,1,16,1525,2,736,0,y,m,6
17,25,20,f,1,1,16,1526,0,247,1,y,m,0
17,26,20,f,1,1,16,1527,4,333,1,y,m,4
17,27,20,f,1,1,16,1528,1,506,1,y,m,1
17,28,20,f,1,1,16,1529,8,1073,1,y,m,8
17,29,20,f,1,1,16,1530,0,312,1,y,m,0
17,30,20,f,1,1,16,1531,6,300,1,y,m,6
17,31,20,f,1,1,16,1532,6,916,0,y,m,4
17,32,20,f,1,1,16,1533,0,424,1,y,m,0
17,33,20,f,1,1,16,1534,7,260,1,y,m,7
17,34,20,f,1,1,16,1535,2,404,0,y,m,4
17,35,20,f,1,1,16,1536,8,678,1,y,m,8
17,36,20,f,1,1,16,1537,8,110,1,y,m,8
17,37,20,f,1,1,16,1538,0,312,1,y,m,0
17,38,20,f,1,1,16,1539,2,446,1,y,m,2
17,39,20,f,1,1,16,1540,3,907,0,y,m,5
17,40,20,f,1,1,16,1541,2,294,1,y,m,2
17,41,20,f,1,1,16,1542,6,508,1,y,m,6
17,42,20,f,1,1,16,1543,3,126,1,y,m,3
17,43,20,f,1,1,16,1544,1,261,1,y,m,1
17,44,20,f,1,1,16,1545,5,122,1,y,m,5
17,45,20,f,1,1,16,1546,4,2084,0,y,m,8
17,46,20,f,1,1,16,1547,1,186,1,y,m,1
17,47,20,f,1,1,16,1548,0,2565,1,y,m,0
17,48,20,f,1,1,16,1549,5,367,0,y,m,2
17,49,20,f,1,1,16,1550,4,420,0,y,m,5
17,50,20,f,1,1,16,1551,1,312,0,y,m,7
17,51,20,f,1,1,16,1552,8,0,1,y,m,8
17,52,20,f,1,1,16,1553,6,376,0,y,m,5
17,53,20,f,1,1,16,1554,7,259,1,y,m,7
17,54,20,f,1,1,16,1555,8,32,1,y,m,8
17,55,20,f,1,1,16,1556,0,1114,0,y,m,2
17,56,20,f,1,1,16,1557,2,475,0,y,m,4
17,57,20,f,1,1,16,1558,4,684,1,y,m,4
17,58,20,f,1,1,16,1559,4,359,1,y,m,4
17,59,20,f,1,1,16,1560,5,521,0,y,m,7
17,60,20,f,1,1,16,1561,6,271,1,y,m,6
17,61,20,f,1,1,16,1562,7,640,1,y,m,7
17,62,20,f,1,1,16,1563,6,391,1,y,m,6
17,63,20,f,1,1,16,1564,8,1429,1,y,m,8
17,64,20,f,1,1,16,1565,0,335,1,y,m,0
17,65,20,f,1,1,16,1566,5,750,0,y,m,4
17,66,20,f,1,1,16,1567,8,1419,1,y,m,8
17,67,20,f,1,1,16,1568,2,285,1,y,m,2
17,68,20,f,1,1,16,1569,6,216,0,y,m,3
17,69,20,f,1,1,16,1570,3,414,1,y,m,3
17,70,20,f,1,1,16,1571,5,857,0,y,m,4
17,71,20,f,1,1,16,1572,1,727,1,y,m,1
17,72,20,f,1,1,16,1573,8,100,1,y,m,8
17,73,20,f,1,1,16,1574,5,714,0,y,m,7
17,74,20,f,1,1,16,1575,1,413,0,y,m,2
17,75,20,f,1,1,16,1576,0,484,0,y,m,5
17,76,20,f,1,1,16,1577,5,596,0,y,m,4
17,77,20,f,1,1,16,1578,2,317,0,y,m,3
17,78,20,f,1,1,16,1579,6,175,1,y,m,6
17,79,20,f,1,1,16,1580,5,942,0,y,m,2
17,80,20,f,1,1,16,1581,0,64,1,y,m,0
17,81,20,f,1,1,16,1582,4,486,0,y,m,0
17,82,20,f,1,1,16,1583,6,469,1,y,m,6
17,83,20,f,1,1,16,1584,8,104,1,y,m,8
17,84,20,f,1,1,16,1585,7,571,0,y,m,6
17,85,20,f,1,1,16,1586,6,523,0,y,m,5
17,86,20,f,1,1,16,1587,2,506,0,y,m,3
17,87,20,f,1,1,16,1588,6,965,1,y,m,6
17,88,20,f,1,1,16,1589,0,447,1,y,m,0
17,89,20,f,1,1,16,1590,6,88,1,y,m,6
17,90,20,f,1,1,16,1591,6,422,0,y,m,2
17,91,20,f,1,1,16,1592,4,488,0,y,m,5
17,92,20,f,1,1,16,1593,6,442,0,y,m,3
17,93,20,f,1,1,16,1594,7,556,0,y,m,5
17,94,20,f,1,1,16,1595,0,668,0,y,m,7
17,95,20,f,1,1,16,1596,5,440,1,y,m,5
17,96,20,f,1,1,16,1597,0,415,0,y,m,5
17,97,20,f,1,1,16,1598,5,465,0,y,m,3
17,98,20,f,1,1,16,1599,2,752,1,y,m,2
17,99,20,f,1,1,16,1600,5,889,0,y,m,1
18,0,19,f,1,1,17,1601,7,2167,0,b,f,8
18,1,19,f,1,1,17,1602,8,1020,1,b,f,8
18,2,19,f,1,1,17,1603,1,1084,0,b,f,0
18,3,19,f,1,1,17,1604,6,581,1,b,f,6
18,4,19,f,1,1,17,1605,6,177,1,b,f,6
18,5,19,f,1,1,17,1606,3,945,0,b,f,2
18,6,19,f,1,1,17,1607,5,1158,1,b,f,5
18,7,19,f,1,1,17,1608,6,421,1,b,f,6
18,8,19,f,1,1,17,1609,3,1253,0,b,f,4
18,9,19,f,1,1,17,1610,1,180,1,b,f,1
18,10,19,f,1,1,17,1611,6,170,1,b,f,6
18,11,19,f,1,1,17,1612,5,1366,0,b,f,4
18,12,19,f,1,1,17,1613,3,544,1,b,f,3
18,13,19,f,1,1,17,1614,7,949,1,b,f,7
18,14,19,f,1,1,17,1615,8,261,1,b,f,8
18,15,19,f,1,1,17,1616,1,150,1,b,f,1
18,16,19,f,1,1,17,1617,6,490,1,b,f,6
18,17,19,f,1,1,17,1618,7,885,1,b,f,7
18,18,19,f,1,1,17,1619,5,591,1,b,f,5
18,19,19,f,1,1,17,1620,3,3115,0,b,f,2
18,20,19,f,1,1,17,1621,4,832,0,b,f,6
18,21,19,f,1,1,17,1622,1,344,1,b,f,1
18,22,19,f,1,1,17,1623,5,1028,0,b,f,3
18,23,19,f,1,1,17,1624,7,299,1,b,f,7
18,24,19,f,1,1,17,1625,6,623,0,b,f,3
18,25,19,f,1,1,17,1626,0,904,0,b,f,3
18,26,19,f,1,1,17,1627,3,739,0,b,f,1
18,27,19,f,1,1,17,1628,8,2693,0,b,f,2
18,28,19,f,1,1,17,1629,8,497,1,b,f,8
18,29,19,f,1,1,17,1630,3,1259,0,b,f,4
18,30,19,f,1,1,17,1631,2,467,1,b,f,2
18,31,19,f,1,1,17,1632,0,337,1,b,f,0
18,32,19,f,1,1,17,1633,8,795,0,b,f,4
18,33,19,f,1,1,17,1634,2,547,1,b,f,2
18,34,19,f,1,1,17,1635,8,429,1,b,f,8
18,35,19,f,1,1,17,1636,4,668,1,b,f,4
18,36,19,f,1,1,17,1637,3,832,1,b,f,3
18,37,19,f,1,1,17,1638,5,776,1,b,f,5
18,38,19,f,1,1,17,1639,5,1913,1,b,f,5
18,39,19,f,1,1,17,1640,5,108,1,b,f,5
18,40,19,f,1,1,17,1641,0,1626,0,b,f,6
18,41,19,f,1,1,17,1642,8,497,1,b,f,8
18,42,19,f,1,1,17,1643,6,292,1,b,f,6
18,43,19,f,1,1,17,1644,1,193,1,b,f,1
18,44,19,f,1,1,17,1645,5,949,1,b,f,5
18,45,19,f,1,1,17,1646,6,226,1,b,f,6
18,46,19,f,1,1,17,1647,0,35,1,b,f,0
18,47,19,f,1,1,17,1648,0,202,1,b,f,0
18,48,19,f,1,1,17,1649,7,1361,1,b,f,7
18,49,19,f,1,1,17,1650,0,412,0,b,f,2
18,50,19,f,1,1,17,1651,3,467,0,b,f,6
18,51,19,f,1,1,17,1652,6,492,1,b,f,6
18,52,19,f,1,1,17,1653,2,755,1,b,f,2
18,53,19,f,1,1,17,1654,0,371,1,b,f,0
18,54,19,f,1,1,17,1655,8,342,1,b,f,8
18,55,19,f,1,1,17,1656,0,534,0,b,f,5
18,56,19,f,1,1,17,1657,5,406,0,b,f,6
18,57,19,f,1,1,17,1658,7,1215,1,b,f,7
18,58,19,f,1,1,17,1659,6,549,0,b,f,4
18,59,19,f,1,1,17,1660,5,601,1,b,f,5
18,60,19,f,1,1,17,1661,4,826,0,b,f,2
18,61,19,f,1,1,17,1662,5,574,0,b,f,0
18,62,19,f,1,1,17,1663,7,207,1,b,f,7
18,63,19,f,1,1,17,1664,7,128,1,b,f,7
18,64,19,f,1,1,17,1665,2,720,0,b,f,0
18,65,19,f,1,1,17,1666,4,922,1,b,f,4
18,66,19,f,1,1,17,1667,5,508,1,b,f,5
18,67,19,f,1,1,17,1668,2,733,1,b,f,2
18,68,19,f,1,1,17,1669,5,281,1,b,f,5
18,69,19,f,1,1,17,1670,7,246,1,b,f,7
18,70,19,f,1,1,17,1671,6,100,1,b,f,6
18,71,19,f,1,1,17,1672,2,648,0,b,f,1
18,72,19,f,1,1,17,1673,0,620,1,b,f,0
18,73,19,f,1,1,17,1674,3,559,0,b,f,6
18,74,19,f,1,1,17,1675,3,273,1,b,f,3
18,75,19,f,1,1,17,1676,2,1274,0,b,f,7
18,76,19,f,1,1,17,1677,0,2030,0,b,f,3
18,77,19,f,1,1,17,1678,6,789,0,b,f,1
18,78,19,f,1,1,17,1679,0,355,1,b,f,0
18,79,19,f,1,1,17,1680,4,258,1,b,f,4
18,80,19,f,1,1,17,1681,2,162,1,b,f,2
18,81,19,f,1,1,17,1682,3,123,1,b,f,3
18,82,19,f,1,1,17,1683,4,216,1,b,f,4
18,83,19,f,1,1,17,1684,2,364,1,b,f,2
18,84,19,f,1,1,17,1685,7,273,0,b,f,6
18,85,19,f,1,1,17,1686,2,402,0,b,f,3
18,86,19,f,1,1,17,1687,6,971,0,b,f,8
18,87,19,f,1,1,17,1688,6,914,0,b,f,4
18,88,19,f,1,1,17,1689,0,327,1,b,f,0
18,89,19,f,1,1,17,1690,8,791,1,b,f,8
18,90,19,f,1,1,17,1691,7,250,1,b,f,7
18,91,19,f,1,1,17,1692,1,633,1,b,f,1
18,92,19,f,1,1,17,1693,8,279,1,b,f,8
18,93,19,f,1,1,17,1694,3,1518,0,b,f,4
18,94,19,f,1,1,17,1695,2,689,1,b,f,2
18,95,19,f,1,1,17,1696,0,532,1,b,f,0
18,96,19,f,1,1,17,1697,0,503,0,b,f,4
18,97,19,f,1,1,17,1698,6,686,0,b,f,1
18,98,19,f,1,1,17,1699,2,868,0,b,f,6
18,99,19,f,1,1,17,1700,1,280,1,b,f,1
19,0,18,f,1,1,18,1701,8,4272,1,y,f,8
19,1,18,f,1,1,18,1702,3,1329,1,y,f,3
19,2,18,f,1,1,18,1703,2,1131,1,y,f,2
19,3,18,f,1,1,18,1704,3,662,1,y,f,3
19,4,18,f,1,1,18,1705,8,881,1,y,f,8
19,5,18,f,1,1,18,1706,8,397,0,y,f,1
19,6,18,f,1,1,18,1707,0,545,0,y,f,5
19,7,18,f,1,1,18,1708,7,657,1,y,f,7
19,8,18,f,1,1,18,1709,6,2075,0,y,f,7
19,9,18,f,1,1,18,1710,2,1081,0,y,f,0
19,10,18,f,1,1,18,1711,1,657,1,y,f,1
19,11,18,f,1,1,18,1712,3,857,0,y,f,5
19,12,18,f,1,1,18,1713,1,686,0,y,f,7
19,13,18,f,1,1,18,1714,7,533,0,y,f,6
19,14,18,f,1,1,18,1715,3,764,0,y,f,2
19,15,18,f,1,1,18,1716,3,998,0,y,f,6
19,16,18,f,1,1,18,1717,1,943,0,y,f,2
19,17,18,f,1,1,18,1718,3,1031,1,y,f,3
19,18,18,f,1,1,18,1719,0,166,0,y,f,7
19,19,18,f,1,1,18,1720,7,704,0,y,f,4
19,20,18,f,1,1,18,1721,8,865,0,y,f,3
19,21,18,f,1,1,18,1722,0,185,1,y,f,0
19,22,18,f,1,1,18,1723,8,112,1,y,f,8
19,23,18,f,1,1,18,1724,2,909,1,y,f,2
19,24,18,f,1,1,18,1725,0,698,1,y,f,0
19,25,18,f,1,1,18,1726,2,1178,1,y,f,2
19,26,18,f,1,1,18,1727,2,421,1,y,f,2
19,27,18,f,1,1,18,1728,7,557,0,y,f,0
19,28,18,f,1,1,18,1729,3,582,1,y,f,3
19,29,18,f,1,1,18,1730,7,493,0,y,f,4
19,30,18,f,1,1,18,1731,7,396,1,y,f,7
19,31,18,f,1,1,18,1732,3,530,1,y,f,3
19,32,18,f,1,1,18,1733,7,573,0,y,f,8
19,33,18,f,1,1,18,1734,3,155,1,y,f,3
19,34,18,f,1,1,18,1735,3,636,0,y,f,6
19,35,18,f,1,1,18,1736,6,495,0,y,f,3
19,36,18,f,1,1,18,1737,6,458,0,y,f,8
19,37,18,f,1,1,18,1738,2,502,0,y,f,6
19,38,18,f,1,1,18,1739,2,182,1,y,f,2
19,39,18,f,1,1,18,1740,7,737,1,y,f,7
19,40,18,f,1,1,18,1741,3,700,0,y,f,4
19,41,18,f,1,1,18,1742,1,602,1,y,f,1
19,42,18,f,1,1,18,1743,1,594,1,y,f,1
19,43,18,f,1,1,18,1744,7,1176,0,y,f,5
19,44,18,f,1,1,18,1745,6,632,1,y,f,6
19,45,18,f,1,1,18,1746,8,387,1,y,f,8
19,46,18,f,1,1,18,1747,8,485,1,y,f,8
19,47,18,f,1,1,18,1748,5,649,1,y,f,5
19,48,18,f,1,1,18,1749,8,814,0,y,f,1
19,49,18,f,1,1,18,1750,2,532,0,y,f,8
19,50,18,f,1,1,18,1751,1,1429,0,y,f,0
19,51,18,f,1,1,18,1752,3,507,0,y,f,6
19,52,18,f,1,1,18,1753,5,649,0,y,f,7
19,53,18,f,1,1,18,1754,3,367,0,y,f,6
19,54,18,f,1,1,18,1755,5,773,0,y,f,6
19,55,18,f,1,1,18,1756,0,611,0,y,f,5
19,56,18,f,1,1,18,1757,7,97,1,y,f,7
19,57,18,f,1,1,18,1758,0,438,1,y,f,0
19,58,18,f,1,1,18,1759,2,969,1,y,f,2
19,59,18,f,1,1,18,1760,2,391,0,y,f,0
19,60,18,f,1,1,18,1761,3,359,0,y,f,4
19,61,18,f,1,1,18,1762,0,230,0,y,f,4
19,62,18,f,1,1,18,1763,1,441,1,y,f,1
19,63,18,f,1,1,18,1764,7,435,1,y,f,7
19,64,18,f,1,1,18,1765,1,776,0,y,f,5
19,65,18,f,1,1,18,1766,5,553,0,y,f,6
19,66,18,f,1,1,18,1767,1,982,1,y,f,1
19,67,18,f,1,1,18,1768,3,460,0,y,f,5
19,68,18,f,1,1,18,1769,7,373,0,y,f,5
19,69,18,f,1,1,18,1770,5,563,0,y,f,4
19,70,18,f,1,1,18,1771,3,355,1,y,f,3
19,71,18,f,1,1,18,1772,4,733,0,y,f,1
19,72,18,f,1,1,18,1773,0,379,0,y,f,3
19,73,18,f,1,1,18,1774,1,387,1,y,f,1
19,74,18,f,1,1,18,1775,4,493,0,y,f,6
19,75,18,f,1,1,18,1776,5,492,0,y,f,4
19,76,18,f,1,1,18,1777,3,210,1,y,f,3
19,77,18,f,1,1,18,1778,7,68,1,y,f,7
19,78,18,f,1,1,18,1779,8,595,0,y,f,2
19,79,18,f,1,1,18,1780,3,397,1,y,f,3
19,80,18,f,1,1,18,1781,6,454,0,y,f,4
19,81,18,f,1,1,18,1782,3,252,1,y,f,3
19,82,18,f,1,1,18,1783,4,1005,0,y,f,0
19,83,18,f,1,1,18,1784,3,244,1,y,f,3
19,84,18,f,1,1,18,1785,3,596,0,y,f,8
19,85,18,f,1,1,18,1786,3,366,1,y,f,3
19,86,18,f,1,1,18,1787,1,268,1,y,f,1
19,87,18,f,1,1,18,1788,3,358,0,y,f,6
19,88,18,f,1,1,18,1789,7,317,0,y,f,6
19,89,18,f,1,1,18,1790,4,359,1,y,f,4
19,90,18,f,1,1,18,1791,4,248,0,y,f,6
19,91,18,f,1,1,18,1792,3,311,0,y,f,1
19,92,18,f,1,1,18,1793,2,471,0,y,f,3
19,93,18,f,1,1,18,1794,6,389,1,y,f,6
19,94,18,f,1,1,18,1795,8,478,0,y,f,0
19,95,18,f,1,1,18,1796,7,487,0,y,f,4
19,96,18,f,1,1,18,1797,2,33,1,y,f,2
19,97,18,f,1,1,18,1798,1,276,1,y,f,1
19,98,18,f,1,1,18,1799,3,483,0,y,f,5
19,99,18,f,1,1,18,1800,4,416,1,y,f,4
21,0,24,f,1,1,19,1801,4,2499,0,b,m,3
21,1,24,f,1,1,19,1802,2,2558,0,b,m,0
21,2,24,f,1,1,19,1803,6,2949,0,b,m,0
21,3,24,f,1,1,19,1804,1,960,1,b,m,1
21,4,24,f,1,1,19,1805,3,2454,1,b,m,3
21,5,24,f,1,1,19,1806,6,681,1,b,m,6
21,6,24,f,1,1,19,1807,3,737,0,b,m,0
21,7,24,f,1,1,19,1808,5,490,1,b,m,5
21,8,24,f,1,1,19,1809,2,948,0,b,m,6
21,9,24,f,1,1,19,1810,3,818,1,b,m,3
21,10,24,f,1,1,19,1811,5,1232,1,b,m,5
21,11,24,f,1,1,19,1812,6,1192,0,b,m,8
21,12,24,f,1,1,19,1813,1,614,0,b,m,7
21,13,24,f,1,1,19,1814,0,2129,0,b,m,2
21,14,24,f,1,1,19,1815,3,924,1,b,m,3
21,15,24,f,1,1,19,1816,7,1395,1,b,m,7
21,16,24,f,1,1,19,1817,4,599,1,b,m,4
21,17,24,f,1,1,19,1818,8,662,1,b,m,8
21,18,24,f,1,1,19,1819,2,1341,1,b,m,2
21,19,24,f,1,1,19,1820,2,1009,1,b,m,2
21,20,24,f,1,1,19,1821,7,874,1,b,m,7
21,21,24,f,1,1,19,1822,0,1226,0,b,m,1
21,22,24,f,1,1,19,1823,4,721,1,b,m,4
21,23,24,f,1,1,19,1824,6,1106,0,b,m,4
21,24,24,f,1,1,19,1825,8,466,1,b,m,8
21,25,24,f,1,1,19,1826,6,1066,1,b,m,6
21,26,24,f,1,1,19,1827,4,870,1,b,m,4
21,27,24,f,1,1,19,1828,0,305,1,b,m,0
21,28,24,f,1,1,19,1829,5,790,0,b,m,1
21,29,24,f,1,1,19,1830,6,970,0,b,m,7
21,30,24,f,1,1,19,1831,3,1099,0,b,m,1
21,31,24,f,1,1,19,1832,5,2405,1,b,m,5
21,32,24,f,1,1,19,1833,3,1298,0,b,m,1
21,33,24,f,1,1,19,1834,1,480,0,b,m,2
21,34,24,f,1,1,19,1835,7,751,0,b,m,5
21,35,24,f,1,1,19,1836,5,427,1,b,m,5
21,36,24,f,1,1,19,1837,6,486,1,b,m,6
21,37,24,f,1,1,19,1838,6,1050,0,b,m,8
21,38,24,f,1,1,19,1839,0,566,1,b,m,0
21,39,24,f,1,1,19,1840,2,720,1,b,m,2
21,40,24,f,1,1,19,1841,7,949,1,b,m,7
21,41,24,f,1,1,19,1842,3,915,1,b,m,3
21,42,24,f,1,1,19,1843,1,852,0,b,m,7
21,43,24,f,1,1,19,1844,0,801,0,b,m,4
21,44,24,f,1,1,19,1845,3,628,1,b,m,3
21,45,24,f,1,1,19,1846,4,798,1,b,m,4
21,46,24,f,1,1,19,1847,0,384,0,b,m,5
21,47,24,f,1,1,19,1848,2,581,0,b,m,6
21,48,24,f,1,1,19,1849,6,521,1,b,m,6
21,49,24,f,1,1,19,1850,6,765,1,b,m,6
21,50,24,f,1,1,19,1851,6,731,1,b,m,6
21,51,24,f,1,1,19,1852,2,3115,1,b,m,2
21,52,24,f,1,1,19,1853,1,798,0,b,m,4
21,53,24,f,1,1,19,1854,3,1031,1,b,m,3
21,54,24,f,1,1,19,1855,3,668,0,b,m,1
21,55,24,f,1,1,19,1856,3,1276,1,b,m,3
21,56,24,f,1,1,19,1857,6,933,1,b,m,6
21,57,24,f,1,1,19,1858,4,608,1,b,m,4
21,58,24,f,1,1,19,1859,8,641,1,b,m,8
21,59,24,f,1,1,19,1860,7,750,1,b,m,7
21,60,24,f,1,1,19,1861,6,939,1,b,m,6
21,61,24,f,1,1,19,1862,5,334,1,b,m,5
21,62,24,f,1,1,19,1863,2,1120,0,b,m,0
21,63,24,f,1,1,19,1864,6,621,0,b,m,2
21,64,24,f,1,1,19,1865,8,757,1,b,m,8
21,65,24,f,1,1,19,1866,2,713,1,b,m,2
21,66,24,f,1,1,19,1867,3,921,0,b,m,2
21,67,24,f,1,1,19,1868,0,471,1,b,m,0
21,68,24,f,1,1,19,1869,3,749,1,b,m,3
21,69,24,f,1,1,19,1870,3,719,1,b,m,3
21,70,24,f,1,1,19,1871,8,480,1,b,m,8
21,71,24,f,1,1,19,1872,4,1299,0,b,m,8
21,72,24,f,1,1,19,1873,7,551,1,b,m,7
21,73,24,f,1,1,19,1874,8,611,1,b,m,8
21,74,24,f,1,1,19,1875,3,517,0,b,m,0
21,75,24,f,1,1,19,1876,2,872,0,b,m,8
21,76,24,f,1,1,19,1877,0,1055,0,b,m,5
21,77,24,f,1,1,19,1878,4,402,1,b,m,4
21,78,24,f,1,1,19,1879,0,566,0,b,m,2
21,79,24,f,1,1,19,1880,1,1183,0,b,m,5
21,80,24,f,1,1,19,1881,2,372,1,b,m,2
21,81,24,f,1,1,19,1882,6,613,1,b,m,6
21,82,24,f,1,1,19,1883,7,484,1,b,m,7
21,83,24,f,1,1,19,1884,3,1264,0,b,m,4
21,84,24,f,1,1,19,1885,3,1065,1,b,m,3
21,85,24,f,1,1,19,1886,0,997,0,b,m,8
21,86,24,f,1,1,19,1887,1,535,1,b,m,1
21,87,24,f,1,1,19,1888,8,564,1,b,m,8
21,88,24,f,1,1,19,1889,7,1112,0,b,m,3
21,89,24,f,1,1,19,1890,8,818,1,b,m,8
21,90,24,f,1,1,19,1891,0,1132,0,b,m,6
21,91,24,f,1,1,19,1892,5,659,0,b,m,7
21,92,24,f,1,1,19,1893,7,550,1,b,m,7
21,93,24,f,1,1,19,1894,6,802,1,b,m,6
21,94,24,f,1,1,19,1895,1,616,1,b,m,1
21,95,24,f,1,1,19,1896,4,342,1,b,m,4
21,96,24,f,1,1,19,1897,5,519,1,b,m,5
21,97,24,f,1,1,19,1898,6,683,1,b,m,6
21,98,24,f,1,1,19,1899,7,378,1,b,m,7
21,99,24,f,1,1,19,1900,5,510,1,b,m,5
22,0,19,f,1,1,20,1901,5,2349,0,b,f,1
22,1,19,f,1,1,20,1902,5,939,1,b,f,5
22,2,19,f,1,1,20,1903,0,506,1,b,f,0
22,3,19,f,1,1,20,1904,1,604,1,b,f,1
22,4,19,f,1,1,20,1905,1,725,1,b,f,1
22,5,19,f,1,1,20,1906,8,841,1,b,f,8
22,6,19,f,1,1,20,1907,7,861,0,b,f,3
22,7,19,f,1,1,20,1908,2,850,0,b,f,8
22,8,19,f,1,1,20,1909,0,984,1,b,f,0
22,9,19,f,1,1,20,1910,1,2409,0,b,f,3
22,10,19,f,1,1,20,1911,7,367,1,b,f,7
22,11,19,f,1,1,20,1912,8,562,1,b,f,8
22,12,19,f,1,1,20,1913,0,384,0,b,f,1
22,13,19,f,1,1,20,1914,0,475,1,b,f,0
22,14,19,f,1,1,20,1915,6,409,1,b,f,6
22,15,19,f,1,1,20,1916,6,215,1,b,f,6
22,16,19,f,1,1,20,1917,5,378,1,b,f,5
22,17,19,f,1,1,20,1918,4,711,1,b,f,4
22,18,19,f,1,1,20,1919,4,978,0,b,f,0
22,19,19,f,1,1,20,1920,4,333,1,b,f,4
22,20,19,f,1,1,20,1921,3,680,1,b,f,3
22,21,19,f,1,1,20,1922,2,523,1,b,f,2
22,22,19,f,1,1,20,1923,1,1186,0,b,f,7
22,23,19,f,1,1,20,1924,1,937,1,b,f,1
22,24,19,f,1,1,20,1925,4,178,1,b,f,4
22,25,19,f,1,1,20,1926,6,691,1,b,f,6
22,26,19,f,1,1,20,1927,8,489,0,b,f,6
22,27,19,f,1,1,20,1928,7,823,1,b,f,7
22,28,19,f,1,1,20,1929,0,484,0,b,f,4
22,29,19,f,1,1,20,1930,3,345,1,b,f,3
22,30,19,f,1,1,20,1931,2,788,0,b,f,3
22,31,19,f,1,1,20,1932,7,610,0,b,f,8
22,32,19,f,1,1,20,1933,7,595,1,b,f,7
22,33,19,f,1,1,20,1934,3,581,1,b,f,3
22,34,19,f,1,1,20,1935,6,1515,0,b,f,7
22,35,19,f,1,1,20,1936,5,588,0,b,f,3
22,36,19,f,1,1,20,1937,7,851,1,b,f,7
22,37,19,f,1,1,20,1938,2,691,1,b,f,2
22,38,19,f,1,1,20,1939,8,1994,0,b,f,1
22,39,19,f,1,1,20,1940,3,728,0,b,f,2
22,40,19,f,1,1,20,1941,3,265,1,b,f,3
22,41,19,f,1,1,20,1942,5,652,0,b,f,7
22,42,19,f,1,1,20,1943,3,397,1,b,f,3
22,43,19,f,1,1,20,1944,5,160,1,b,f,5
22,44,19,f,1,1,20,1945,2,363,1,b,f,2
22,45,19,f,1,1,20,1946,6,1473,1,b,f,6
22,46,19,f,1,1,20,1947,7,719,1,b,f,7
22,47,19,f,1,1,20,1948,1,476,1,b,f,1
22,48,19,f,1,1,20,1949,6,708,0,b,f,7
22,49,19,f,1,1,20,1950,3,559,1,b,f,3
22,50,19,f,1,1,20,1951,1,658,1,b,f,1
22,51,19,f,1,1,20,1952,8,273,1,b,f,8
22,52,19,f,1,1,20,1953,7,842,0,b,f,8
22,53,19,f,1,1,20,1954,2,397,1,b,f,2
22,54,19,f,1,1,20,1955,0,580,0,b,f,2
22,55,19,f,1,1,20,1956,6,253,1,b,f,6
22,56,19,f,1,1,20,1957,5,64,0,b,f,1
22,57,19,f,1,1,20,1958,4,701,1,b,f,4
22,58,19,f,1,1,20,1959,1,508,0,b,f,4
22,59,19,f,1,1,20,1960,4,362,1,b,f,4
22,60,19,f,1,1,20,1961,6,183,1,b,f,6
22,61,19,f,1,1,20,1962,2,376,1,b,f,2
22,62,19,f,1,1,20,1963,7,418,1,b,f,7
22,63,19,f,1,1,20,1964,5,362,1,b,f,5
22,64,19,f,1,1,20,1965,6,137,1,b,f,6
22,65,19,f,1,1,20,1966,3,374,1,b,f,3
22,66,19,f,1,1,20,1967,2,89,1,b,f,2
22,67,19,f,1,1,20,1968,0,240,1,b,f,0
22,68,19,f,1,1,20,1969,0,328,0,b,f,3
22,69,19,f,1,1,20,1970,7,278,1,b,f,7
22,70,19,f,1,1,20,1971,4,50,1,b,f,4
22,71,19,f,1,1,20,1972,4,21,1,b,f,4
22,72,19,f,1,1,20,1973,1,442,0,b,f,4
22,73,19,f,1,1,20,1974,6,853,0,b,f,7
22,74,19,f,1,1,20,1975,7,913,0,b,f,2
22,75,19,f,1,1,20,1976,5,160,1,b,f,5
22,76,19,f,1,1,20,1977,2,143,0,b,f,5
22,77,19,f,1,1,20,1978,5,0,0,b,f,3
22,78,19,f,1,1,20,1979,5,417,0,b,f,6
22,79,19,f,1,1,20,1980,5,371,0,b,f,1
22,80,19,f,1,1,20,1981,7,411,1,b,f,7
22,81,19,f,1,1,20,1982,7,504,0,b,f,6
22,82,19,f,1,1,20,1983,0,600,1,b,f,0
22,83,19,f,1,1,20,1984,5,31,1,b,f,5
22,84,19,f,1,1,20,1985,4,223,1,b,f,4
22,85,19,f,1,1,20,1986,7,373,1,b,f,7
22,86,19,f,1,1,20,1987,0,547,1,b,f,0
22,87,19,f,1,1,20,1988,8,298,1,b,f,8
22,88,19,f,1,1,20,1989,3,133,1,b,f,3
22,89,19,f,1,1,20,1990,3,1029,0,b,f,0
22,90,19,f,1,1,20,1991,4,269,1,b,f,4
22,91,19,f,1,1,20,1992,1,481,0,b,f,3
22,92,19,f,1,1,20,1993,7,144,1,b,f,7
22,93,19,f,1,1,20,1994,7,139,1,b,f,7
22,94,19,f,1,1,20,1995,0,415,1,b,f,0
22,95,19,f,1,1,20,1996,1,345,0,b,f,6
22,96,19,f,1,1,20,1997,6,606,0,b,f,0
22,97,19,f,1,1,20,1998,0,1,1,b,f,0
22,98,19,f,1,1,20,1999,6,377,1,b,f,6
22,99,19,f,1,1,20,2000,0,980,0,b,f,8
23,0,24,m,1,1,21,2001,3,1642,0,y,f,4
23,1,24,m,1,1,21,2002,7,643,0,y,f,1
23,2,24,m,1,1,21,2003,4,2969,0,y,f,2
23,3,24,m,1,1,21,2004,5,777,0,y,f,7
23,4,24,m,1,1,21,2005,1,1219,0,y,f,4
23,5,24,m,1,1,21,2006,2,730,0,y,f,4
23,6,24,m,1,1,21,2007,8,1493,1,y,f,8
23,7,24,m,1,1,21,2008,8,763,1,y,f,8
23,8,24,m,1,1,21,2009,1,1563,0,y,f,3
23,9,24,m,1,1,21,2010,6,814,0,y,f,5
23,10,24,m,1,1,21,2011,1,847,0,y,f,2
23,11,24,m,1,1,21,2012,8,956,0,y,f,6
23,12,24,m,1,1,21,2013,6,1375,1,y,f,6
23,13,24,m,1,1,21,2014,1,1008,0,y,f,0
23,14,24,m,1,1,21,2015,7,1266,1,y,f,7
23,15,24,m,1,1,21,2016,4,502,1,y,f,4
23,16,24,m,1,1,21,2017,2,644,1,y,f,2
23,17,24,m,1,1,21,2018,8,1141,0,y,f,2
23,18,24,m,1,1,21,2019,8,665,0,y,f,5
23,19,24,m,1,1,21,2020,0,706,1,y,f,0
23,20,24,m,1,1,21,2021,7,357,1,y,f,7
23,21,24,m,1,1,21,2022,7,427,1,y,f,7
23,22,24,m,1,1,21,2023,7,299,1,y,f,7
23,23,24,m,1,1,21,2024,1,416,0,y,f,5
23,24,24,m,1,1,21,2025,1,586,0,y,f,2
23,25,24,m,1,1,21,2026,6,618,1,y,f,6
23,26,24,m,1,1,21,2027,6,939,1,y,f,6
23,27,24,m,1,1,21,2028,8,1233,0,y,f,7
23,28,24,m,1,1,21,2029,2,552,0,y,f,6
23,29,24,m,1,1,21,2030,6,738,0,y,f,5
23,30,24,m,1,1,21,2031,8,725,1,y,f,8
23,31,24,m,1,1,21,2032,5,463,1,y,f,5
23,32,24,m,1,1,21,2033,6,724,0,y,f,7
23,33,24,m,1,1,21,2034,6,1593,0,y,f,3
23,34,24,m,1,1,21,2035,7,466,1,y,f,7
23,35,24,m,1,1,21,2036,3,622,0,y,f,4
23,36,24,m,1,1,21,2037,0,583,0,y,f,4
23,37,24,m,1,1,21,2038,3,611,1,y,f,3
23,38,24,m,1,1,21,2039,6,274,1,y,f,6
23,39,24,m,1,1,21,2040,2,452,0,y,f,0
23,40,24,m,1,1,21,2041,5,409,1,y,f,5
23,41,24,m,1,1,21,2042,8,788,0,y,f,3
23,42,24,m,1,1,21,2043,0,422,1,y,f,0
23,43,24,m,1,1,21,2044,8,404,0,y,f,3
23,44,24,m,1,1,21,2045,8,617,0,y,f,7
23,45,24,m,1,1,21,2046,2,962,0,y,f,4
23,46,24,m,1,1,21,2047,2,1307,0,y,f,7
23,47,24,m,1,1,21,2048,1,358,1,y,f,1
23,48,24,m,1,1,21,2049,5,822,1,y,f,5
23,49,24,m,1,1,21,2050,2,466,1,y,f,2
23,50,24,m,1,1,21,2051,5,154,1,y,f,5
23,51,24,m,1,1,21,2052,8,387,0,y,f,7
23,52,24,m,1,1,21,2053,6,1619,0,y,f,0
23,53,24,m,1,1,21,2054,8,412,1,y,f,8
23,54,24,m,1,1,21,2055,6,616,0,y,f,5
23,55,24,m,1,1,21,2056,5,1211,0,y,f,1
23,56,24,m,1,1,21,2057,4,157,1,y,f,4
23,57,24,m,1,1,21,2058,5,736,1,y,f,5
23,58,24,m,1,1,21,2059,1,697,0,y,f,4
23,59,24,m,1,1,21,2060,8,549,0,y,f,6
23,60,24,m,1,1,21,2061,1,479,0,y,f,5
23,61,24,m,1,1,21,2062,3,1644,0,y,f,2
23,62,24,m,1,1,21,2063,6,582,0,y,f,4
23,63,24,m,1,1,21,2064,6,495,1,y,f,6
23,64,24,m,1,1,21,2065,8,91,1,y,f,8
23,65,24,m,1,1,21,2066,0,291,1,y,f,0
23,66,24,m,1,1,21,2067,2,733,0,y,f,8
23,67,24,m,1,1,21,2068,5,989,1,y,f,5
23,68,24,m,1,1,21,2069,6,162,1,y,f,6
23,69,24,m,1,1,21,2070,0,209,1,y,f,0
23,70,24,m,1,1,21,2071,7,160,1,y,f,7
23,71,24,m,1,1,21,2072,0,444,0,y,f,8
23,72,24,m,1,1,21,2073,7,331,1,y,f,7
23,73,24,m,1,1,21,2074,1,472,0,y,f,4
23,74,24,m,1,1,21,2075,6,358,1,y,f,6
23,75,24,m,1,1,21,2076,7,425,1,y,f,7
23,76,24,m,1,1,21,2077,8,1546,1,y,f,8
23,77,24,m,1,1,21,2078,6,712,0,y,f,3
23,78,24,m,1,1,21,2079,3,733,1,y,f,3
23,79,24,m,1,1,21,2080,1,546,0,y,f,3
23,80,24,m,1,1,21,2081,8,469,0,y,f,2
23,81,24,m,1,1,21,2082,7,926,0,y,f,1
23,82,24,m,1,1,21,2083,3,569,0,y,f,4
23,83,24,m,1,1,21,2084,1,163,1,y,f,1
23,84,24,m,1,1,21,2085,1,773,1,y,f,1
23,85,24,m,1,1,21,2086,7,390,1,y,f,7
23,86,24,m,1,1,21,2087,5,573,0,y,f,3
23,87,24,m,1,1,21,2088,6,225,1,y,f,6
23,88,24,m,1,1,21,2089,8,690,0,y,f,4
23,89,24,m,1,1,21,2090,6,609,0,y,f,4
23,90,24,m,1,1,21,2091,5,273,0,y,f,2
23,91,24,m,1,1,21,2092,0,0,1,y,f,0
23,92,24,m,1,1,21,2093,6,836,0,y,f,3
23,93,24,m,1,1,21,2094,2,808,1,y,f,2
23,94,24,m,1,1,21,2095,8,69,1,y,f,8
23,95,24,m,1,1,21,2096,6,484,0,y,f,1
23,96,24,m,1,1,21,2097,0,252,1,y,f,0
23,97,24,m,1,1,21,2098,6,403,1,y,f,6
23,98,24,m,1,1,21,2099,3,1099,0,y,f,0
23,99,24,m,1,1,21,2100,7,453,0,y,f,2
24,0,20,f,1,1,22,2101,4,1469,0,b,m,1
24,1,20,f,1,1,22,2102,3,1174,0,b,m,2
24,2,20,f,1,1,22,2103,5,743,1,b,m,5
24,3,20,f,1,1,22,2104,8,458,1,b,m,8
24,4,20,f,1,1,22,2105,6,555,0,b,m,4
24,5,20,f,1,1,22,2106,6,431,1,b,m,6
24,6,20,f,1,1,22,2107,2,346,1,b,m,2
24,7,20,f,1,1,22,2108,6,419,0,b,m,8
24,8,20,f,1,1,22,2109,8,681,0,b,m,0
24,9,20,f,1,1,22,2110,6,1180,0,b,m,5
24,10,20,f,1,1,22,2111,4,926,1,b,m,4
24,11,20,f,1,1,22,2112,7,580,0,b,m,1
24,12,20,f,1,1,22,2113,1,1478,1,b,m,1
24,13,20,f,1,1,22,2114,5,415,1,b,m,5
24,14,20,f,1,1,22,2115,0,401,0,b,m,4
24,15,20,f,1,1,22,2116,1,642,0,b,m,4
24,16,20,f,1,1,22,2117,8,537,0,b,m,3
24,17,20,f,1,1,22,2118,7,525,0,b,m,0
24,18,20,f,1,1,22,2119,7,806,1,b,m,7
24,19,20,f,1,1,22,2120,1,504,0,b,m,0
24,20,20,f,1,1,22,2121,0,628,0,b,m,3
24,21,20,f,1,1,22,2122,4,461,1,b,m,4
24,22,20,f,1,1,22,2123,3,616,1,b,m,3
24,23,20,f,1,1,22,2124,8,1509,0,b,m,2
24,24,20,f,1,1,22,2125,8,413,1,b,m,8
24,25,20,f,1,1,22,2126,6,500,1,b,m,6
24,26,20,f,1,1,22,2127,7,546,1,b,m,7
24,27,20,f,1,1,22,2128,2,640,1,b,m,2
24,28,20,f,1,1,22,2129,8,538,1,b,m,8
24,29,20,f,1,1,22,2130,2,1177,1,b,m,2
24,30,20,f,1,1,22,2131,5,243,1,b,m,5
24,31,20,f,1,1,22,2132,1,522,0,b,m,2
24,32,20,f,1,1,22,2133,2,561,1,b,m,2
24,33,20,f,1,1,22,2134,7,999,1,b,m,7
24,34,20,f,1,1,22,2135,7,324,1,b,m,7
24,35,20,f,1,1,22,2136,2,1897,1,b,m,2
24,36,20,f,1,1,22,2137,0,330,1,b,m,0
24,37,20,f,1,1,22,2138,3,691,1,b,m,3
24,38,20,f,1,1,22,2139,2,518,0,b,m,0
24,39,20,f,1,1,22,2140,3,234,1,b,m,3
24,40,20,f,1,1,22,2141,1,583,0,b,m,6
24,41,20,f,1,1,22,2142,4,232,1,b,m,4
24,42,20,f,1,1,22,2143,7,417,1,b,m,7
24,43,20,f,1,1,22,2144,8,189,1,b,m,8
24,44,20,f,1,1,22,2145,8,843,0,b,m,0
24,45,20,f,1,1,22,2146,5,121,1,b,m,5
24,46,20,f,1,1,22,2147,4,328,1,b,m,4
24,47,20,f,1,1,22,2148,7,482,0,b,m,8
24,48,20,f,1,1,22,2149,0,471,1,b,m,0
24,49,20,f,1,1,22,2150,8,351,1,b,m,8
24,50,20,f,1,1,22,2151,6,738,0,b,m,7
24,51,20,f,1,1,22,2152,1,332,0,b,m,0
24,52,20,f,1,1,22,2153,5,170,1,b,m,5
24,53,20,f,1,1,22,2154,6,3258,0,b,m,0
24,54,20,f,1,1,22,2155,3,359,1,b,m,3
24,55,20,f,1,1,22,2156,4,657,0,b,m,8
24,56,20,f,1,1,22,2157,7,466,0,b,m,6
24,57,20,f,1,1,22,2158,3,327,1,b,m,3
24,58,20,f,1,1,22,2159,0,3116,1,b,m,0
24,59,20,f,1,1,22,2160,1,395,0,b,m,4
24,60,20,f,1,1,22,2161,2,434,1,b,m,2
24,61,20,f,1,1,22,2162,4,838,1,b,m,4
24,62,20,f,1,1,22,2163,5,318,1,b,m,5
24,63,20,f,1,1,22,2164,5,935,0,b,m,7
24,64,20,f,1,1,22,2165,1,451,1,b,m,1
24,65,20,f,1,1,22,2166,3,394,1,b,m,3
24,66,20,f,1,1,22,2167,8,323,1,b,m,8
24,67,20,f,1,1,22,2168,5,188,1,b,m,5
24,68,20,f,1,1,22,2169,3,117,1,b,m,3
24,69,20,f,1,1,22,2170,8,618,1,b,m,8
24,70,20,f,1,1,22,2171,4,223,1,b,m,4
24,71,20,f,1,1,22,2172,7,420,1,b,m,7
24,72,20,f,1,1,22,2173,4,566,0,b,m,1
24,73,20,f,1,1,22,2174,2,927,0,b,m,0
24,74,20,f,1,1,22,2175,8,630,1,b,m,8
24,75,20,f,1,1,22,2176,0,1043,0,b,m,7
24,76,20,f,1,1,22,2177,4,140,1,b,m,4
24,77,20,f,1,1,22,2178,1,464,0,b,m,7
24,78,20,f,1,1,22,2179,8,435,1,b,m,8
24,79,20,f,1,1,22,2180,5,204,1,b,m,5
24,80,20,f,1,1,22,2181,3,424,1,b,m,3
24,81,20,f,1,1,22,2182,1,224,1,b,m,1
24,82,20,f,1,1,22,2183,5,1048,0,b,m,1
24,83,20,f,1,1,22,2184,8,363,0,b,m,5
24,84,20,f,1,1,22,2185,6,49,1,b,m,6
24,85,20,f,1,1,22,2186,4,456,1,b,m,4
24,86,20,f,1,1,22,2187,6,656,1,b,m,6
24,87,20,f,1,1,22,2188,3,431,1,b,m,3
24,88,20,f,1,1,22,2189,5,70,1,b,m,5
24,89,20,f,1,1,22,2190,7,332,1,b,m,7
24,90,20,f,1,1,22,2191,1,751,0,b,m,8
24,91,20,f,1,1,22,2192,4,504,1,b,m,4
24,92,20,f,1,1,22,2193,3,103,1,b,m,3
24,93,20,f,1,1,22,2194,4,56,1,b,m,4
24,94,20,f,1,1,22,2195,5,69,1,b,m,5
24,95,20,f,1,1,22,2196,8,441,0,b,m,2
24,96,20,f,1,1,22,2197,5,804,1,b,m,5
24,97,20,f,1,1,22,2198,3,433,1,b,m,3
24,98,20,f,1,1,22,2199,7,110,1,b,m,7
24,99,20,f,1,1,22,2200,0,348,0,b,m,8
25,0,19,f,1,1,23,2201,0,3910,0,y,m,7
25,1,19,f,1,1,23,2202,7,1028,0,y,m,3
25,2,19,f,1,1,23,2203,1,751,1,y,m,1
25,3,19,f,1,1,23,2204,4,1042,1,y,m,4
25,4,19,f,1,1,23,2205,8,383,1,y,m,8
25,5,19,f,1,1,23,2206,4,388,1,y,m,4
25,6,19,f,1,1,23,2207,4,545,1,y,m,4
25,7,19,f,1,1,23,2208,5,450,1,y,m,5
25,8,19,f,1,1,23,2209,2,368,1,y,m,2
25,9,19,f,1,1,23,2210,7,404,1,y,m,7
25,10,19,f,1,1,23,2211,5,831,0,y,m,3
25,11,19,f,1,1,23,2212,6,859,0,y,m,5
25,12,19,f,1,1,23,2213,5,467,1,y,m,5
25,13,19,f,1,1,23,2214,0,365,1,y,m,0
25,14,19,f,1,1,23,2215,7,411,1,y,m,7
25,15,19,f,1,1,23,2216,2,587,1,y,m,2
25,16,19,f,1,1,23,2217,0,829,1,y,m,0
25,17,19,f,1,1,23,2218,3,1399,0,y,m,6
25,18,19,f,1,1,23,2219,0,340,1,y,m,0
25,19,19,f,1,1,23,2220,1,499,1,y,m,1
25,20,19,f,1,1,23,2221,1,412,1,y,m,1
25,21,19,f,1,1,23,2222,7,719,0,y,m,3
25,22,19,f,1,1,23,2223,6,623,1,y,m,6
25,23,19,f,1,1,23,2224,1,437,1,y,m,1
25,24,19,f,1,1,23,2225,5,1029,1,y,m,5
25,25,19,f,1,1,23,2226,5,479,1,y,m,5
25,26,19,f,1,1,23,2227,2,492,0,y,m,3
25,27,19,f,1,1,23,2228,0,432,1,y,m,0
25,28,19,f,1,1,23,2229,6,1471,0,y,m,2
25,29,19,f,1,1,23,2230,7,434,1,y,m,7
25,30,19,f,1,1,23,2231,6,224,1,y,m,6
25,31,19,f,1,1,23,2232,7,641,0,y,m,4
25,32,19,f,1,1,23,2233,5,366,1,y,m,5
25,33,19,f,1,1,23,2234,4,891,0,y,m,7
25,34,19,f,1,1,23,2235,6,470,1,y,m,6
25,35,19,f,1,1,23,2236,6,449,0,y,m,3
25,36,19,f,1,1,23,2237,1,310,1,y,m,1
25,37,19,f,1,1,23,2238,1,157,0,y,m,3
25,38,19,f,1,1,23,2239,7,284,1,y,m,7
25,39,19,f,1,1,23,2240,6,538,1,y,m,6
25,40,19,f,1,1,23,2241,4,429,0,y,m,3
25,41,19,f,1,1,23,2242,6,536,1,y,m,6
25,42,19,f,1,1,23,2243,7,772,0,y,m,3
25,43,19,f,1,1,23,2244,6,921,0,y,m,1
25,44,19,f,1,1,23,2245,8,431,1,y,m,8
25,45,19,f,1,1,23,2246,6,757,1,y,m,6
25,46,19,f,1,1,23,2247,2,449,0,y,m,7
25,47,19,f,1,1,23,2248,3,441,1,y,m,3
25,48,19,f,1,1,23,2249,0,335,1,y,m,0
25,49,19,f,1,1,23,2250,0,293,1,y,m,0
25,50,19,f,1,1,23,2251,7,290,1,y,m,7
25,51,19,f,1,1,23,2252,4,480,0,y,m,2
25,52,19,f,1,1,23,2253,3,362,1,y,m,3
25,53,19,f,1,1,23,2254,8,245,0,y,m,3
25,54,19,f,1,1,23,2255,7,1147,0,y,m,1
25,55,19,f,1,1,23,2256,2,343,1,y,m,2
25,56,19,f,1,1,23,2257,1,206,1,y,m,1
25,57,19,f,1,1,23,2258,6,450,1,y,m,6
25,58,19,f,1,1,23,2259,4,273,1,y,m,4
25,59,19,f,1,1,23,2260,3,250,1,y,m,3
25,60,19,f,1,1,23,2261,5,702,0,y,m,7
25,61,19,f,1,1,23,2262,0,90,0,y,m,8
25,62,19,f,1,1,23,2263,7,87,1,y,m,7
25,63,19,f,1,1,23,2264,0,332,1,y,m,0
25,64,19,f,1,1,23,2265,2,251,1,y,m,2
25,65,19,f,1,1,23,2266,5,429,1,y,m,5
25,66,19,f,1,1,23,2267,0,439,1,y,m,0
25,67,19,f,1,1,23,2268,6,942,0,y,m,7
25,68,19,f,1,1,23,2269,1,646,1,y,m,1
25,69,19,f,1,1,23,2270,0,427,0,y,m,4
25,70,19,f,1,1,23,2271,0,434,1,y,m,0
25,71,19,f,1,1,23,2272,2,618,1,y,m,2
25,72,19,f,1,1,23,2273,6,253,1,y,m,6
25,73,19,f,1,1,23,2274,6,365,0,y,m,3
25,74,19,f,1,1,23,2275,6,385,1,y,m,6
25,75,19,f,1,1,23,2276,4,338,1,y,m,4
25,76,19,f,1,1,23,2277,8,92,1,y,m,8
25,77,19,f,1,1,23,2278,3,345,0,y,m,7
25,78,19,f,1,1,23,2279,0,148,1,y,m,0
25,79,19,f,1,1,23,2280,1,371,0,y,m,3
25,80,19,f,1,1,23,2281,7,392,0,y,m,0
25,81,19,f,1,1,23,2282,7,400,1,y,m,7
25,82,19,f,1,1,23,2283,6,363,1,y,m,6
25,83,19,f,1,1,23,2284,2,1,1,y,m,2
25,84,19,f,1,1,23,2285,7,194,1,y,m,7
25,85,19,f,1,1,23,2286,3,155,1,y,m,3
25,86,19,f,1,1,23,2287,3,380,0,y,m,2
25,87,19,f,1,1,23,2288,4,284,1,y,m,4
25,88,19,f,1,1,23,2289,6,72,1,y,m,6
25,89,19,f,1,1,23,2290,7,198,1,y,m,7
25,90,19,f,1,1,23,2291,6,1423,1,y,m,6
25,91,19,f,1,1,23,2292,8,140,1,y,m,8
25,92,19,f,1,1,23,2293,8,271,1,y,m,8
25,93,19,f,1,1,23,2294,0,415,1,y,m,0
25,94,19,f,1,1,23,2295,8,163,1,y,m,8
25,95,19,f,1,1,23,2296,0,883,1,y,m,0
25,96,19,f,1,1,23,2297,8,281,1,y,m,8
25,97,19,f,1,1,23,2298,8,433,0,y,m,6
25,98,19,f,1,1,23,2299,3,160,1,y,m,3
25,99,19,f,1,1,23,2300,5,158,1,y,m,5
26,0,20,f,1,1,24,2301,5,1904,0,b,f,3
26,1,20,f,1,1,24,2302,5,364,1,b,f,5
26,2,20,f,1,1,24,2303,6,382,1,b,f,6
26,3,20,f,1,1,24,2304,3,829,0,b,f,0
26,4,20,f,1,1,24,2305,0,476,1,b,f,0
26,5,20,f,1,1,24,2306,0,635,0,b,f,7
26,6,20,f,1,1,24,2307,3,519,1,b,f,3
26,7,20,f,1,1,24,2308,3,411,1,b,f,3
26,8,20,f,1,1,24,2309,2,522,0,b,f,5
26,9,20,f,1,1,24,2310,4,434,1,b,f,4
26,10,20,f,1,1,24,2311,8,322,1,b,f,8
26,11,20,f,1,1,24,2312,5,1440,0,b,f,1
26,12,20,f,1,1,24,2313,4,416,1,b,f,4
26,13,20,f,1,1,24,2314,0,508,0,b,f,2
26,14,20,f,1,1,24,2315,8,195,1,b,f,8
26,15,20,f,1,1,24,2316,2,691,1,b,f,2
26,16,20,f,1,1,24,2317,1,246,1,b,f,1
26,17,20,f,1,1,24,2318,5,440,1,b,f,5
26,18,20,f,1,1,24,2319,2,781,0,b,f,3
26,19,20,f,1,1,24,2320,2,371,1,b,f,2
26,20,20,f,1,1,24,2321,0,56,1,b,f,0
26,21,20,f,1,1,24,2322,4,507,0,b,f,5
26,22,20,f,1,1,24,2323,1,484,1,b,f,1
26,23,20,f,1,1,24,2324,3,138,1,b,f,3
26,24,20,f,1,1,24,2325,2,338,1,b,f,2
26,25,20,f,1,1,24,2326,3,984,1,b,f,3
26,26,20,f,1,1,24,2327,1,643,0,b,f,3
26,27,20,f,1,1,24,2328,2,70,1,b,f,2
26,28,20,f,1,1,24,2329,3,418,0,b,f,1
26,29,20,f,1,1,24,2330,1,300,1,b,f,1
26,30,20,f,1,1,24,2331,2,201,1,b,f,2
26,31,20,f,1,1,24,2332,0,341,1,b,f,0
26,32,20,f,1,1,24,2333,4,517,1,b,f,4
26,33,20,f,1,1,24,2334,7,525,1,b,f,7
26,34,20,f,1,1,24,2335,5,86,1,b,f,5
26,35,20,f,1,1,24,2336,1,347,0,b,f,2
26,36,20,f,1,1,24,2337,1,402,1,b,f,1
26,37,20,f,1,1,24,2338,8,411,1,b,f,8
26,38,20,f,1,1,24,2339,4,513,1,b,f,4
26,39,20,f,1,1,24,2340,3,381,1,b,f,3
26,40,20,f,1,1,24,2341,4,175,1,b,f,4
26,41,20,f,1,1,24,2342,3,400,0,b,f,7
26,42,20,f,1,1,24,2343,5,32,1,b,f,5
26,43,20,f,1,1,24,2344,2,799,0,b,f,7
26,44,20,f,1,1,24,2345,6,512,1,b,f,6
26,45,20,f,1,1,24,2346,6,1827,1,b,f,6
26,46,20,f,1,1,24,2347,6,177,1,b,f,6
26,47,20,f,1,1,24,2348,8,435,0,b,f,0
26,48,20,f,1,1,24,2349,8,565,1,b,f,8
26,49,20,f,1,1,24,2350,0,405,0,b,f,6
26,50,20,f,1,1,24,2351,0,351,0,b,f,8
26,51,20,f,1,1,24,2352,1,73,1,b,f,1
26,52,20,f,1,1,24,2353,8,277,1,b,f,8
26,53,20,f,1,1,24,2354,7,260,1,b,f,7
26,54,20,f,1,1,24,2355,6,462,1,b,f,6
26,55,20,f,1,1,24,2356,6,144,1,b,f,6
26,56,20,f,1,1,24,2357,3,397,1,b,f,3
26,57,20,f,1,1,24,2358,0,283,1,b,f,0
26,58,20,f,1,1,24,2359,0,277,0,b,f,2
26,59,20,f,1,1,24,2360,1,439,0,b,f,2
26,60,20,f,1,1,24,2361,8,646,0,b,f,7
26,61,20,f,1,1,24,2362,6,234,1,b,f,6
26,62,20,f,1,1,24,2363,7,255,1,b,f,7
26,63,20,f,1,1,24,2364,8,561,1,b,f,8
26,64,20,f,1,1,24,2365,1,451,0,b,f,2
26,65,20,f,1,1,24,2366,5,423,1,b,f,5
26,66,20,f,1,1,24,2367,1,88,1,b,f,1
26,67,20,f,1,1,24,2368,6,556,0,b,f,0
26,68,20,f,1,1,24,2369,4,633,0,b,f,5
26,69,20,f,1,1,24,2370,8,579,1,b,f,8
26,70,20,f,1,1,24,2371,6,375,1,b,f,6
26,71,20,f,1,1,24,2372,2,245,1,b,f,2
26,72,20,f,1,1,24,2373,6,419,1,b,f,6
26,73,20,f,1,1,24,2374,4,529,0,b,f,3
26,74,20,f,1,1,24,2375,5,354,1,b,f,5
26,75,20,f,1,1,24,2376,3,519,0,b,f,1
26,76,20,f,1,1,24,2377,8,339,1,b,f,8
26,77,20,f,1,1,24,2378,6,544,0,b,f,5
26,78,20,f,1,1,24,2379,8,307,1,b,f,8
26,79,20,f,1,1,24,2380,5,614,1,b,f,5
26,80,20,f,1,1,24,2381,4,691,1,b,f,4
26,81,20,f,1,1,24,2382,4,193,1,b,f,4
26,82,20,f,1,1,24,2383,7,372,1,b,f,7
26,83,20,f,1,1,24,2384,3,351,1,b,f,3
26,84,20,f,1,1,24,2385,8,281,1,b,f,8
26,85,20,f,1,1,24,2386,7,486,1,b,f,7
26,86,20,f,1,1,24,2387,0,707,0,b,f,1
26,87,20,f,1,1,24,2388,6,295,1,b,f,6
26,88,20,f,1,1,24,2389,7,319,1,b,f,7
26,89,20,f,1,1,24,2390,2,743,1,b,f,2
26,90,20,f,1,1,24,2391,5,286,1,b,f,5
26,91,20,f,1,1,24,2392,4,321,1,b,f,4
26,92,20,f,1,1,24,2393,0,73,1,b,f,0
26,93,20,f,1,1,24,2394,7,173,1,b,f,7
26,94,20,f,1,1,24,2395,5,538,0,b,f,3
26,95,20,f,1,1,24,2396,0,268,0,b,f,6
26,96,20,f,1,1,24,2397,4,963,1,b,f,4
26,97,20,f,1,1,24,2398,1,96,1,b,f,1
26,98,20,f,1,1,24,2399,8,366,1,b,f,8
26,99,20,f,1,1,24,2400,7,579,1,b,f,7
27,0,21,m,1,1,25,2401,1,1112,1,y,f,1
27,1,21,m,1,1,25,2402,0,1831,0,y,f,8
27,2,21,m,1,1,25,2403,7,1643,0,y,f,6
27,3,21,m,1,1,25,2404,8,2485,0,y,f,3
27,4,21,m,1,1,25,2405,4,2423,0,y,f,5
27,5,21,m,1,1,25,2406,7,907,1,y,f,7
27,6,21,m,1,1,25,2407,5,1062,0,y,f,3
27,7,21,m,1,1,25,2408,6,907,1,y,f,6
27,8,21,m,1,1,25,2409,4,2275,0,y,f,6
27,9,21,m,1,1,25,2410,5,3225,1,y,f,5
27,10,21,m,1,1,25,2411,6,607,0,y,f,1
27,11,21,m,1,1,25,2412,7,5152,1,y,f,7
27,12,21,m,1,1,25,2413,3,880,0,y,f,6
27,13,21,m,1,1,25,2414,1,453,1,y,f,1
27,14,21,m,1,1,25,2415,1,897,1,y,f,1
27,15,21,m,1,1,25,2416,0,589,1,y,f,0
27,16,21,m,1,1,25,2417,4,666,1,y,f,4
27,17,21,m,1,1,25,2418,7,887,0,y,f,5
27,18,21,m,1,1,25,2419,0,510,0,y,f,1
27,19,21,m,1,1,25,2420,6,868,0,y,f,2
27,20,21,m,1,1,25,2421,1,739,0,y,f,6
27,21,21,m,1,1,25,2422,1,444,0,y,f,3
27,22,21,m,1,1,25,2423,6,786,0,y,f,7
27,23,21,m,1,1,25,2424,1,488,1,y,f,1
27,24,21,m,1,1,25,2425,4,916,1,y,f,4
27,25,21,m,1,1,25,2426,2,680,1,y,f,2
27,26,21,m,1,1,25,2427,1,312,1,y,f,1
27,27,21,m,1,1,25,2428,6,510,0,y,f,2
27,28,21,m,1,1,25,2429,3,779,0,y,f,5
27,29,21,m,1,1,25,2430,6,1771,0,y,f,5
27,30,21,m,1,1,25,2431,2,1077,0,y,f,7
27,31,21,m,1,1,25,2432,4,488,0,y,f,5
27,32,21,m,1,1,25,2433,0,1358,0,y,f,1
27,33,21,m,1,1,25,2434,0,563,0,y,f,5
27,34,21,m,1,1,25,2435,6,2028,1,y,f,6
27,35,21,m,1,1,25,2436,8,201,1,y,f,8
27,36,21,m,1,1,25,2437,6,265,1,y,f,6
27,37,21,m,1,1,25,2438,4,309,1,y,f,4
27,38,21,m,1,1,25,2439,7,641,1,y,f,7
27,39,21,m,1,1,25,2440,1,482,0,y,f,5
27,40,21,m,1,1,25,2441,5,1372,0,y,f,4
27,41,21,m,1,1,25,2442,0,756,0,y,f,8
27,42,21,m,1,1,25,2443,3,185,1,y,f,3
27,43,21,m,1,1,25,2444,5,158,1,y,f,5
27,44,21,m,1,1,25,2445,4,1217,0,y,f,1
27,45,21,m,1,1,25,2446,6,544,0,y,f,4
27,46,21,m,1,1,25,2447,6,420,1,y,f,6
27,47,21,m,1,1,25,2448,8,516,0,y,f,4
27,48,21,m,1,1,25,2449,8,191,1,y,f,8
27,49,21,m,1,1,25,2450,6,180,1,y,f,6
27,50,21,m,1,1,25,2451,0,643,0,y,f,7
27,51,21,m,1,1,25,2452,5,157,1,y,f,5
27,52,21,m,1,1,25,2453,2,278,1,y,f,2
27,53,21,m,1,1,25,2454,2,228,1,y,f,2
27,54,21,m,1,1,25,2455,5,391,1,y,f,5
27,55,21,m,1,1,25,2456,1,437,1,y,f,1
27,56,21,m,1,1,25,2457,8,256,0,y,f,7
27,57,21,m,1,1,25,2458,2,460,0,y,f,3
27,58,21,m,1,1,25,2459,7,495,1,y,f,7
27,59,21,m,1,1,25,2460,7,86,1,y,f,7
27,60,21,m,1,1,25,2461,4,310,1,y,f,4
27,61,21,m,1,1,25,2462,2,377,1,y,f,2
27,62,21,m,1,1,25,2463,2,0,1,y,f,2
27,63,21,m,1,1,25,2464,1,428,0,y,f,8
27,64,21,m,1,1,25,2465,5,610,0,y,f,7
27,65,21,m,1,1,25,2466,3,1261,1,y,f,3
27,66,21,m,1,1,25,2467,6,581,0,y,f,7
27,67,21,m,1,1,25,2468,3,395,0,y,f,4
27,68,21,m,1,1,25,2469,2,613,1,y,f,2
27,69,21,m,1,1,25,2470,7,401,1,y,f,7
27,70,21,m,1,1,25,2471,0,241,1,y,f,0
27,71,21,m,1,1,25,2472,8,635,0,y,f,1
27,72,21,m,1,1,25,2473,4,663,1,y,f,4
27,73,21,m,1,1,25,2474,8,481,1,y,f,8
27,74,21,m,1,1,25,2475,8,295,1,y,f,8
27,75,21,m,1,1,25,2476,6,233,1,y,f,6
27,76,21,m,1,1,25,2477,1,64,1,y,f,1
27,77,21,m,1,1,25,2478,8,285,0,y,f,1
27,78,21,m,1,1,25,2479,5,0,1,y,f,5
27,79,21,m,1,1,25,2480,3,124,1,y,f,3
27,80,21,m,1,1,25,2481,7,110,1,y,f,7
27,81,21,m,1,1,25,2482,5,243,1,y,f,5
27,82,21,m,1,1,25,2483,6,152,1,y,f,6
27,83,21,m,1,1,25,2484,5,264,1,y,f,5
27,84,21,m,1,1,25,2485,1,435,1,y,f,1
27,85,21,m,1,1,25,2486,6,68,1,y,f,6
27,86,21,m,1,1,25,2487,8,481,1,y,f,8
27,87,21,m,1,1,25,2488,3,521,0,y,f,6
27,88,21,m,1,1,25,2489,0,624,0,y,f,2
27,89,21,m,1,1,25,2490,4,541,0,y,f,7
27,90,21,m,1,1,25,2491,5,1375,1,y,f,5
27,91,21,m,1,1,25,2492,7,467,1,y,f,7
27,92,21,m,1,1,25,2493,8,488,1,y,f,8
27,93,21,m,1,1,25,2494,8,103,1,y,f,8
27,94,21,m,1,1,25,2495,4,318,1,y,f,4
27,95,21,m,1,1,25,2496,0,250,1,y,f,0
27,96,21,m,1,1,25,2497,4,819,1,y,f,4
27,97,21,m,1,1,25,2498,3,83,1,y,f,3
27,98,21,m,1,1,25,2499,6,444,1,y,f,6
27,99,21,m,1,1,25,2500,4,231,1,y,f,4
28,0,22,f,1,1,26,2501,3,4087,0,b,m,6
28,1,22,f,1,1,26,2502,1,1807,0,b,m,2
28,2,22,f,1,1,26,2503,5,674,1,b,m,5
28,3,22,f,1,1,26,2504,3,481,1,b,m,3
28,4,22,f,1,1,26,2505,8,966,0,b,m,7
28,5,22,f,1,1,26,2506,4,539,1,b,m,4
28,6,22,f,1,1,26,2507,1,647,1,b,m,1
28,7,22,f,1,1,26,2508,2,1007,1,b,m,2
28,8,22,f,1,1,26,2509,0,726,1,b,m,0
28,9,22,f,1,1,26,2510,7,2157,0,b,m,5
28,10,22,f,1,1,26,2511,8,363,1,b,m,8
28,11,22,f,1,1,26,2512,4,2312,0,b,m,6
28,12,22,f,1,1,26,2513,1,587,1,b,m,1
28,13,22,f,1,1,26,2514,7,1289,0,b,m,6
28,14,22,f,1,1,26,2515,7,787,1,b,m,7
28,15,22,f,1,1,26,2516,5,1376,0,b,m,4
28,16,22,f,1,1,26,2517,3,218,1,b,m,3
28,17,22,f,1,1,26,2518,1,771,0,b,m,4
28,18,22,f,1,1,26,2519,0,764,1,b,m,0
28,19,22,f,1,1,26,2520,2,839,1,b,m,2
28,20,22,f,1,1,26,2521,7,427,1,b,m,7
28,21,22,f,1,1,26,2522,1,488,0,b,m,3
28,22,22,f,1,1,26,2523,3,1143,0,b,m,1
28,23,22,f,1,1,26,2524,8,471,1,b,m,8
28,24,22,f,1,1,26,2525,2,1339,1,b,m,2
28,25,22,f,1,1,26,2526,6,805,1,b,m,6
28,26,22,f,1,1,26,2527,2,569,1,b,m,2
28,27,22,f,1,1,26,2528,6,732,1,b,m,6
28,28,22,f,1,1,26,2529,1,417,1,b,m,1
28,29,22,f,1,1,26,2530,1,1017,0,b,m,3
28,30,22,f,1,1,26,2531,7,652,1,b,m,7
28,31,22,f,1,1,26,2532,5,768,1,b,m,5
28,32,22,f,1,1,26,2533,8,702,1,b,m,8
28,33,22,f,1,1,26,2534,2,747,0,b,m,1
28,34,22,f,1,1,26,2535,8,655,0,b,m,0
28,35,22,f,1,1,26,2536,8,464,1,b,m,8
28,36,22,f,1,1,26,2537,6,1029,0,b,m,2
28,37,22,f,1,1,26,2538,7,172,1,b,m,7
28,38,22,f,1,1,26,2539,8,465,1,b,m,8
28,39,22,f,1,1,26,2540,2,792,1,b,m,2
28,40,22,f,1,1,26,2541,2,712,1,b,m,2
28,41,22,f,1,1,26,2542,2,663,1,b,m,2
28,42,22,f,1,1,26,2543,8,512,0,b,m,7
28,43,22,f,1,1,26,2544,0,363,1,b,m,0
28,44,22,f,1,1,26,2545,8,457,0,b,m,2
28,45,22,f,1,1,26,2546,1,620,0,b,m,8
28,46,22,f,1,1,26,2547,1,259,1,b,m,1
28,47,22,f,1,1,26,2548,7,485,1,b,m,7
28,48,22,f,1,1,26,2549,3,280,1,b,m,3
28,49,22,f,1,1,26,2550,3,767,0,b,m,7
28,50,22,f,1,1,26,2551,7,557,0,b,m,1
28,51,22,f,1,1,26,2552,1,1023,1,b,m,1
28,52,22,f,1,1,26,2553,4,1144,0,b,m,1
28,53,22,f,1,1,26,2554,1,1920,0,b,m,3
28,54,22,f,1,1,26,2555,5,381,0,b,m,0
28,55,22,f,1,1,26,2556,8,1183,0,b,m,0
28,56,22,f,1,1,26,2557,5,1688,0,b,m,4
28,57,22,f,1,1,26,2558,0,193,1,b,m,0
28,58,22,f,1,1,26,2559,0,1660,0,b,m,1
28,59,22,f,1,1,26,2560,5,1494,0,b,m,7
28,60,22,f,1,1,26,2561,8,1025,0,b,m,4
28,61,22,f,1,1,26,2562,1,1375,0,b,m,7
28,62,22,f,1,1,26,2563,1,1101,0,b,m,3
28,63,22,f,1,1,26,2564,2,875,1,b,m,2
28,64,22,f,1,1,26,2565,6,844,1,b,m,6
28,65,22,f,1,1,26,2566,0,643,1,b,m,0
28,66,22,f,1,1,26,2567,8,333,0,b,m,1
28,67,22,f,1,1,26,2568,2,522,1,b,m,2
28,68,22,f,1,1,26,2569,1,325,0,b,m,5
28,69,22,f,1,1,26,2570,2,634,1,b,m,2
28,70,22,f,1,1,26,2571,3,260,1,b,m,3
28,71,22,f,1,1,26,2572,6,446,0,b,m,2
28,72,22,f,1,1,26,2573,3,187,1,b,m,3
28,73,22,f,1,1,26,2574,3,440,1,b,m,3
28,74,22,f,1,1,26,2575,4,451,0,b,m,0
28,75,22,f,1,1,26,2576,8,1215,0,b,m,7
28,76,22,f,1,1,26,2577,2,101,1,b,m,2
28,77,22,f,1,1,26,2578,4,306,1,b,m,4
28,78,22,f,1,1,26,2579,5,277,1,b,m,5
28,79,22,f,1,1,26,2580,2,683,0,b,m,4
28,80,22,f,1,1,26,2581,2,2341,0,b,m,6
28,81,22,f,1,1,26,2582,8,427,1,b,m,8
28,82,22,f,1,1,26,2583,0,799,0,b,m,8
28,83,22,f,1,1,26,2584,5,514,1,b,m,5
28,84,22,f,1,1,26,2585,7,336,0,b,m,5
28,85,22,f,1,1,26,2586,2,312,0,b,m,3
28,86,22,f,1,1,26,2587,5,588,1,b,m,5
28,87,22,f,1,1,26,2588,4,292,1,b,m,4
28,88,22,f,1,1,26,2589,0,646,0,b,m,4
28,89,22,f,1,1,26,2590,6,683,1,b,m,6
28,90,22,f,1,1,26,2591,6,448,1,b,m,6
28,91,22,f,1,1,26,2592,2,137,1,b,m,2
28,92,22,f,1,1,26,2593,7,699,0,b,m,6
28,93,22,f,1,1,26,2594,0,1515,0,b,m,1
28,94,22,f,1,1,26,2595,8,328,0,b,m,1
28,95,22,f,1,1,26,2596,3,554,0,b,m,8
28,96,22,f,1,1,26,2597,8,607,0,b,m,5
28,97,22,f,1,1,26,2598,6,883,1,b,m,6
28,98,22,f,1,1,26,2599,4,592,1,b,m,4
28,99,22,f,1,1,26,2600,2,747,0,b,m,4
29,0,20,f,1,1,27,2601,0,2387,1,y,m,0
29,1,20,f,1,1,27,2602,2,790,1,y,m,2
29,2,20,f,1,1,27,2603,2,636,1,y,m,2
29,3,20,f,1,1,27,2604,8,628,0,y,m,5
29,4,20,f,1,1,27,2605,1,351,1,y,m,1
29,5,20,f,1,1,27,2606,2,757,1,y,m,2
29,6,20,f,1,1,27,2607,5,264,1,y,m,5
29,7,20,f,1,1,27,2608,6,601,1,y,m,6
29,8,20,f,1,1,27,2609,0,602,0,y,m,6
29,9,20,f,1,1,27,2610,8,398,1,y,m,8
29,10,20,f,1,1,27,2611,7,572,1,y,m,7
29,11,20,f,1,1,27,2612,1,154,1,y,m,1
29,12,20,f,1,1,27,2613,1,2270,0,y,m,2
29,13,20,f,1,1,27,2614,0,610,0,y,m,7
29,14,20,f,1,1,27,2615,2,294,1,y,m,2
29,15,20,f,1,1,27,2616,0,526,0,y,m,8
29,16,20,f,1,1,27,2617,0,480,1,y,m,0
29,17,20,f,1,1,27,2618,8,629,1,y,m,8
29,18,20,f,1,1,27,2619,3,249,1,y,m,3
29,19,20,f,1,1,27,2620,3,224,0,y,m,6
29,20,20,f,1,1,27,2621,1,315,1,y,m,1
29,21,20,f,1,1,27,2622,2,770,1,y,m,2
29,22,20,f,1,1,27,2623,2,312,1,y,m,2
29,23,20,f,1,1,27,2624,1,358,1,y,m,1
29,24,20,f,1,1,27,2625,8,380,1,y,m,8
29,25,20,f,1,1,27,2626,8,1659,0,y,m,2
29,26,20,f,1,1,27,2627,5,485,1,y,m,5
29,27,20,f,1,1,27,2628,4,320,1,y,m,4
29,28,20,f,1,1,27,2629,4,362,1,y,m,4
29,29,20,f,1,1,27,2630,2,633,1,y,m,2
29,30,20,f,1,1,27,2631,7,900,0,y,m,0
29,31,20,f,1,1,27,2632,4,380,1,y,m,4
29,32,20,f,1,1,27,2633,1,348,1,y,m,1
29,33,20,f,1,1,27,2634,1,383,1,y,m,1
29,34,20,f,1,1,27,2635,3,1096,1,y,m,3
29,35,20,f,1,1,27,2636,3,557,0,y,m,8
29,36,20,f,1,1,27,2637,5,274,1,y,m,5
29,37,20,f,1,1,27,2638,6,1153,1,y,m,6
29,38,20,f,1,1,27,2639,3,567,0,y,m,1
29,39,20,f,1,1,27,2640,5,473,1,y,m,5
29,40,20,f,1,1,27,2641,0,541,1,y,m,0
29,41,20,f,1,1,27,2642,4,599,1,y,m,4
29,42,20,f,1,1,27,2643,3,498,0,y,m,7
29,43,20,f,1,1,27,2644,7,963,0,y,m,2
29,44,20,f,1,1,27,2645,4,790,1,y,m,4
29,45,20,f,1,1,27,2646,2,778,1,y,m,2
29,46,20,f,1,1,27,2647,0,537,1,y,m,0
29,47,20,f,1,1,27,2648,6,329,0,y,m,5
29,48,20,f,1,1,27,2649,8,540,1,y,m,8
29,49,20,f,1,1,27,2650,7,2958,1,y,m,7
29,50,20,f,1,1,27,2651,6,139,1,y,m,6
29,51,20,f,1,1,27,2652,1,365,0,y,m,3
29,52,20,f,1,1,27,2653,0,721,1,y,m,0
29,53,20,f,1,1,27,2654,1,375,1,y,m,1
29,54,20,f,1,1,27,2655,0,382,1,y,m,0
29,55,20,f,1,1,27,2656,4,230,1,y,m,4
29,56,20,f,1,1,27,2657,7,666,1,y,m,7
29,57,20,f,1,1,27,2658,0,594,1,y,m,0
29,58,20,f,1,1,27,2659,7,440,1,y,m,7
29,59,20,f,1,1,27,2660,5,808,1,y,m,5
29,60,20,f,1,1,27,2661,0,371,1,y,m,0
29,61,20,f,1,1,27,2662,7,518,1,y,m,7
29,62,20,f,1,1,27,2663,5,475,1,y,m,5
29,63,20,f,1,1,27,2664,2,241,1,y,m,2
29,64,20,f,1,1,27,2665,7,299,1,y,m,7
29,65,20,f,1,1,27,2666,1,1367,0,y,m,4
29,66,20,f,1,1,27,2667,0,443,0,y,m,1
29,67,20,f,1,1,27,2668,6,279,1,y,m,6
29,68,20,f,1,1,27,2669,6,486,1,y,m,6
29,69,20,f,1,1,27,2670,3,555,0,y,m,0
29,70,20,f,1,1,27,2671,0,1238,0,y,m,7
29,71,20,f,1,1,27,2672,0,735,1,y,m,0
29,72,20,f,1,1,27,2673,1,356,0,y,m,8
29,73,20,f,1,1,27,2674,8,404,1,y,m,8
29,74,20,f,1,1,27,2675,0,417,1,y,m,0
29,75,20,f,1,1,27,2676,0,464,0,y,m,3
29,76,20,f,1,1,27,2677,1,324,1,y,m,1
29,77,20,f,1,1,27,2678,7,302,1,y,m,7
29,78,20,f,1,1,27,2679,3,465,1,y,m,3
29,79,20,f,1,1,27,2680,4,1532,1,y,m,4
29,80,20,f,1,1,27,2681,5,769,1,y,m,5
29,81,20,f,1,1,27,2682,1,346,0,y,m,6
29,82,20,f,1,1,27,2683,2,277,1,y,m,2
29,83,20,f,1,1,27,2684,4,633,0,y,m,3
29,84,20,f,1,1,27,2685,7,536,0,y,m,5
29,85,20,f,1,1,27,2686,2,552,0,y,m,4
29,86,20,f,1,1,27,2687,8,742,1,y,m,8
29,87,20,f,1,1,27,2688,2,302,1,y,m,2
29,88,20,f,1,1,27,2689,1,20,1,y,m,1
29,89,20,f,1,1,27,2690,4,413,1,y,m,4
29,90,20,f,1,1,27,2691,7,452,1,y,m,7
29,91,20,f,1,1,27,2692,7,257,1,y,m,7
29,92,20,f,1,1,27,2693,4,496,1,y,m,4
29,93,20,f,1,1,27,2694,1,481,1,y,m,1
29,94,20,f,1,1,27,2695,0,1022,1,y,m,0
29,95,20,f,1,1,27,2696,4,385,1,y,m,4
29,96,20,f,1,1,27,2697,0,1236,0,y,m,6
29,97,20,f,1,1,27,2698,7,489,1,y,m,7
29,98,20,f,1,1,27,2699,0,815,0,y,m,2
29,99,20,f,1,1,27,2700,0,426,1,y,m,0
30,0,24,m,1,1,28,2701,2,1665,1,b,f,2
30,1,24,m,1,1,28,2702,6,2823,0,b,f,4
30,2,24,m,1,1,28,2703,2,1524,1,b,f,2
30,3,24,m,1,1,28,2704,6,1927,0,b,f,0
30,4,24,m,1,1,28,2705,2,1687,0,b,f,0
