uid,trial,subAge,block_id,subSex,session,block,tid,response,rt,correct,target_color,target_sex,correctResponse
1,1,53,1,m,1,1,1,9,14879,0,1,2,5
1,2,53,1,m,1,1,2,5,670,0,1,2,1
1,3,53,1,m,1,1,3,5,137735,0,1,2,3
1,4,53,1,m,1,1,4,7,137781,1,1,2,7
1,5,53,1,m,1,1,5,5,100328,1,1,2,5
1,6,53,1,m,1,1,6,3,604,0,1,2,7
1,7,53,1,m,1,1,7,7,723,0,1,2,1
1,8,53,1,m,1,1,8,1,395,0,1,2,4
1,9,53,1,m,1,1,9,9,299966,0,1,2,5
1,10,53,1,m,1,1,10,4,346834,0,1,2,5
1,11,53,1,m,1,1,11,6,141209,1,1,2,6
1,12,53,1,m,1,1,12,4,459262,0,1,2,8
1,13,53,1,m,1,1,13,9,279609,0,1,2,3
1,14,53,1,m,1,1,14,3,952,1,1,2,3
1,15,53,1,m,1,1,15,9,126001,1,1,2,9
1,16,53,1,m,1,1,16,5,120425,1,1,2,5
1,17,53,1,m,1,1,17,9,650,1,1,2,9
1,18,53,1,m,1,1,18,1,812,1,1,2,1
1,19,53,1,m,1,1,19,1,819,1,1,2,1
1,20,53,1,m,1,1,20,3,980,1,1,2,3
1,21,53,1,m,1,1,21,6,134737,1,1,2,6
1,22,53,1,m,1,1,22,6,399335,0,1,2,8
1,23,53,1,m,1,1,23,4,873,0,1,2,7
1,24,53,1,m,1,1,24,2,184051,0,1,2,4
1,25,53,1,m,1,1,25,2,995,1,1,2,2
1,26,53,1,m,1,1,26,8,723,1,1,2,8
1,27,53,1,m,1,1,27,2,112705,0,1,2,1
1,28,53,1,m,1,1,28,2,616,1,1,2,2
1,29,53,1,m,1,1,29,4,108615,0,1,2,9
1,30,53,1,m,1,1,30,9,386176,0,1,2,7
1,31,53,1,m,1,1,31,5,58744,0,1,2,6
1,32,53,1,m,1,1,32,6,795,1,1,2,6
1,33,53,1,m,1,1,33,4,232822,0,1,2,3
1,34,53,1,m,1,1,34,3,788,1,1,2,3
1,35,53,1,m,1,1,35,8,121827,0,1,2,1
1,36,53,1,m,1,1,36,4,862,1,1,2,4
1,37,53,1,m,1,1,37,9,312863,0,1,2,7
1,38,53,1,m,1,1,38,2,756,1,1,2,2
1,39,53,1,m,1,1,39,3,956,0,1,2,5
1,40,53,1,m,1,1,40,8,813,1,1,2,8
1,41,53,1,m,1,1,41,3,154376,0,1,2,7
1,42,53,1,m,1,1,42,1,287484,0,1,2,9
1,43,53,1,m,1,1,43,2,142083,0,1,2,3
1,44,53,1,m,1,1,44,5,205206,0,1,2,8
1,45,53,1,m,1,1,45,3,569,1,1,2,3
1,46,53,1,m,1,1,46,3,652,1,1,2,3
1,47,53,1,m,1,1,47,6,246204,0,1,2,5
1,48,53,1,m,1,1,48,1,154451,0,1,2,3
1,49,53,1,m,1,1,49,3,658,1,1,2,3
1,50,53,1,m,1,1,50,9,599,0,1,2,8
1,51,53,1,m,1,1,51,9,624,1,1,2,9
1,52,53,1,m,1,1,52,7,666,1,1,2,7
1,53,53,1,m,1,1,53,5,209953,0,1,2,6
1,54,53,21,m,1,2,54,9,636,0,1,2,7
1,55,53,21,m,1,2,55,2,386296,0,1,2,1
1,56,53,21,m,1,2,56,3,445,1,1,2,3
1,57,53,21,m,1,2,57,9,194749,0,1,2,1
1,58,53,21,m,1,2,58,6,129851,1,1,2,6
1,59,53,21,m,1,2,59,4,140441,1,1,2,4
1,60,53,21,m,1,2,60,6,755,1,1,2,6
1,61,53,21,m,1,2,61,2,670,0,1,2,1
1,62,53,21,m,1,2,62,6,17786,0,1,2,9
1,63,53,21,m,1,2,63,4,114484,0,1,2,5
1,64,53,21,m,1,2,64,4,739,1,1,2,4
1,65,53,21,m,1,2,65,5,492,1,1,2,5
1,66,53,21,m,1,2,66,2,534,1,1,2,2
1,67,53,21,m,1,2,67,9,529,0,1,2,6
1,68,53,21,m,1,2,68,6,808,1,1,2,6
1,69,53,21,m,1,2,69,7,173,1,1,2,7
1,70,53,21,m,1,2,70,2,187034,0,1,2,4
1,71,53,21,m,1,2,71,9,483148,0,1,2,1
1,72,53,21,m,1,2,72,9,305861,1,1,2,9
1,73,53,21,m,1,2,73,3,686,1,1,2,3
1,74,53,21,m,1,2,74,1,328118,0,1,2,5
1,75,53,21,m,1,2,75,4,926,1,1,2,4
1,76,53,21,m,1,2,76,7,668,0,1,2,1
1,77,53,21,m,1,2,77,9,932,0,1,2,8
1,78,53,21,m,1,2,78,4,603,0,1,2,6
1,79,53,21,m,1,2,79,9,117859,0,1,2,7
1,80,53,21,m,1,2,80,2,661,1,1,2,2
1,81,53,21,m,1,2,81,4,866,1,1,2,4
1,82,53,21,m,1,2,82,1,593,1,1,2,1
1,83,53,21,m,1,2,83,9,520,1,1,2,9
1,84,53,21,m,1,2,84,6,276477,0,1,2,9
1,85,53,21,m,1,2,85,4,811,0,1,2,5
1,86,53,21,m,1,2,86,7,652,1,1,2,7
1,87,53,21,m,1,2,87,9,108065,1,1,2,9
1,88,53,21,m,1,2,88,2,579,1,1,2,2
1,89,53,21,m,1,2,89,6,145124,0,1,2,4
1,90,53,21,m,1,2,90,4,608,1,1,2,4
1,91,53,21,m,1,2,91,6,696,1,1,2,6
1,92,53,21,m,1,2,92,1,595,1,1,2,1
1,93,53,21,m,1,2,93,8,966,0,1,2,7
1,94,53,21,m,1,2,94,6,17162,1,1,2,6
1,95,53,21,m,1,2,95,4,628,1,1,2,4
1,96,53,21,m,1,2,96,8,590,1,1,2,8
1,97,53,21,m,1,2,97,6,746,1,1,2,6
1,98,53,21,m,1,2,98,9,741,1,1,2,9
1,99,53,21,m,1,2,99,8,554,1,1,2,8
1,100,53,21,m,1,2,100,5,107053,1,1,2,5
1,101,53,21,m,1,2,101,2,160558,0,1,2,1
1,102,53,21,m,1,2,102,7,502,1,1,2,7
1,103,53,21,m,1,2,103,5,348329,1,1,2,5
1,104,53,21,m,1,2,104,9,803,0,1,2,8
1,105,53,21,m,1,2,105,4,529,0,1,2,2
2,1,21,2,f,1,1,106,5,605,1,2,2,5
2,2,21,2,f,1,1,107,9,4954,0,2,2,1
2,3,21,2,f,1,1,108,2,2274,0,2,2,3
2,4,21,2,f,1,1,109,4,3135,1,2,2,4
2,5,21,2,f,1,1,110,2,1553,1,2,2,2
2,6,21,2,f,1,1,111,7,952,1,2,2,7
2,7,21,2,f,1,1,112,9,3618,0,2,2,1
2,8,21,2,f,1,1,113,3,4201,0,2,2,8
2,9,21,2,f,1,1,114,6,576,1,2,2,6
2,10,21,2,f,1,1,115,9,3522,0,2,2,5
2,11,21,2,f,1,1,116,7,3915,1,2,2,7
2,12,21,2,f,1,1,117,9,4256,0,2,2,8
2,13,21,2,f,1,1,118,6,546,0,2,2,3
2,14,21,2,f,1,1,119,3,3134,1,2,2,3
2,15,21,2,f,1,1,120,9,3110,1,2,2,9
2,16,21,2,f,1,1,121,5,1306,1,2,2,5
2,17,21,2,f,1,1,122,9,273,1,2,2,9
2,18,21,2,f,1,1,123,9,3710,0,2,2,1
2,19,21,2,f,1,1,124,4,472,1,2,2,4
2,20,21,2,f,1,1,125,3,192,1,2,2,3
2,21,21,2,f,1,1,126,8,471,1,2,2,8
2,22,21,2,f,1,1,127,9,2870,1,2,2,9
2,23,21,2,f,1,1,128,7,3257,0,2,2,8
2,24,21,2,f,1,1,129,6,4550,0,2,2,2
2,25,21,2,f,1,1,130,5,2042,1,2,2,5
2,26,21,2,f,1,1,131,1,3313,0,2,2,3
2,27,21,2,f,1,1,132,4,3296,0,2,2,6
2,28,21,2,f,1,1,133,5,1952,0,2,2,4
2,29,21,2,f,1,1,134,1,478,1,2,2,1
2,30,21,2,f,1,1,135,2,352,1,2,2,2
2,31,21,2,f,1,1,136,7,1529,0,2,2,2
2,32,21,2,f,1,1,137,4,885,1,2,2,4
2,33,21,2,f,1,1,138,7,4272,0,2,2,2
2,34,21,2,f,1,1,139,3,565,1,2,2,3
2,35,21,2,f,1,1,140,1,335,1,2,2,1
2,36,21,2,f,1,1,141,6,618,1,2,2,6
2,37,21,2,f,1,1,142,2,498,1,2,2,2
2,38,21,2,f,1,1,143,3,3580,0,2,2,6
2,39,21,2,f,1,1,144,2,441,1,2,2,2
2,40,21,2,f,1,1,145,1,3768,0,2,2,3
2,41,21,2,f,1,1,146,3,3053,0,2,2,2
2,42,21,2,f,1,1,147,9,2388,1,2,2,9
2,43,21,2,f,1,1,148,7,3922,0,2,2,4
2,44,21,2,f,1,1,149,8,319,1,2,2,8
2,45,21,2,f,1,1,150,4,2149,0,2,2,5
2,46,21,2,f,1,1,151,3,347,1,2,2,3
2,47,21,2,f,1,1,152,4,3203,0,2,2,5
2,48,21,2,f,1,1,153,8,2136,1,2,2,8
2,49,21,2,f,1,1,154,6,2192,1,2,2,6
2,50,21,2,f,1,1,155,2,1188,1,2,2,2
2,51,21,2,f,1,1,156,8,744,0,2,2,3
2,52,21,2,f,1,1,157,5,2110,0,2,2,8
2,53,21,2,f,1,1,158,5,727,1,2,2,5
2,54,21,22,f,1,2,159,5,639,1,2,2,5
2,55,21,22,f,1,2,160,1,2456,0,2,2,5
2,56,21,22,f,1,2,161,5,3245,0,2,2,7
2,57,21,22,f,1,2,162,9,317,1,2,2,9
2,58,21,22,f,1,2,163,3,342,0,2,2,6
2,59,21,22,f,1,2,164,9,453,0,2,2,4
2,60,21,22,f,1,2,165,2,195,1,2,2,2
2,61,21,22,f,1,2,166,1,310,1,2,2,1
2,62,21,22,f,1,2,167,2,389,1,2,2,2
2,63,21,22,f,1,2,168,6,2656,0,2,2,1
2,64,21,22,f,1,2,169,1,416,1,2,2,1
2,65,21,22,f,1,2,170,6,1334,1,2,2,6
2,66,21,22,f,1,2,171,5,728,1,2,2,5
2,67,21,22,f,1,2,172,2,548,1,2,2,2
2,68,21,22,f,1,2,173,2,325,1,2,2,2
2,69,21,22,f,1,2,174,5,446,1,2,2,5
2,70,21,22,f,1,2,175,2,2693,0,2,2,3
2,71,21,22,f,1,2,176,5,306,1,2,2,5
2,72,21,22,f,1,2,177,2,1825,1,2,2,2
2,73,21,22,f,1,2,178,4,3801,0,2,2,6
2,74,21,22,f,1,2,179,3,2237,0,2,2,6
2,75,21,22,f,1,2,180,9,1064,1,2,2,9
2,76,21,22,f,1,2,181,5,2928,1,2,2,5
2,77,21,22,f,1,2,182,7,477,1,2,2,7
2,78,21,22,f,1,2,183,9,627,1,2,2,9
2,79,21,22,f,1,2,184,2,2518,0,2,2,3
2,80,21,22,f,1,2,185,5,921,1,2,2,5
2,81,21,22,f,1,2,186,5,702,1,2,2,5
2,82,21,22,f,1,2,187,6,497,1,2,2,6
2,83,21,22,f,1,2,188,5,1304,1,2,2,5
2,84,21,22,f,1,2,189,3,519,1,2,2,3
2,85,21,22,f,1,2,190,2,3405,0,2,2,5
2,86,21,22,f,1,2,191,8,200,1,2,2,8
2,87,21,22,f,1,2,192,7,2704,0,2,2,8
2,88,21,22,f,1,2,193,4,2468,1,2,2,4
2,89,21,22,f,1,2,194,6,473,1,2,2,6
2,90,21,22,f,1,2,195,1,1900,1,2,2,1
2,91,21,22,f,1,2,196,9,1982,0,2,2,7
2,92,21,22,f,1,2,197,5,401,1,2,2,5
2,93,21,22,f,1,2,198,6,2151,1,2,2,6
2,94,21,22,f,1,2,199,9,456,1,2,2,9
2,95,21,22,f,1,2,200,3,423,1,2,2,3
2,96,21,22,f,1,2,201,1,436,1,2,2,1
2,97,21,22,f,1,2,202,4,428,1,2,2,4
2,98,21,22,f,1,2,203,9,2271,0,2,2,5
2,99,21,22,f,1,2,204,1,382,1,2,2,1
2,100,21,22,f,1,2,205,3,1986,1,2,2,3
2,101,21,22,f,1,2,206,5,2208,1,2,2,5
2,102,21,22,f,1,2,207,9,1758,0,2,2,8
2,103,21,22,f,1,2,208,6,2363,1,2,2,6
2,104,21,22,f,1,2,209,7,1547,0,2,2,8
2,105,21,22,f,1,2,210,2,509,1,2,2,2
3,1,22,3,f,1,1,211,3,988,1,1,1,3
3,2,22,3,f,1,1,212,9,609,0,1,1,1
3,3,22,3,f,1,1,213,1,4709,0,1,1,9
3,4,22,3,f,1,1,214,9,2586,1,1,1,9
3,5,22,3,f,1,1,215,2,656,1,1,1,2
3,6,22,3,f,1,1,216,5,996,1,1,1,5
3,7,22,3,f,1,1,217,1,578,1,1,1,1
3,8,22,3,f,1,1,218,7,3884,0,1,1,1
3,9,22,3,f,1,1,219,4,880,1,1,1,4
3,10,22,3,f,1,1,220,6,671,0,1,1,8
3,11,22,3,f,1,1,221,1,2979,1,1,1,1
3,12,22,3,f,1,1,222,6,405,1,1,1,6
3,13,22,3,f,1,1,223,2,607,1,1,1,2
3,14,22,3,f,1,1,224,5,509,1,1,1,5
3,15,22,3,f,1,1,225,2,622,1,1,1,2
3,16,22,3,f,1,1,226,7,1922,0,1,1,8
3,17,22,3,f,1,1,227,4,682,1,1,1,4
3,18,22,3,f,1,1,228,9,1925,0,1,1,7
3,19,22,3,f,1,1,229,1,1717,1,1,1,1
3,20,22,3,f,1,1,230,8,886,1,1,1,8
3,21,22,3,f,1,1,231,5,555,1,1,1,5
3,22,22,3,f,1,1,232,8,2428,0,1,1,6
3,23,22,3,f,1,1,233,4,5328,0,1,1,9
3,24,22,3,f,1,1,234,9,3084,1,1,1,9
3,25,22,3,f,1,1,235,7,572,1,1,1,7
3,26,22,3,f,1,1,236,4,608,1,1,1,4
3,27,22,3,f,1,1,237,3,427,1,1,1,3
3,28,22,3,f,1,1,238,4,568,0,1,1,2
3,29,22,3,f,1,1,239,3,623,1,1,1,3
3,30,22,3,f,1,1,240,9,5543,1,1,1,9
3,31,22,3,f,1,1,241,5,508,1,1,1,5
3,32,22,3,f,1,1,242,8,2245,0,1,1,3
3,33,22,3,f,1,1,243,4,495,1,1,1,4
3,34,22,3,f,1,1,244,9,790,1,1,1,9
3,35,22,3,f,1,1,245,1,721,1,1,1,1
3,36,22,3,f,1,1,246,8,1001,1,1,1,8
3,37,22,3,f,1,1,247,7,838,1,1,1,7
3,38,22,3,f,1,1,248,7,643,1,1,1,7
3,39,22,3,f,1,1,249,4,743,1,1,1,4
3,40,22,3,f,1,1,250,6,1498,1,1,1,6
3,41,22,3,f,1,1,251,1,1960,0,1,1,8
3,42,22,3,f,1,1,252,3,2465,1,1,1,3
3,43,22,3,f,1,1,253,9,9062,1,1,1,9
3,44,22,3,f,1,1,254,3,2361,1,1,1,3
3,45,22,3,f,1,1,255,8,834,1,1,1,8
3,46,22,3,f,1,1,256,2,786,1,1,1,2
3,47,22,3,f,1,1,257,7,752,1,1,1,7
3,48,22,3,f,1,1,258,9,1306,1,1,1,9
3,49,22,3,f,1,1,259,7,651,1,1,1,7
3,50,22,3,f,1,1,260,9,1049,1,1,1,9
3,51,22,3,f,1,1,261,9,1791,1,1,1,9
3,52,22,3,f,1,1,262,8,1129,1,1,1,8
3,53,22,3,f,1,1,263,8,1051,0,1,1,9
3,54,22,23,f,1,2,264,2,486,1,1,1,2
3,55,22,23,f,1,2,265,7,1069,1,1,1,7
3,56,22,23,f,1,2,266,9,4491,0,1,1,8
3,57,22,23,f,1,2,267,3,641,1,1,1,3
3,58,22,23,f,1,2,268,1,1964,0,1,1,5
3,59,22,23,f,1,2,269,2,250,1,1,1,2
3,60,22,23,f,1,2,270,9,271,1,1,1,9
3,61,22,23,f,1,2,271,2,485,1,1,1,2
3,62,22,23,f,1,2,272,9,563,1,1,1,9
3,63,22,23,f,1,2,273,1,2845,0,1,1,7
3,64,22,23,f,1,2,274,1,526,0,1,1,3
3,65,22,23,f,1,2,275,3,502,0,1,1,1
3,66,22,23,f,1,2,276,1,627,1,1,1,1
3,67,22,23,f,1,2,277,9,818,1,1,1,9
3,68,22,23,f,1,2,278,6,571,1,1,1,6
3,69,22,23,f,1,2,279,8,795,0,1,1,2
3,70,22,23,f,1,2,280,7,541,1,1,1,7
3,71,22,23,f,1,2,281,9,874,1,1,1,9
3,72,22,23,f,1,2,282,1,235,1,1,1,1
3,73,22,23,f,1,2,283,3,404,1,1,1,3
3,74,22,23,f,1,2,284,9,584,1,1,1,9
3,75,22,23,f,1,2,285,2,316,1,1,1,2
3,76,22,23,f,1,2,286,9,1268,1,1,1,9
3,77,22,23,f,1,2,287,9,542,1,1,1,9
3,78,22,23,f,1,2,288,9,2388,1,1,1,9
3,79,22,23,f,1,2,289,1,3884,0,1,1,2
3,80,22,23,f,1,2,290,6,2179,0,1,1,5
3,81,22,23,f,1,2,291,2,236,1,1,1,2
3,82,22,23,f,1,2,292,9,805,0,1,1,6
3,83,22,23,f,1,2,293,1,459,1,1,1,1
3,84,22,23,f,1,2,294,4,203,1,1,1,4
3,85,22,23,f,1,2,295,7,1047,0,1,1,6
3,86,22,23,f,1,2,296,9,3437,0,1,1,2
3,87,22,23,f,1,2,297,4,369,1,1,1,4
3,88,22,23,f,1,2,298,9,1235,0,1,1,3
3,89,22,23,f,1,2,299,7,560,1,1,1,7
3,90,22,23,f,1,2,300,9,638,1,1,1,9
3,91,22,23,f,1,2,301,9,1324,0,1,1,6
3,92,22,23,f,1,2,302,6,2311,0,1,1,7
3,93,22,23,f,1,2,303,6,2414,1,1,1,6
3,94,22,23,f,1,2,304,5,472,1,1,1,5
3,95,22,23,f,1,2,305,7,964,1,1,1,7
3,96,22,23,f,1,2,306,5,212,1,1,1,5
3,97,22,23,f,1,2,307,3,138,1,1,1,3
3,98,22,23,f,1,2,308,9,1491,0,1,1,7
3,99,22,23,f,1,2,309,2,337,1,1,1,2
3,100,22,23,f,1,2,310,2,547,1,1,1,2
3,101,22,23,f,1,2,311,7,538,1,1,1,7
3,102,22,23,f,1,2,312,7,5133,0,1,1,6
3,103,22,23,f,1,2,313,3,383,1,1,1,3
3,104,22,23,f,1,2,314,5,322,1,1,1,5
3,105,22,23,f,1,2,315,2,484,0,1,1,6
4,1,22,4,f,1,1,316,8,19,1,2,1,8
4,2,22,4,f,1,1,317,1,823,1,2,1,1
4,3,22,4,f,1,1,318,9,1078,1,2,1,9
4,4,22,4,f,1,1,319,9,647,1,2,1,9
4,5,22,4,f,1,1,320,1,535,1,2,1,1
4,6,22,4,f,1,1,321,2,1662,0,2,1,4
4,7,22,4,f,1,1,322,7,833,1,2,1,7
4,8,22,4,f,1,1,323,6,638,1,2,1,6
4,9,22,4,f,1,1,324,9,953,0,2,1,1
4,10,22,4,f,1,1,325,9,260,1,2,1,9
4,11,22,4,f,1,1,326,1,929,1,2,1,1
4,12,22,4,f,1,1,327,2,905,0,2,1,1
4,13,22,4,f,1,1,328,2,759,0,2,1,1
4,14,22,4,f,1,1,329,1,1913,0,2,1,5
4,15,22,4,f,1,1,330,2,410,1,2,1,2
4,16,22,4,f,1,1,331,6,1526,0,2,1,5
4,17,22,4,f,1,1,332,5,558,1,2,1,5
4,18,22,4,f,1,1,333,8,1907,0,2,1,4
4,19,22,4,f,1,1,334,7,824,0,2,1,8
4,20,22,4,f,1,1,335,3,592,0,2,1,9
4,21,22,4,f,1,1,336,9,2160,1,2,1,9
4,22,22,4,f,1,1,337,5,407,1,2,1,5
4,23,22,4,f,1,1,338,2,398,1,2,1,2
4,24,22,4,f,1,1,339,7,320,1,2,1,7
4,25,22,4,f,1,1,340,2,433,0,2,1,1
4,26,22,4,f,1,1,341,9,317,1,2,1,9
4,27,22,4,f,1,1,342,8,367,0,2,1,4
4,28,22,4,f,1,1,343,2,335,1,2,1,2
4,29,22,4,f,1,1,344,3,618,1,2,1,3
4,30,22,4,f,1,1,345,7,88,1,2,1,7
4,31,22,4,f,1,1,346,1,294,0,2,1,5
4,32,22,4,f,1,1,347,1,2223,1,2,1,1
4,33,22,4,f,1,1,348,4,258,1,2,1,4
4,34,22,4,f,1,1,349,9,721,0,2,1,2
4,35,22,4,f,1,1,350,5,1753,0,2,1,1
4,36,22,4,f,1,1,351,2,282,1,2,1,2
4,37,22,4,f,1,1,352,9,1222,1,2,1,9
4,38,22,4,f,1,1,353,6,374,1,2,1,6
4,39,22,4,f,1,1,354,2,463,1,2,1,2
4,40,22,4,f,1,1,355,9,97,1,2,1,9
4,41,22,4,f,1,1,356,8,538,0,2,1,2
4,42,22,4,f,1,1,357,4,1,1,2,1,4
4,43,22,4,f,1,1,358,2,1055,0,2,1,3
4,44,22,4,f,1,1,359,6,577,1,2,1,6
4,45,22,4,f,1,1,360,5,11,1,2,1,5
4,46,22,4,f,1,1,361,3,1578,1,2,1,3
4,47,22,4,f,1,1,362,6,1256,1,2,1,6
4,48,22,4,f,1,1,363,9,723,0,2,1,7
4,49,22,4,f,1,1,364,2,752,0,2,1,5
4,50,22,4,f,1,1,365,2,169,0,2,1,5
4,51,22,4,f,1,1,366,9,1,1,2,1,9
4,52,22,4,f,1,1,367,4,589,0,2,1,6
4,53,22,4,f,1,1,368,6,804,1,2,1,6
4,54,22,24,f,1,2,369,2,1,1,2,1,2
4,55,22,24,f,1,2,370,3,377,0,2,1,4
4,56,22,24,f,1,2,371,2,590,0,2,1,9
4,57,22,24,f,1,2,372,9,1327,0,2,1,3
4,58,22,24,f,1,2,373,5,1669,0,2,1,8
4,59,22,24,f,1,2,374,8,192,1,2,1,8
4,60,22,24,f,1,2,375,8,169,1,2,1,8
4,61,22,24,f,1,2,376,4,587,1,2,1,4
4,62,22,24,f,1,2,377,7,119,1,2,1,7
4,63,22,24,f,1,2,378,7,605,1,2,1,7
4,64,22,24,f,1,2,379,1,388,0,2,1,5
4,65,22,24,f,1,2,380,3,326,0,2,1,1
4,66,22,24,f,1,2,381,2,2,1,2,1,2
4,67,22,24,f,1,2,382,2,1,1,2,1,2
4,68,22,24,f,1,2,383,1,194,0,2,1,7
4,69,22,24,f,1,2,384,6,917,1,2,1,6
4,70,22,24,f,1,2,385,9,270,1,2,1,9
4,71,22,24,f,1,2,386,4,1792,1,2,1,4
4,72,22,24,f,1,2,387,2,869,0,2,1,5
4,73,22,24,f,1,2,388,8,324,1,2,1,8
4,74,22,24,f,1,2,389,5,114,1,2,1,5
4,75,22,24,f,1,2,390,1,950,0,2,1,7
4,76,22,24,f,1,2,391,3,838,0,2,1,1
4,77,22,24,f,1,2,392,1,517,1,2,1,1
4,78,22,24,f,1,2,393,9,87,1,2,1,9
4,79,22,24,f,1,2,394,6,859,1,2,1,6
4,80,22,24,f,1,2,395,7,480,1,2,1,7
4,81,22,24,f,1,2,396,9,1152,0,2,1,2
4,82,22,24,f,1,2,397,9,538,0,2,1,8
4,83,22,24,f,1,2,398,5,158,1,2,1,5
4,84,22,24,f,1,2,399,4,89,1,2,1,4
4,85,22,24,f,1,2,400,1,96,0,2,1,3
4,86,22,24,f,1,2,401,9,357,0,2,1,1
4,87,22,24,f,1,2,402,8,360,1,2,1,8
4,88,22,24,f,1,2,403,4,144,1,2,1,4
4,89,22,24,f,1,2,404,7,405,0,2,1,8
4,90,22,24,f,1,2,405,9,1423,1,2,1,9
4,91,22,24,f,1,2,406,9,498,1,2,1,9
4,92,22,24,f,1,2,407,2,176,1,2,1,2
4,93,22,24,f,1,2,408,5,318,1,2,1,5
4,94,22,24,f,1,2,409,9,24,1,2,1,9
4,95,22,24,f,1,2,410,6,621,1,2,1,6
4,96,22,24,f,1,2,411,9,352,1,2,1,9
4,97,22,24,f,1,2,412,5,743,1,2,1,5
4,98,22,24,f,1,2,413,6,316,1,2,1,6
4,99,22,24,f,1,2,414,6,71,1,2,1,6
4,100,22,24,f,1,2,415,2,216,1,2,1,2
4,101,22,24,f,1,2,416,3,1,1,2,1,3
4,102,22,24,f,1,2,417,5,1,0,2,1,2
4,103,22,24,f,1,2,418,2,735,1,2,1,2
4,104,22,24,f,1,2,419,2,423,0,2,1,7
4,105,22,24,f,1,2,420,1,1000,1,2,1,1
5,1,32,5,m,1,1,421,8,1251,1,1,2,8
5,2,32,5,m,1,1,422,1,1199,1,1,2,1
5,3,32,5,m,1,1,423,9,965,1,1,2,9
5,4,32,5,m,1,1,424,9,968,1,1,2,9
5,5,32,5,m,1,1,425,7,1624,0,1,2,1
5,6,32,5,m,1,1,426,7,1825,1,1,2,7
5,7,32,5,m,1,1,427,8,854,0,1,2,7
5,8,32,5,m,1,1,428,8,746,1,1,2,8
5,9,32,5,m,1,1,429,6,849,0,1,2,2
5,10,32,5,m,1,1,430,7,580,1,1,2,7
5,11,32,5,m,1,1,431,6,961,1,1,2,6
5,12,32,5,m,1,1,432,6,1985,0,1,2,5
5,13,32,5,m,1,1,433,2,527,1,1,2,2
5,14,32,5,m,1,1,434,7,521,1,1,2,7
5,15,32,5,m,1,1,435,9,606,0,1,2,2
5,16,32,5,m,1,1,436,6,1968,0,1,2,2
5,17,32,5,m,1,1,437,3,1239,0,1,2,5
5,18,32,5,m,1,1,438,1,545,1,1,2,1
5,19,32,5,m,1,1,439,4,534,1,1,2,4
5,20,32,5,m,1,1,440,4,768,0,1,2,2
5,21,32,5,m,1,1,441,9,463,1,1,2,9
5,22,32,5,m,1,1,442,4,440,1,1,2,4
5,23,32,5,m,1,1,443,5,471,1,1,2,5
5,24,32,5,m,1,1,444,4,368,0,1,2,2
5,25,32,5,m,1,1,445,7,438,1,1,2,7
5,26,32,5,m,1,1,446,8,285,1,1,2,8
5,27,32,5,m,1,1,447,6,312,1,1,2,6
5,28,32,5,m,1,1,448,2,318,1,1,2,2
5,29,32,5,m,1,1,449,9,304,1,1,2,9
5,30,32,5,m,1,1,450,2,551,0,1,2,1
5,31,32,5,m,1,1,451,5,506,1,1,2,5
5,32,32,5,m,1,1,452,2,1344,0,1,2,9
5,33,32,5,m,1,1,453,4,374,1,1,2,4
5,34,32,5,m,1,1,454,8,501,1,1,2,8
5,35,32,5,m,1,1,455,1,380,1,1,2,1
5,36,32,5,m,1,1,456,5,378,1,1,2,5
5,37,32,5,m,1,1,457,3,364,1,1,2,3
5,38,32,5,m,1,1,458,2,519,0,1,2,1
5,39,32,5,m,1,1,459,5,391,1,1,2,5
5,40,32,5,m,1,1,460,6,629,1,1,2,6
5,41,32,5,m,1,1,461,9,354,0,1,2,8
5,42,32,5,m,1,1,462,9,455,0,1,2,3
5,43,32,5,m,1,1,463,7,1478,0,1,2,8
5,44,32,5,m,1,1,464,7,349,1,1,2,7
5,45,32,5,m,1,1,465,5,650,1,1,2,5
5,46,32,5,m,1,1,466,3,558,0,1,2,2
5,47,32,5,m,1,1,467,6,503,1,1,2,6
5,48,32,5,m,1,1,468,8,885,0,1,2,7
5,49,32,5,m,1,1,469,2,2151,0,1,2,3
5,50,32,5,m,1,1,470,7,677,1,1,2,7
5,51,32,5,m,1,1,471,9,811,0,1,2,1
5,52,32,5,m,1,1,472,6,373,1,1,2,6
5,53,32,5,m,1,1,473,3,486,1,1,2,3
5,54,32,25,m,1,2,474,9,407,1,1,2,9
5,55,32,25,m,1,2,475,8,416,1,1,2,8
5,56,32,25,m,1,2,476,2,486,0,1,2,9
5,57,32,25,m,1,2,477,9,488,0,1,2,3
5,58,32,25,m,1,2,478,5,560,0,1,2,8
5,59,32,25,m,1,2,479,8,288,1,1,2,8
5,60,32,25,m,1,2,480,2,517,0,1,2,8
5,61,32,25,m,1,2,481,3,644,1,1,2,3
5,62,32,25,m,1,2,482,2,465,0,1,2,3
5,63,32,25,m,1,2,483,5,444,1,1,2,5
5,64,32,25,m,1,2,484,2,274,1,1,2,2
5,65,32,25,m,1,2,485,1,358,0,1,2,2
5,66,32,25,m,1,2,486,4,427,1,1,2,4
5,67,32,25,m,1,2,487,4,568,1,1,2,4
5,68,32,25,m,1,2,488,3,510,1,1,2,3
5,69,32,25,m,1,2,489,3,534,0,1,2,8
5,70,32,25,m,1,2,490,1,446,1,1,2,1
5,71,32,25,m,1,2,491,6,336,1,1,2,6
5,72,32,25,m,1,2,492,3,278,0,1,2,9
5,73,32,25,m,1,2,493,5,558,1,1,2,5
5,74,32,25,m,1,2,494,3,608,1,1,2,3
5,75,32,25,m,1,2,495,3,864,0,1,2,2
5,76,32,25,m,1,2,496,7,584,1,1,2,7
5,77,32,25,m,1,2,497,7,1968,0,1,2,8
5,78,32,25,m,1,2,498,6,85,1,1,2,6
5,79,32,25,m,1,2,499,3,1107,0,1,2,6
5,80,32,25,m,1,2,500,8,801,0,1,2,5
5,81,32,25,m,1,2,501,6,496,1,1,2,6
5,82,32,25,m,1,2,502,9,448,1,1,2,9
5,83,32,25,m,1,2,503,4,512,0,1,2,5
5,84,32,25,m,1,2,504,1,610,1,1,2,1
5,85,32,25,m,1,2,505,3,800,1,1,2,3
5,86,32,25,m,1,2,506,6,526,1,1,2,6
5,87,32,25,m,1,2,507,8,1034,0,1,2,6
5,88,32,25,m,1,2,508,6,281,1,1,2,6
5,89,32,25,m,1,2,509,3,576,0,1,2,1
5,90,32,25,m,1,2,510,8,312,1,1,2,8
5,91,32,25,m,1,2,511,5,316,1,1,2,5
5,92,32,25,m,1,2,512,5,766,1,1,2,5
5,93,32,25,m,1,2,513,9,490,1,1,2,9
5,94,32,25,m,1,2,514,4,121,1,1,2,4
5,95,32,25,m,1,2,515,6,296,1,1,2,6
5,96,32,25,m,1,2,516,2,545,1,1,2,2
5,97,32,25,m,1,2,517,2,438,0,1,2,6
5,98,32,25,m,1,2,518,2,334,1,1,2,2
5,99,32,25,m,1,2,519,7,232,1,1,2,7
5,100,32,25,m,1,2,520,8,402,1,1,2,8
5,101,32,25,m,1,2,521,4,347,1,1,2,4
5,102,32,25,m,1,2,522,9,688,1,1,2,9
5,103,32,25,m,1,2,523,8,575,0,1,2,2
5,104,32,25,m,1,2,524,3,331,1,1,2,3
5,105,32,25,m,1,2,525,9,270,1,1,2,9
6,1,39,6,m,1,1,526,9,196,1,2,2,9
6,2,39,6,m,1,1,527,8,1629,0,2,2,1
6,3,39,6,m,1,1,528,9,578,1,2,2,9
6,4,39,6,m,1,1,529,4,2036,0,2,2,2
6,5,39,6,m,1,1,530,5,390,1,2,2,5
6,6,39,6,m,1,1,531,1,577,1,2,2,1
6,7,39,6,m,1,1,532,3,1159,0,2,2,4
6,8,39,6,m,1,1,533,9,422,1,2,2,9
6,9,39,6,m,1,1,534,7,544,1,2,2,7
6,10,39,6,m,1,1,535,9,2276,0,2,2,2
6,11,39,6,m,1,1,536,9,751,0,2,2,3
6,12,39,6,m,1,1,537,1,687,1,2,2,1
6,13,39,6,m,1,1,538,2,2566,0,2,2,6
6,14,39,6,m,1,1,539,1,591,0,2,2,5
6,15,39,6,m,1,1,540,8,760,1,2,2,8
6,16,39,6,m,1,1,541,1,508,1,2,2,1
6,17,39,6,m,1,1,542,3,1382,1,2,2,3
6,18,39,6,m,1,1,543,9,691,1,2,2,9
6,19,39,6,m,1,1,544,6,573,1,2,2,6
6,20,39,6,m,1,1,545,9,575,0,2,2,6
6,21,39,6,m,1,1,546,3,584,1,2,2,3
6,22,39,6,m,1,1,547,6,189,1,2,2,6
6,23,39,6,m,1,1,548,9,166,1,2,2,9
6,24,39,6,m,1,1,549,9,498,1,2,2,9
6,25,39,6,m,1,1,550,2,469,1,2,2,2
6,26,39,6,m,1,1,551,7,501,0,2,2,3
6,27,39,6,m,1,1,552,8,2368,0,2,2,3
6,28,39,6,m,1,1,553,3,833,0,2,2,4
6,29,39,6,m,1,1,554,6,2104,0,2,2,4
6,30,39,6,m,1,1,555,8,489,1,2,2,8
6,31,39,6,m,1,1,556,8,1118,0,2,2,5
6,32,39,6,m,1,1,557,9,624,1,2,2,9
6,33,39,6,m,1,1,558,2,433,0,2,2,5
6,34,39,6,m,1,1,559,8,1823,0,2,2,5
6,35,39,6,m,1,1,560,1,478,1,2,2,1
6,36,39,6,m,1,1,561,5,989,0,2,2,4
6,37,39,6,m,1,1,562,9,547,1,2,2,9
6,38,39,6,m,1,1,563,8,699,0,2,2,6
6,39,39,6,m,1,1,564,5,1371,0,2,2,7
6,40,39,6,m,1,1,565,8,343,1,2,2,8
6,41,39,6,m,1,1,566,6,1182,0,2,2,5
6,42,39,6,m,1,1,567,6,400,1,2,2,6
6,43,39,6,m,1,1,568,4,601,1,2,2,4
6,44,39,6,m,1,1,569,9,2599,1,2,2,9
6,45,39,6,m,1,1,570,9,308,1,2,2,9
6,46,39,6,m,1,1,571,7,456,1,2,2,7
6,47,39,6,m,1,1,572,9,367,1,2,2,9
6,48,39,6,m,1,1,573,4,494,1,2,2,4
6,49,39,6,m,1,1,574,3,795,1,2,2,3
6,50,39,6,m,1,1,575,9,447,1,2,2,9
6,51,39,6,m,1,1,576,7,936,0,2,2,5
6,52,39,6,m,1,1,577,9,631,0,2,2,8
6,53,39,6,m,1,1,578,6,2648,0,2,2,8
6,54,39,26,m,1,2,579,3,510,1,2,2,3
6,55,39,26,m,1,2,580,4,540,0,2,2,9
6,56,39,26,m,1,2,581,7,1437,1,2,2,7
6,57,39,26,m,1,2,582,2,627,0,2,2,8
6,58,39,26,m,1,2,583,1,774,0,2,2,5
6,59,39,26,m,1,2,584,5,392,1,2,2,5
6,60,39,26,m,1,2,585,9,573,1,2,2,9
6,61,39,26,m,1,2,586,8,1066,1,2,2,8
6,62,39,26,m,1,2,587,3,269,1,2,2,3
6,63,39,26,m,1,2,588,5,449,1,2,2,5
6,64,39,26,m,1,2,589,6,1985,1,2,2,6
6,65,39,26,m,1,2,590,3,217,1,2,2,3
6,66,39,26,m,1,2,591,9,368,0,2,2,4
6,67,39,26,m,1,2,592,5,742,1,2,2,5
6,68,39,26,m,1,2,593,9,371,1,2,2,9
6,69,39,26,m,1,2,594,2,470,1,2,2,2
6,70,39,26,m,1,2,595,7,586,1,2,2,7
6,71,39,26,m,1,2,596,8,333,1,2,2,8
6,72,39,26,m,1,2,597,4,1655,0,2,2,3
6,73,39,26,m,1,2,598,9,366,1,2,2,9
6,74,39,26,m,1,2,599,2,2188,0,2,2,1
6,75,39,26,m,1,2,600,1,545,0,2,2,9
6,76,39,26,m,1,2,601,8,725,1,2,2,8
6,77,39,26,m,1,2,602,2,476,1,2,2,2
6,78,39,26,m,1,2,603,1,2104,1,2,2,1
6,79,39,26,m,1,2,604,2,1663,1,2,2,2
6,80,39,26,m,1,2,605,8,391,1,2,2,8
6,81,39,26,m,1,2,606,9,2551,0,2,2,5
6,82,39,26,m,1,2,607,8,489,1,2,2,8
6,83,39,26,m,1,2,608,6,2501,0,2,2,8
6,84,39,26,m,1,2,609,1,253,1,2,2,1
6,85,39,26,m,1,2,610,3,586,0,2,2,5
6,86,39,26,m,1,2,611,6,365,1,2,2,6
6,87,39,26,m,1,2,612,7,381,1,2,2,7
6,88,39,26,m,1,2,613,8,541,1,2,2,8
6,89,39,26,m,1,2,614,3,327,1,2,2,3
6,90,39,26,m,1,2,615,6,2106,0,2,2,5
6,91,39,26,m,1,2,616,1,294,1,2,2,1
6,92,39,26,m,1,2,617,7,536,1,2,2,7
6,93,39,26,m,1,2,618,7,693,1,2,2,7
6,94,39,26,m,1,2,619,4,301,1,2,2,4
6,95,39,26,m,1,2,620,8,504,1,2,2,8
6,96,39,26,m,1,2,621,2,618,0,2,2,6
6,97,39,26,m,1,2,622,1,1594,0,2,2,7
6,98,39,26,m,1,2,623,2,265,1,2,2,2
6,99,39,26,m,1,2,624,2,1,1,2,2,2
6,100,39,26,m,1,2,625,7,2170,0,2,2,5
6,101,39,26,m,1,2,626,4,1139,0,2,2,5
6,102,39,26,m,1,2,627,5,2010,0,2,2,4
6,103,39,26,m,1,2,628,2,391,1,2,2,2
6,104,39,26,m,1,2,629,8,735,1,2,2,8
6,105,39,26,m,1,2,630,7,1141,0,2,2,5
7,1,25,7,f,1,1,631,8,1332,1,1,1,8
7,2,25,7,f,1,1,632,1,1129,1,1,1,1
7,3,25,7,f,1,1,633,5,929,0,1,1,9
7,4,25,7,f,1,1,634,3,540,1,1,1,3
7,5,25,7,f,1,1,635,9,638,1,1,1,9
7,6,25,7,f,1,1,636,1,3685,0,1,1,7
7,7,25,7,f,1,1,637,9,5273,0,1,1,4
7,8,25,7,f,1,1,638,1,6189,0,1,1,8
7,9,25,7,f,1,1,639,3,591,1,1,1,3
7,10,25,7,f,1,1,640,7,389,1,1,1,7
7,11,25,7,f,1,1,641,6,810,1,1,1,6
7,12,25,7,f,1,1,642,5,693,1,1,1,5
7,13,25,7,f,1,1,643,6,5256,1,1,1,6
7,14,25,7,f,1,1,644,8,6676,0,1,1,9
7,15,25,7,f,1,1,645,9,2202,0,1,1,2
7,16,25,7,f,1,1,646,9,538,0,1,1,2
7,17,25,7,f,1,1,647,3,3216,0,1,1,5
7,18,25,7,f,1,1,648,1,703,1,1,1,1
7,19,25,7,f,1,1,649,4,412,1,1,1,4
7,20,25,7,f,1,1,650,2,371,1,1,1,2
7,21,25,7,f,1,1,651,9,766,0,1,1,3
7,22,25,7,f,1,1,652,3,2243,0,1,1,4
7,23,25,7,f,1,1,653,4,1103,1,1,1,4
7,24,25,7,f,1,1,654,5,3320,1,1,1,5
7,25,25,7,f,1,1,655,2,228,1,1,1,2
7,26,25,7,f,1,1,656,4,553,0,1,1,3
7,27,25,7,f,1,1,657,4,1271,0,1,1,6
7,28,25,7,f,1,1,658,8,567,1,1,1,8
7,29,25,7,f,1,1,659,5,642,0,1,1,6
7,30,25,7,f,1,1,660,8,497,0,1,1,7
7,31,25,7,f,1,1,661,8,457,0,1,1,7
7,32,25,7,f,1,1,662,7,519,1,1,1,7
7,33,25,7,f,1,1,663,5,492,1,1,1,5
7,34,25,7,f,1,1,664,6,201,1,1,1,6
7,35,25,7,f,1,1,665,3,256,1,1,1,3
7,36,25,7,f,1,1,666,5,332,1,1,1,5
7,37,25,7,f,1,1,667,2,548,0,1,1,9
7,38,25,7,f,1,1,668,8,3482,0,1,1,9
7,39,25,7,f,1,1,669,8,691,1,1,1,8
7,40,25,7,f,1,1,670,3,242,1,1,1,3
7,41,25,7,f,1,1,671,9,3972,0,1,1,4
7,42,25,7,f,1,1,672,1,1400,0,1,1,9
7,43,25,7,f,1,1,673,5,2540,0,1,1,6
7,44,25,7,f,1,1,674,4,418,1,1,1,4
7,45,25,7,f,1,1,675,9,468,1,1,1,9
7,46,25,7,f,1,1,676,5,374,1,1,1,5
7,47,25,7,f,1,1,677,6,1874,1,1,1,6
7,48,25,7,f,1,1,678,1,995,1,1,1,1
7,49,25,7,f,1,1,679,2,4290,0,1,1,7
7,50,25,7,f,1,1,680,2,91,1,1,1,2
7,51,25,7,f,1,1,681,3,427,1,1,1,3
7,52,25,7,f,1,1,682,6,1138,0,1,1,3
7,53,25,7,f,1,1,683,1,1099,1,1,1,1
7,54,25,27,f,1,2,684,5,483,1,1,1,5
7,55,25,27,f,1,2,685,6,558,1,1,1,6
7,56,25,27,f,1,2,686,5,711,0,1,1,6
7,57,25,27,f,1,2,687,3,645,0,1,1,5
7,58,25,27,f,1,2,688,7,1459,1,1,1,7
7,59,25,27,f,1,2,689,9,1213,1,1,1,9
7,60,25,27,f,1,2,690,7,293,1,1,1,7
7,61,25,27,f,1,2,691,3,247,0,1,1,6
7,62,25,27,f,1,2,692,3,196,1,1,1,3
7,63,25,27,f,1,2,693,5,2222,1,1,1,5
7,64,25,27,f,1,2,694,3,1418,0,1,1,2
7,65,25,27,f,1,2,695,2,91,1,1,1,2
7,66,25,27,f,1,2,696,4,184,1,1,1,4
7,67,25,27,f,1,2,697,4,145,1,1,1,4
7,68,25,27,f,1,2,698,3,344,1,1,1,3
7,69,25,27,f,1,2,699,9,857,0,1,1,8
7,70,25,27,f,1,2,700,5,552,1,1,1,5
7,71,25,27,f,1,2,701,3,4082,1,1,1,3
7,72,25,27,f,1,2,702,7,496,0,1,1,4
7,73,25,27,f,1,2,703,3,180,1,1,1,3
7,74,25,27,f,1,2,704,4,239,1,1,1,4
7,75,25,27,f,1,2,705,9,985,1,1,1,9
7,76,25,27,f,1,2,706,8,1302,0,1,1,4
7,77,25,27,f,1,2,707,8,668,1,1,1,8
7,78,25,27,f,1,2,708,8,1350,1,1,1,8
7,79,25,27,f,1,2,709,9,526,1,1,1,9
7,80,25,27,f,1,2,710,5,442,1,1,1,5
7,81,25,27,f,1,2,711,3,908,0,1,1,7
7,82,25,27,f,1,2,712,4,1444,0,1,1,2
7,83,25,27,f,1,2,713,7,502,1,1,1,7
7,84,25,27,f,1,2,714,8,619,1,1,1,8
7,85,25,27,f,1,2,715,7,1199,0,1,1,9
7,86,25,27,f,1,2,716,2,1905,0,1,1,9
7,87,25,27,f,1,2,717,2,275,1,1,1,2
7,88,25,27,f,1,2,718,1,258,1,1,1,1
7,89,25,27,f,1,2,719,9,602,0,1,1,4
7,90,25,27,f,1,2,720,9,563,1,1,1,9
7,91,25,27,f,1,2,721,9,888,1,1,1,9
7,92,25,27,f,1,2,722,2,189,1,1,1,2
7,93,25,27,f,1,2,723,5,353,1,1,1,5
7,94,25,27,f,1,2,724,9,281,1,1,1,9
7,95,25,27,f,1,2,725,6,595,1,1,1,6
7,96,25,27,f,1,2,726,9,294,1,1,1,9
7,97,25,27,f,1,2,727,5,284,1,1,1,5
7,98,25,27,f,1,2,728,5,2025,0,1,1,6
7,99,25,27,f,1,2,729,3,165,1,1,1,3
7,100,25,27,f,1,2,730,4,292,1,1,1,4
7,101,25,27,f,1,2,731,6,1309,0,1,1,4
7,102,25,27,f,1,2,732,9,3686,0,1,1,3
7,103,25,27,f,1,2,733,3,1132,0,1,1,2
7,104,25,27,f,1,2,734,8,1126,0,1,1,1
7,105,25,27,f,1,2,735,4,635,1,1,1,4
8,1,44,8,m,1,1,736,5,345,1,2,1,5
8,2,44,8,m,1,1,737,9,2541,0,2,1,7
8,3,44,8,m,1,1,738,7,246,0,2,1,6
8,4,44,8,m,1,1,739,7,275,0,2,1,3
8,5,44,8,m,1,1,740,3,696,0,2,1,1
8,6,44,8,m,1,1,741,9,923,0,2,1,4
8,7,44,8,m,1,1,742,3,873,0,2,1,6
8,8,44,8,m,1,1,743,4,645,1,2,1,4
8,9,44,8,m,1,1,744,6,941,0,2,1,3
8,10,44,8,m,1,1,745,9,1166,0,2,1,7
8,11,44,8,m,1,1,746,3,1162,0,2,1,9
8,12,44,8,m,1,1,747,7,957,0,2,1,8
8,13,44,8,m,1,1,748,9,991,0,2,1,1
8,14,44,8,m,1,1,749,8,1184,0,2,1,3
8,15,44,8,m,1,1,750,7,925,0,2,1,8
8,16,44,8,m,1,1,751,3,1220,0,2,1,2
8,17,44,8,m,1,1,752,8,1220,0,2,1,2
8,18,44,8,m,1,1,753,6,1390,0,2,1,5
8,19,44,8,m,1,1,754,6,807,0,2,1,1
8,20,44,8,m,1,1,755,4,1095,0,2,1,6
8,21,44,8,m,1,1,756,3,1315,0,2,1,7
8,22,44,8,m,1,1,757,3,699,0,2,1,1
8,23,44,8,m,1,1,758,8,1027,0,2,1,4
8,24,44,8,m,1,1,759,8,779,0,2,1,2
8,25,44,8,m,1,1,760,9,1007,0,2,1,4
8,26,44,8,m,1,1,761,2,996,0,2,1,6
8,27,44,8,m,1,1,762,9,1140,0,2,1,6
8,28,44,8,m,1,1,763,3,1947,0,2,1,7
8,29,44,8,m,1,1,764,8,879,0,2,1,5
8,30,44,8,m,1,1,765,3,1064,1,2,1,3
8,31,44,8,m,1,1,766,5,2196,0,2,1,4
8,32,44,8,m,1,1,767,2,759,0,2,1,8
8,33,44,8,m,1,1,768,2,828,1,2,1,2
8,34,44,8,m,1,1,769,2,815,0,2,1,6
8,35,44,8,m,1,1,770,4,763,0,2,1,6
8,36,44,8,m,1,1,771,3,806,1,2,1,3
8,37,44,8,m,1,1,772,7,990,0,2,1,5
8,38,44,8,m,1,1,773,8,930,0,2,1,6
8,39,44,8,m,1,1,774,8,1086,0,2,1,6
8,40,44,8,m,1,1,775,9,1052,0,2,1,2
8,41,44,8,m,1,1,776,3,1216,0,2,1,5
8,42,44,8,m,1,1,777,1,847,0,2,1,7
8,43,44,8,m,1,1,778,1,1320,0,2,1,5
8,44,44,8,m,1,1,779,8,553,1,2,1,8
8,45,44,8,m,1,1,780,4,1346,0,2,1,9
8,46,44,8,m,1,1,781,7,818,0,2,1,6
8,47,44,8,m,1,1,782,4,743,1,2,1,4
8,48,44,8,m,1,1,783,8,993,0,2,1,7
8,49,44,8,m,1,1,784,8,1056,1,2,1,8
8,50,44,8,m,1,1,785,2,698,1,2,1,2
8,51,44,8,m,1,1,786,9,685,1,2,1,9
8,52,44,8,m,1,1,787,7,928,1,2,1,7
8,53,44,8,m,1,1,788,1,2072,0,2,1,2
8,54,44,28,m,1,2,789,6,1644,0,2,1,7
8,55,44,28,m,1,2,790,9,1899,1,2,1,9
8,56,44,28,m,1,2,791,7,851,1,2,1,7
8,57,44,28,m,1,2,792,9,2456,0,2,1,5
8,58,44,28,m,1,2,793,1,1120,1,2,1,1
8,59,44,28,m,1,2,794,9,1020,1,2,1,9
8,60,44,28,m,1,2,795,2,1139,0,2,1,6
8,61,44,28,m,1,2,796,2,1079,0,2,1,1
8,62,44,28,m,1,2,797,7,1105,1,2,1,7
8,63,44,28,m,1,2,798,2,758,0,2,1,5
8,64,44,28,m,1,2,799,7,868,1,2,1,7
8,65,44,28,m,1,2,800,9,1338,1,2,1,9
8,66,44,28,m,1,2,801,9,645,1,2,1,9
8,67,44,28,m,1,2,802,9,691,1,2,1,9
8,68,44,28,m,1,2,803,1,750,0,2,1,8
8,69,44,28,m,1,2,804,5,1588,1,2,1,5
8,70,44,28,m,1,2,805,4,1106,1,2,1,4
8,71,44,28,m,1,2,806,1,891,0,2,1,2
8,72,44,28,m,1,2,807,5,662,1,2,1,5
8,73,44,28,m,1,2,808,9,804,0,2,1,8
8,74,44,28,m,1,2,809,8,1165,0,2,1,7
8,75,44,28,m,1,2,810,3,1475,0,2,1,7
8,76,44,28,m,1,2,811,4,891,1,2,1,4
8,77,44,28,m,1,2,812,3,868,1,2,1,3
8,78,44,28,m,1,2,813,3,636,1,2,1,3
8,79,44,28,m,1,2,814,2,837,0,2,1,7
8,80,44,28,m,1,2,815,1,572,1,2,1,1
8,81,44,28,m,1,2,816,8,954,1,2,1,8
8,82,44,28,m,1,2,817,4,1334,1,2,1,4
8,83,44,28,m,1,2,818,8,915,0,2,1,9
8,84,44,28,m,1,2,819,2,773,0,2,1,5
8,85,44,28,m,1,2,820,7,829,1,2,1,7
8,86,44,28,m,1,2,821,6,629,1,2,1,6
8,87,44,28,m,1,2,822,8,836,1,2,1,8
8,88,44,28,m,1,2,823,9,844,0,2,1,7
8,89,44,28,m,1,2,824,1,707,1,2,1,1
8,90,44,28,m,1,2,825,9,991,0,2,1,1
8,91,44,28,m,1,2,826,8,724,1,2,1,8
8,92,44,28,m,1,2,827,7,1214,1,2,1,7
8,93,44,28,m,1,2,828,3,677,0,2,1,6
8,94,44,28,m,1,2,829,4,1165,0,2,1,7
8,95,44,28,m,1,2,830,9,836,0,2,1,1
8,96,44,28,m,1,2,831,4,760,1,2,1,4
8,97,44,28,m,1,2,832,5,1307,1,2,1,5
8,98,44,28,m,1,2,833,7,699,1,2,1,7
8,99,44,28,m,1,2,834,5,640,1,2,1,5
8,100,44,28,m,1,2,835,7,1925,0,2,1,6
8,101,44,28,m,1,2,836,4,1085,1,2,1,4
8,102,44,28,m,1,2,837,9,1072,1,2,1,9
8,103,44,28,m,1,2,838,8,845,1,2,1,8
8,104,44,28,m,1,2,839,7,785,1,2,1,7
8,105,44,28,m,1,2,840,2,776,1,2,1,2
9,1,27,9,f,1,1,841,4,1406,1,1,2,4
9,2,27,9,f,1,1,842,4,2196,1,1,2,4
9,3,27,9,f,1,1,843,8,2024,0,1,2,1
9,4,27,9,f,1,1,844,6,1823,0,1,2,8
9,5,27,9,f,1,1,845,9,1562,0,1,2,4
9,6,27,9,f,1,1,846,1,6183,0,1,2,3
9,7,27,9,f,1,1,847,9,2012,1,1,2,9
9,8,27,9,f,1,1,848,2,1038,1,1,2,2
9,9,27,9,f,1,1,849,1,940,1,1,2,1
9,10,27,9,f,1,1,850,2,1345,1,1,2,2
9,11,27,9,f,1,1,851,2,1038,1,1,2,2
9,12,27,9,f,1,1,852,2,2362,1,1,2,2
9,13,27,9,f,1,1,853,1,1494,1,1,2,1
9,14,27,9,f,1,1,854,2,1696,0,1,2,1
9,15,27,9,f,1,1,855,1,6218,0,1,2,4
9,16,27,9,f,1,1,856,4,2876,1,1,2,4
9,17,27,9,f,1,1,857,6,1277,1,1,2,6
9,18,27,9,f,1,1,858,4,771,1,1,2,4
9,19,27,9,f,1,1,859,7,6887,0,1,2,1
9,20,27,9,f,1,1,860,5,1036,1,1,2,5
9,21,27,9,f,1,1,861,6,1612,1,1,2,6
9,22,27,9,f,1,1,862,8,1626,1,1,2,8
9,23,27,9,f,1,1,863,3,904,1,1,2,3
9,24,27,9,f,1,1,864,7,10298,1,1,2,7
9,25,27,9,f,1,1,865,2,6190,1,1,2,2
9,26,27,9,f,1,1,866,9,1452,1,1,2,9
9,27,27,9,f,1,1,867,5,7948,0,1,2,2
9,28,27,9,f,1,1,868,4,3155,1,1,2,4
9,29,27,9,f,1,1,869,4,2896,1,1,2,4
9,30,27,9,f,1,1,870,3,2742,1,1,2,3
9,31,27,9,f,1,1,871,7,972,1,1,2,7
9,32,27,9,f,1,1,872,2,1739,1,1,2,2
9,33,27,9,f,1,1,873,9,4549,0,1,2,1
9,34,27,9,f,1,1,874,6,2972,1,1,2,6
9,35,27,9,f,1,1,875,8,1921,0,1,2,2
9,36,27,9,f,1,1,876,3,7005,0,1,2,7
9,37,27,9,f,1,1,877,1,1475,1,1,2,1
9,38,27,9,f,1,1,878,9,4219,0,1,2,2
9,39,27,9,f,1,1,879,6,626,1,1,2,6
9,40,27,9,f,1,1,880,6,1089,1,1,2,6
9,41,27,9,f,1,1,881,9,1999,0,1,2,8
9,42,27,9,f,1,1,882,2,2404,0,1,2,9
9,43,27,9,f,1,1,883,7,3187,1,1,2,7
9,44,27,9,f,1,1,884,9,1749,1,1,2,9
9,45,27,9,f,1,1,885,4,1251,1,1,2,4
9,46,27,9,f,1,1,886,8,1215,1,1,2,8
9,47,27,9,f,1,1,887,5,1286,1,1,2,5
9,48,27,9,f,1,1,888,1,5025,0,1,2,3
9,49,27,9,f,1,1,889,4,1422,0,1,2,5
9,50,27,9,f,1,1,890,7,1660,1,1,2,7
9,51,27,9,f,1,1,891,8,762,1,1,2,8
9,52,27,9,f,1,1,892,7,4508,1,1,2,7
9,53,27,9,f,1,1,893,4,1564,1,1,2,4
9,54,27,29,f,1,2,894,3,963,1,1,2,3
9,55,27,29,f,1,2,895,4,2195,1,1,2,4
9,56,27,29,f,1,2,896,8,2009,1,1,2,8
9,57,27,29,f,1,2,897,6,755,1,1,2,6
9,58,27,29,f,1,2,898,7,574,1,1,2,7
9,59,27,29,f,1,2,899,2,1138,1,1,2,2
9,60,27,29,f,1,2,900,4,1949,1,1,2,4
9,61,27,29,f,1,2,901,4,3063,1,1,2,4
9,62,27,29,f,1,2,902,4,2893,0,1,2,7
9,63,27,29,f,1,2,903,2,1384,1,1,2,2
9,64,27,29,f,1,2,904,9,1752,0,1,2,2
9,65,27,29,f,1,2,905,8,830,1,1,2,8
9,66,27,29,f,1,2,906,1,3729,0,1,2,5
9,67,27,29,f,1,2,907,6,1611,1,1,2,6
9,68,27,29,f,1,2,908,6,4495,0,1,2,5
9,69,27,29,f,1,2,909,4,3174,0,1,2,9
9,70,27,29,f,1,2,910,5,1306,1,1,2,5
9,71,27,29,f,1,2,911,2,1524,1,1,2,2
9,72,27,29,f,1,2,912,4,2411,0,1,2,3
9,73,27,29,f,1,2,913,1,1748,1,1,2,1
9,74,27,29,f,1,2,914,3,1293,1,1,2,3
9,75,27,29,f,1,2,915,8,993,0,1,2,4
9,76,27,29,f,1,2,916,2,834,1,1,2,2
9,77,27,29,f,1,2,917,2,973,1,1,2,2
9,78,27,29,f,1,2,918,5,1155,1,1,2,5
9,79,27,29,f,1,2,919,5,1100,1,1,2,5
9,80,27,29,f,1,2,920,6,785,1,1,2,6
9,81,27,29,f,1,2,921,2,1578,1,1,2,2
9,82,27,29,f,1,2,922,8,948,1,1,2,8
9,83,27,29,f,1,2,923,9,1147,1,1,2,9
9,84,27,29,f,1,2,924,7,379,1,1,2,7
9,85,27,29,f,1,2,925,3,1873,1,1,2,3
9,86,27,29,f,1,2,926,5,973,1,1,2,5
9,87,27,29,f,1,2,927,9,1753,0,1,2,2
9,88,27,29,f,1,2,928,2,676,1,1,2,2
9,89,27,29,f,1,2,929,1,732,1,1,2,1
9,90,27,29,f,1,2,930,3,466,1,1,2,3
9,91,27,29,f,1,2,931,9,3452,0,1,2,8
9,92,27,29,f,1,2,932,7,875,1,1,2,7
9,93,27,29,f,1,2,933,8,997,1,1,2,8
9,94,27,29,f,1,2,934,1,1163,0,1,2,6
9,95,27,29,f,1,2,935,5,4863,0,1,2,2
9,96,27,29,f,1,2,936,8,1553,1,1,2,8
9,97,27,29,f,1,2,937,1,967,1,1,2,1
9,98,27,29,f,1,2,938,9,1257,0,1,2,8
9,99,27,29,f,1,2,939,8,2417,0,1,2,6
9,100,27,29,f,1,2,940,4,693,1,1,2,4
9,101,27,29,f,1,2,941,8,375,1,1,2,8
9,102,27,29,f,1,2,942,5,2655,0,1,2,4
9,103,27,29,f,1,2,943,9,1506,0,1,2,7
9,104,27,29,f,1,2,944,1,2148,1,1,2,1
9,105,27,29,f,1,2,945,9,1026,1,1,2,9
10,1,29,10,m,1,1,946,8,1264,1,2,2,8
10,2,29,10,m,1,1,947,1,1233,1,2,2,1
10,3,29,10,m,1,1,948,9,878,1,2,2,9
10,4,29,10,m,1,1,949,9,1624,1,2,2,9
10,5,29,10,m,1,1,950,1,1128,1,2,2,1
10,6,29,10,m,1,1,951,9,3325,0,2,2,4
10,7,29,10,m,1,1,952,7,768,1,2,2,7
10,8,29,10,m,1,1,953,2,1438,0,2,2,6
10,9,29,10,m,1,1,954,5,1001,0,2,2,4
10,10,29,10,m,1,1,955,2,1822,0,2,2,7
10,11,29,10,m,1,1,956,6,2391,0,2,2,2
10,12,29,10,m,1,1,957,2,2300,0,2,2,5
10,13,29,10,m,1,1,958,8,612,0,2,2,7
10,14,29,10,m,1,1,959,6,708,1,2,2,6
10,15,29,10,m,1,1,960,9,1577,0,2,2,5
10,16,29,10,m,1,1,961,4,638,1,2,2,4
10,17,29,10,m,1,1,962,4,1237,0,2,2,5
10,18,29,10,m,1,1,963,6,2265,0,2,2,5
10,19,29,10,m,1,1,964,7,818,1,2,2,7
10,20,29,10,m,1,1,965,3,1449,1,2,2,3
10,21,29,10,m,1,1,966,2,1585,0,2,2,9
10,22,29,10,m,1,1,967,2,380,1,2,2,2
10,23,29,10,m,1,1,968,5,1268,0,2,2,6
10,24,29,10,m,1,1,969,9,1239,0,2,2,3
10,25,29,10,m,1,1,970,2,628,1,2,2,2
10,26,29,10,m,1,1,971,6,640,1,2,2,6
10,27,29,10,m,1,1,972,4,3811,1,2,2,4
10,28,29,10,m,1,1,973,5,526,1,2,2,5
10,29,29,10,m,1,1,974,6,485,1,2,2,6
10,30,29,10,m,1,1,975,3,647,0,2,2,4
10,31,29,10,m,1,1,976,5,551,1,2,2,5
10,32,29,10,m,1,1,977,3,1832,0,2,2,7
10,33,29,10,m,1,1,978,5,520,1,2,2,5
10,34,29,10,m,1,1,979,6,612,1,2,2,6
10,35,29,10,m,1,1,980,2,3388,0,2,2,3
10,36,29,10,m,1,1,981,9,435,1,2,2,9
10,37,29,10,m,1,1,982,5,681,1,2,2,5
10,38,29,10,m,1,1,983,1,541,1,2,2,1
10,39,29,10,m,1,1,984,4,588,0,2,2,5
10,40,29,10,m,1,1,985,3,436,1,2,2,3
10,41,29,10,m,1,1,986,8,602,1,2,2,8
10,42,29,10,m,1,1,987,7,576,0,2,2,9
10,43,29,10,m,1,1,988,4,1853,0,2,2,3
10,44,29,10,m,1,1,989,3,543,1,2,2,3
10,45,29,10,m,1,1,990,1,539,1,2,2,1
10,46,29,10,m,1,1,991,8,1661,1,2,2,8
10,47,29,10,m,1,1,992,4,939,1,2,2,4
10,48,29,10,m,1,1,993,7,2225,0,2,2,3
10,49,29,10,m,1,1,994,7,322,1,2,2,7
10,50,29,10,m,1,1,995,2,1308,0,2,2,7
10,51,29,10,m,1,1,996,5,717,0,2,2,3
10,52,29,10,m,1,1,997,1,465,1,2,2,1
10,53,29,10,m,1,1,998,4,1191,0,2,2,1
10,54,29,30,m,1,2,999,5,479,0,2,2,7
10,55,29,30,m,1,2,1000,9,4237,0,2,2,7
10,56,29,30,m,1,2,1001,2,1321,0,2,2,9
10,57,29,30,m,1,2,1002,6,1130,1,2,2,6
10,58,29,30,m,1,2,1003,2,412,1,2,2,2
10,59,29,30,m,1,2,1004,4,1052,1,2,2,4
10,60,29,30,m,1,2,1005,8,557,1,2,2,8
10,61,29,30,m,1,2,1006,3,285,1,2,2,3
10,62,29,30,m,1,2,1007,3,540,1,2,2,3
10,63,29,30,m,1,2,1008,6,2916,0,2,2,5
10,64,29,30,m,1,2,1009,9,2596,0,2,2,2
10,65,29,30,m,1,2,1010,3,1537,0,2,2,4
10,66,29,30,m,1,2,1011,8,530,1,2,2,8
10,67,29,30,m,1,2,1012,2,531,0,2,2,1
10,68,29,30,m,1,2,1013,2,249,1,2,2,2
10,69,29,30,m,1,2,1014,8,361,1,2,2,8
10,70,29,30,m,1,2,1015,5,1905,1,2,2,5
10,71,29,30,m,1,2,1016,7,3532,0,2,2,9
10,72,29,30,m,1,2,1017,2,1495,0,2,2,8
10,73,29,30,m,1,2,1018,4,945,1,2,2,4
10,74,29,30,m,1,2,1019,4,422,1,2,2,4
10,75,29,30,m,1,2,1020,2,917,0,2,2,7
10,76,29,30,m,1,2,1021,4,1823,0,2,2,1
10,77,29,30,m,1,2,1022,2,439,1,2,2,2
10,78,29,30,m,1,2,1023,4,492,0,2,2,6
10,79,29,30,m,1,2,1024,1,284,1,2,2,1
10,80,29,30,m,1,2,1025,4,501,1,2,2,4
10,81,29,30,m,1,2,1026,5,391,0,2,2,9
10,82,29,30,m,1,2,1027,9,445,1,2,2,9
10,83,29,30,m,1,2,1028,2,2747,0,2,2,6
10,84,29,30,m,1,2,1029,8,859,1,2,2,8
10,85,29,30,m,1,2,1030,2,2452,0,2,2,5
10,86,29,30,m,1,2,1031,4,871,0,2,2,1
10,87,29,30,m,1,2,1032,6,1237,0,2,2,7
10,88,29,30,m,1,2,1033,2,223,1,2,2,2
10,89,29,30,m,1,2,1034,2,87,1,2,2,2
10,90,29,30,m,1,2,1035,4,835,0,2,2,6
10,91,29,30,m,1,2,1036,6,202,1,2,2,6
10,92,29,30,m,1,2,1037,3,315,1,2,2,3
10,93,29,30,m,1,2,1038,6,1104,0,2,2,7
10,94,29,30,m,1,2,1039,6,461,1,2,2,6
10,95,29,30,m,1,2,1040,7,316,1,2,2,7
10,96,29,30,m,1,2,1041,6,405,1,2,2,6
10,97,29,30,m,1,2,1042,3,94,1,2,2,3
10,98,29,30,m,1,2,1043,5,253,1,2,2,5
10,99,29,30,m,1,2,1044,2,609,0,2,2,9
10,100,29,30,m,1,2,1045,2,1466,1,2,2,2
10,101,29,30,m,1,2,1046,7,573,1,2,2,7
10,102,29,30,m,1,2,1047,3,182,1,2,2,3
10,103,29,30,m,1,2,1048,4,669,1,2,2,4
10,104,29,30,m,1,2,1049,7,186,1,2,2,7
10,105,29,30,m,1,2,1050,9,987,1,2,2,9
11,1,24,11,f,1,1,1051,8,1155,1,1,1,8
11,2,24,11,f,1,1,1052,1,330,1,1,1,1
11,3,24,11,f,1,1,1053,6,4989,0,1,1,9
11,4,24,11,f,1,1,1054,3,623,1,1,1,3
11,5,24,11,f,1,1,1055,9,570,1,1,1,9
11,6,24,11,f,1,1,1056,7,1225,1,1,1,7
11,7,24,11,f,1,1,1057,8,2068,0,1,1,7
11,8,24,11,f,1,1,1058,1,1141,0,1,1,8
11,9,24,11,f,1,1,1059,9,851,0,1,1,3
11,10,24,11,f,1,1,1060,3,371,1,1,1,3
11,11,24,11,f,1,1,1061,2,467,1,1,1,2
11,12,24,11,f,1,1,1062,1,714,1,1,1,1
11,13,24,11,f,1,1,1063,1,416,1,1,1,1
11,14,24,11,f,1,1,1064,2,1640,0,1,1,6
11,15,24,11,f,1,1,1065,2,327,1,1,1,2
11,16,24,11,f,1,1,1066,4,571,0,1,1,7
11,17,24,11,f,1,1,1067,7,604,1,1,1,7
11,18,24,11,f,1,1,1068,2,2033,0,1,1,4
11,19,24,11,f,1,1,1069,3,432,1,1,1,3
11,20,24,11,f,1,1,1070,6,2276,1,1,1,6
11,21,24,11,f,1,1,1071,1,452,1,1,1,1
11,22,24,11,f,1,1,1072,9,1400,1,1,1,9
11,23,24,11,f,1,1,1073,1,558,0,1,1,6
11,24,24,11,f,1,1,1074,7,2656,0,1,1,6
11,25,24,11,f,1,1,1075,7,195,1,1,1,7
11,26,24,11,f,1,1,1076,9,437,0,1,1,8
11,27,24,11,f,1,1,1077,8,283,1,1,1,8
11,28,24,11,f,1,1,1078,7,511,1,1,1,7
11,29,24,11,f,1,1,1079,2,116,1,1,1,2
11,30,24,11,f,1,1,1080,5,679,0,1,1,6
11,31,24,11,f,1,1,1081,9,668,0,1,1,2
11,32,24,11,f,1,1,1082,4,524,1,1,1,4
11,33,24,11,f,1,1,1083,8,577,0,1,1,6
11,34,24,11,f,1,1,1084,7,983,0,1,1,4
11,35,24,11,f,1,1,1085,6,518,1,1,1,6
11,36,24,11,f,1,1,1086,2,635,0,1,1,3
11,37,24,11,f,1,1,1087,9,209,1,1,1,9
11,38,24,11,f,1,1,1088,7,924,0,1,1,6
11,39,24,11,f,1,1,1089,9,387,1,1,1,9
11,40,24,11,f,1,1,1090,9,218,0,1,1,4
11,41,24,11,f,1,1,1091,4,415,1,1,1,4
11,42,24,11,f,1,1,1092,9,339,1,1,1,9
11,43,24,11,f,1,1,1093,3,500,1,1,1,3
11,44,24,11,f,1,1,1094,5,628,0,1,1,6
11,45,24,11,f,1,1,1095,9,915,0,1,1,6
11,46,24,11,f,1,1,1096,1,220,1,1,1,1
11,47,24,11,f,1,1,1097,9,283,1,1,1,9
11,48,24,11,f,1,1,1098,7,554,1,1,1,7
11,49,24,11,f,1,1,1099,8,480,1,1,1,8
11,50,24,11,f,1,1,1100,3,526,1,1,1,3
11,51,24,11,f,1,1,1101,9,249,1,1,1,9
11,52,24,11,f,1,1,1102,4,908,0,1,1,6
11,53,24,11,f,1,1,1103,7,1115,0,1,1,6
11,54,24,31,f,1,2,1104,9,316,1,1,1,9
11,55,24,31,f,1,2,1105,8,39,1,1,1,8
11,56,24,31,f,1,2,1106,9,356,1,1,1,9
11,57,24,31,f,1,2,1107,9,721,0,1,1,1
11,58,24,31,f,1,2,1108,8,282,1,1,1,8
11,59,24,31,f,1,2,1109,9,338,1,1,1,9
11,60,24,31,f,1,2,1110,5,549,0,1,1,3
11,61,24,31,f,1,2,1111,4,716,1,1,1,4
11,62,24,31,f,1,2,1112,7,236,1,1,1,7
11,63,24,31,f,1,2,1113,7,564,1,1,1,7
11,64,24,31,f,1,2,1114,5,188,1,1,1,5
11,65,24,31,f,1,2,1115,1,164,1,1,1,1
11,66,24,31,f,1,2,1116,9,48,1,1,1,9
11,67,24,31,f,1,2,1117,1,60,1,1,1,1
11,68,24,31,f,1,2,1118,4,120,1,1,1,4
11,69,24,31,f,1,2,1119,9,49,1,1,1,9
11,70,24,31,f,1,2,1120,4,2028,1,1,1,4
11,71,24,31,f,1,2,1121,6,495,1,1,1,6
11,72,24,31,f,1,2,1122,6,676,0,1,1,5
11,73,24,31,f,1,2,1123,3,139,1,1,1,3
11,74,24,31,f,1,2,1124,3,517,1,1,1,3
11,75,24,31,f,1,2,1125,6,1254,1,1,1,6
11,76,24,31,f,1,2,1126,6,1111,0,1,1,4
11,77,24,31,f,1,2,1127,9,350,0,1,1,4
11,78,24,31,f,1,2,1128,4,374,1,1,1,4
11,79,24,31,f,1,2,1129,1,64,1,1,1,1
11,80,24,31,f,1,2,1130,7,288,1,1,1,7
11,81,24,31,f,1,2,1131,6,570,0,1,1,5
11,82,24,31,f,1,2,1132,3,1516,0,1,1,5
11,83,24,31,f,1,2,1133,2,108,1,1,1,2
11,84,24,31,f,1,2,1134,2,620,1,1,1,2
11,85,24,31,f,1,2,1135,1,179,0,1,1,4
11,86,24,31,f,1,2,1136,4,331,1,1,1,4
11,87,24,31,f,1,2,1137,9,440,0,1,1,5
11,88,24,31,f,1,2,1138,3,417,1,1,1,3
11,89,24,31,f,1,2,1139,8,547,0,1,1,6
11,90,24,31,f,1,2,1140,6,165,1,1,1,6
11,91,24,31,f,1,2,1141,6,200,1,1,1,6
11,92,24,31,f,1,2,1142,8,550,1,1,1,8
11,93,24,31,f,1,2,1143,1,170,1,1,1,1
11,94,24,31,f,1,2,1144,2,1500,0,1,1,6
11,95,24,31,f,1,2,1145,5,121,1,1,1,5
11,96,24,31,f,1,2,1146,6,757,1,1,1,6
11,97,24,31,f,1,2,1147,7,524,1,1,1,7
11,98,24,31,f,1,2,1148,8,489,0,1,1,5
11,99,24,31,f,1,2,1149,2,171,1,1,1,2
11,100,24,31,f,1,2,1150,1,140,1,1,1,1
11,101,24,31,f,1,2,1151,6,209,1,1,1,6
11,102,24,31,f,1,2,1152,8,571,1,1,1,8
11,103,24,31,f,1,2,1153,7,535,1,1,1,7
11,104,24,31,f,1,2,1154,4,769,0,1,1,3
11,105,24,31,f,1,2,1155,9,46,0,1,1,1
12,1,23,12,f,1,1,1156,6,441,1,2,1,6
12,2,23,12,f,1,1,1157,4,564,1,2,1,4
12,3,23,12,f,1,1,1158,2,1114,1,2,1,2
12,4,23,12,f,1,1,1159,3,814,1,2,1,3
12,5,23,12,f,1,1,1160,9,675,1,2,1,9
12,6,23,12,f,1,1,1161,8,879,1,2,1,8
12,7,23,12,f,1,1,1162,1,654,1,2,1,1
12,8,23,12,f,1,1,1163,3,596,1,2,1,3
12,9,23,12,f,1,1,1164,2,1052,0,2,1,4
12,10,23,12,f,1,1,1165,2,1013,1,2,1,2
12,11,23,12,f,1,1,1166,5,1766,0,2,1,1
12,12,23,12,f,1,1,1167,9,1549,0,2,1,8
12,13,23,12,f,1,1,1168,7,868,0,2,1,4
12,14,23,12,f,1,1,1169,2,597,1,2,1,2
12,15,23,12,f,1,1,1170,5,2042,1,2,1,5
12,16,23,12,f,1,1,1171,5,651,1,2,1,5
12,17,23,12,f,1,1,1172,4,1204,1,2,1,4
12,18,23,12,f,1,1,1173,2,499,1,2,1,2
12,19,23,12,f,1,1,1174,6,1938,1,2,1,6
12,20,23,12,f,1,1,1175,3,634,1,2,1,3
12,21,23,12,f,1,1,1176,7,1101,0,2,1,9
12,22,23,12,f,1,1,1177,9,978,1,2,1,9
12,23,23,12,f,1,1,1178,7,948,0,2,1,4
12,24,23,12,f,1,1,1179,2,3433,1,2,1,2
12,25,23,12,f,1,1,1180,5,2933,0,2,1,3
12,26,23,12,f,1,1,1181,9,717,0,2,1,4
12,27,23,12,f,1,1,1182,7,470,1,2,1,7
12,28,23,12,f,1,1,1183,9,602,0,2,1,7
12,29,23,12,f,1,1,1184,6,2995,1,2,1,6
12,30,23,12,f,1,1,1185,7,2981,0,2,1,3
12,31,23,12,f,1,1,1186,8,894,0,2,1,3
12,32,23,12,f,1,1,1187,8,473,1,2,1,8
12,33,23,12,f,1,1,1188,3,709,0,2,1,2
12,34,23,12,f,1,1,1189,7,2354,0,2,1,5
12,35,23,12,f,1,1,1190,8,1628,0,2,1,9
12,36,23,12,f,1,1,1191,8,400,1,2,1,8
12,37,23,12,f,1,1,1192,1,417,1,2,1,1
12,38,23,12,f,1,1,1193,2,625,0,2,1,5
12,39,23,12,f,1,1,1194,4,898,1,2,1,4
12,40,23,12,f,1,1,1195,9,661,0,2,1,3
12,41,23,12,f,1,1,1196,9,319,1,2,1,9
12,42,23,12,f,1,1,1197,5,571,1,2,1,5
12,43,23,12,f,1,1,1198,6,404,1,2,1,6
12,44,23,12,f,1,1,1199,1,493,1,2,1,1
12,45,23,12,f,1,1,1200,7,397,1,2,1,7
12,46,23,12,f,1,1,1201,7,470,1,2,1,7
12,47,23,12,f,1,1,1202,7,487,1,2,1,7
12,48,23,12,f,1,1,1203,6,396,1,2,1,6
12,49,23,12,f,1,1,1204,3,579,1,2,1,3
12,50,23,12,f,1,1,1205,4,724,0,2,1,9
12,51,23,12,f,1,1,1206,3,396,1,2,1,3
12,52,23,12,f,1,1,1207,2,698,1,2,1,2
12,53,23,12,f,1,1,1208,3,429,1,2,1,3
12,54,23,32,f,1,2,1209,2,940,0,2,1,7
12,55,23,32,f,1,2,1210,9,389,1,2,1,9
12,56,23,32,f,1,2,1211,4,1547,0,2,1,3
12,57,23,32,f,1,2,1212,3,508,1,2,1,3
12,58,23,32,f,1,2,1213,1,585,0,2,1,3
12,59,23,32,f,1,2,1214,9,292,1,2,1,9
12,60,23,32,f,1,2,1215,7,1372,0,2,1,9
12,61,23,32,f,1,2,1216,4,859,0,2,1,2
12,62,23,32,f,1,2,1217,5,785,1,2,1,5
12,63,23,32,f,1,2,1218,8,315,1,2,1,8
12,64,23,32,f,1,2,1219,3,1030,0,2,1,4
12,65,23,32,f,1,2,1220,7,1142,0,2,1,3
12,66,23,32,f,1,2,1221,5,748,1,2,1,5
12,67,23,32,f,1,2,1222,4,819,0,2,1,3
12,68,23,32,f,1,2,1223,7,723,1,2,1,7
12,69,23,32,f,1,2,1224,5,429,1,2,1,5
12,70,23,32,f,1,2,1225,7,2138,0,2,1,4
12,71,23,32,f,1,2,1226,4,854,0,2,1,3
12,72,23,32,f,1,2,1227,5,565,0,2,1,4
12,73,23,32,f,1,2,1228,7,762,0,2,1,2
12,74,23,32,f,1,2,1229,5,476,1,2,1,5
12,75,23,32,f,1,2,1230,7,1717,0,2,1,1
12,76,23,32,f,1,2,1231,4,636,1,2,1,4
12,77,23,32,f,1,2,1232,3,640,1,2,1,3
12,78,23,32,f,1,2,1233,7,754,0,2,1,9
12,79,23,32,f,1,2,1234,7,785,0,2,1,4
12,80,23,32,f,1,2,1235,5,477,1,2,1,5
12,81,23,32,f,1,2,1236,8,964,1,2,1,8
12,82,23,32,f,1,2,1237,9,606,0,2,1,1
12,83,23,32,f,1,2,1238,3,396,1,2,1,3
12,84,23,32,f,1,2,1239,4,653,1,2,1,4
12,85,23,32,f,1,2,1240,7,294,1,2,1,7
12,86,23,32,f,1,2,1241,8,507,1,2,1,8
12,87,23,32,f,1,2,1242,8,1405,0,2,1,2
12,88,23,32,f,1,2,1243,1,395,1,2,1,1
12,89,23,32,f,1,2,1244,1,471,1,2,1,1
12,90,23,32,f,1,2,1245,4,2192,0,2,1,2
12,91,23,32,f,1,2,1246,2,410,1,2,1,2
12,92,23,32,f,1,2,1247,3,950,1,2,1,3
12,93,23,32,f,1,2,1248,3,2259,1,2,1,3
12,94,23,32,f,1,2,1249,9,582,1,2,1,9
12,95,23,32,f,1,2,1250,7,2836,0,2,1,2
12,96,23,32,f,1,2,1251,6,827,1,2,1,6
12,97,23,32,f,1,2,1252,5,363,1,2,1,5
12,98,23,32,f,1,2,1253,8,565,1,2,1,8
12,99,23,32,f,1,2,1254,3,371,1,2,1,3
12,100,23,32,f,1,2,1255,9,472,1,2,1,9
12,101,23,32,f,1,2,1256,4,3814,1,2,1,4
12,102,23,32,f,1,2,1257,2,955,0,2,1,3
12,103,23,32,f,1,2,1258,9,326,1,2,1,9
12,104,23,32,f,1,2,1259,5,1042,0,2,1,2
12,105,23,32,f,1,2,1260,1,432,1,2,1,1
13,1,30,13,f,1,1,1261,8,5,1,1,2,8
13,2,30,13,f,1,1,1262,1,1100,1,1,2,1
13,3,30,13,f,1,1,1263,9,2342,1,1,2,9
13,4,30,13,f,1,1,1264,9,77,1,1,2,9
13,5,30,13,f,1,1,1265,1,325,1,1,2,1
13,6,30,13,f,1,1,1266,4,88,1,1,2,4
13,7,30,13,f,1,1,1267,3,218,1,1,2,3
13,8,30,13,f,1,1,1268,5,74,1,1,2,5
13,9,30,13,f,1,1,1269,8,700,0,1,2,4
13,10,30,13,f,1,1,1270,1,419,1,1,2,1
13,11,30,13,f,1,1,1271,7,302,1,1,2,7
13,12,30,13,f,1,1,1272,5,604,0,1,2,3
13,13,30,13,f,1,1,1273,9,397,1,1,2,9
13,14,30,13,f,1,1,1274,2,341,0,1,2,1
13,15,30,13,f,1,1,1275,2,475,0,1,2,7
13,16,30,13,f,1,1,1276,3,418,0,1,2,9
13,17,30,13,f,1,1,1277,1,480,1,1,2,1
13,18,30,13,f,1,1,1278,6,260,1,1,2,6
13,19,30,13,f,1,1,1279,6,127,1,1,2,6
13,20,30,13,f,1,1,1280,2,189,1,1,2,2
13,21,30,13,f,1,1,1281,1,78,1,1,2,1
13,22,30,13,f,1,1,1282,3,475,1,1,2,3
13,23,30,13,f,1,1,1283,8,514,0,1,2,9
13,24,30,13,f,1,1,1284,8,1892,1,1,2,8
13,25,30,13,f,1,1,1285,8,1086,0,1,2,2
13,26,30,13,f,1,1,1286,7,1401,0,1,2,6
13,27,30,13,f,1,1,1287,6,525,1,1,2,6
13,28,30,13,f,1,1,1288,2,396,1,1,2,2
13,29,30,13,f,1,1,1289,9,163,1,1,2,9
13,30,30,13,f,1,1,1290,7,1898,0,1,2,1
13,31,30,13,f,1,1,1291,1,1024,0,1,2,9
13,32,30,13,f,1,1,1292,9,492,0,1,2,7
13,33,30,13,f,1,1,1293,6,437,0,1,2,8
13,34,30,13,f,1,1,1294,9,524,1,1,2,9
13,35,30,13,f,1,1,1295,7,212,1,1,2,7
13,36,30,13,f,1,1,1296,8,1453,0,1,2,3
13,37,30,13,f,1,1,1297,6,266,0,1,2,3
13,38,30,13,f,1,1,1298,3,1004,1,1,2,3
13,39,30,13,f,1,1,1299,6,596,1,1,2,6
13,40,30,13,f,1,1,1300,5,63,1,1,2,5
13,41,30,13,f,1,1,1301,2,299,1,1,2,2
13,42,30,13,f,1,1,1302,3,296,1,1,2,3
13,43,30,13,f,1,1,1303,5,87,1,1,2,5
13,44,30,13,f,1,1,1304,6,110,1,1,2,6
13,45,30,13,f,1,1,1305,9,426,0,1,2,3
13,46,30,13,f,1,1,1306,5,160,1,1,2,5
13,47,30,13,f,1,1,1307,6,553,1,1,2,6
13,48,30,13,f,1,1,1308,1,651,0,1,2,6
13,49,30,13,f,1,1,1309,2,215,1,1,2,2
13,50,30,13,f,1,1,1310,4,186,1,1,2,4
13,51,30,13,f,1,1,1311,9,312,0,1,2,8
13,52,30,13,f,1,1,1312,4,359,1,1,2,4
13,53,30,13,f,1,1,1313,3,133,1,1,2,3
13,54,30,33,f,1,2,1314,5,480,1,1,2,5
13,55,30,33,f,1,2,1315,9,1725,0,1,2,1
13,56,30,33,f,1,2,1316,8,245,1,1,2,8
13,57,30,33,f,1,2,1317,7,548,1,1,2,7
13,58,30,33,f,1,2,1318,4,945,1,1,2,4
13,59,30,33,f,1,2,1319,3,436,1,1,2,3
13,60,30,33,f,1,2,1320,3,251,1,1,2,3
13,61,30,33,f,1,2,1321,9,247,0,1,2,5
13,62,30,33,f,1,2,1322,1,414,0,1,2,6
13,63,30,33,f,1,2,1323,1,248,1,1,2,1
13,64,30,33,f,1,2,1324,6,156,0,1,2,8
13,65,30,33,f,1,2,1325,5,57,0,1,2,9
13,66,30,33,f,1,2,1326,8,507,0,1,2,6
13,67,30,33,f,1,2,1327,5,305,1,1,2,5
13,68,30,33,f,1,2,1328,8,83,1,1,2,8
13,69,30,33,f,1,2,1329,5,95,1,1,2,5
13,70,30,33,f,1,2,1330,5,208,1,1,2,5
13,71,30,33,f,1,2,1331,4,188,1,1,2,4
13,72,30,33,f,1,2,1332,4,125,1,1,2,4
13,73,30,33,f,1,2,1333,1,858,0,1,2,7
13,74,30,33,f,1,2,1334,1,132,1,1,2,1
13,75,30,33,f,1,2,1335,9,234,1,1,2,9
13,76,30,33,f,1,2,1336,2,227,1,1,2,2
13,77,30,33,f,1,2,1337,9,293,1,1,2,9
13,78,30,33,f,1,2,1338,2,62,1,1,2,2
13,79,30,33,f,1,2,1339,6,238,1,1,2,6
13,80,30,33,f,1,2,1340,7,329,0,1,2,9
13,81,30,33,f,1,2,1341,3,164,0,1,2,8
13,82,30,33,f,1,2,1342,9,590,0,1,2,1
13,83,30,33,f,1,2,1343,5,233,1,1,2,5
13,84,30,33,f,1,2,1344,9,457,1,1,2,9
13,85,30,33,f,1,2,1345,5,163,1,1,2,5
13,86,30,33,f,1,2,1346,9,367,1,1,2,9
13,87,30,33,f,1,2,1347,2,420,1,1,2,2
13,88,30,33,f,1,2,1348,8,475,1,1,2,8
13,89,30,33,f,1,2,1349,7,1377,0,1,2,5
13,90,30,33,f,1,2,1350,9,517,0,1,2,2
13,91,30,33,f,1,2,1351,2,442,1,1,2,2
13,92,30,33,f,1,2,1352,2,204,1,1,2,2
13,93,30,33,f,1,2,1353,2,6,1,1,2,2
13,94,30,33,f,1,2,1354,4,2606,1,1,2,4
13,95,30,33,f,1,2,1355,2,360,1,1,2,2
13,96,30,33,f,1,2,1356,9,10,1,1,2,9
13,97,30,33,f,1,2,1357,5,819,0,1,2,4
13,98,30,33,f,1,2,1358,7,1196,0,1,2,3
13,99,30,33,f,1,2,1359,4,213,1,1,2,4
13,100,30,33,f,1,2,1360,4,785,1,1,2,4
13,101,30,33,f,1,2,1361,5,904,1,1,2,5
13,102,30,33,f,1,2,1362,8,39,1,1,2,8
13,103,30,33,f,1,2,1363,1,240,1,1,2,1
13,104,30,33,f,1,2,1364,5,228,1,1,2,5
13,105,30,33,f,1,2,1365,9,1108,0,1,2,8
14,1,36,14,f,1,1,1366,8,1104,1,2,2,8
14,2,36,14,f,1,1,1367,3,1510,0,2,2,1
14,3,36,14,f,1,1,1368,4,762,1,2,2,4
14,4,36,14,f,1,1,1369,3,762,1,2,2,3
14,5,36,14,f,1,1,1370,9,488,1,2,2,9
14,6,36,14,f,1,1,1371,4,2272,0,2,2,7
14,7,36,14,f,1,1,1372,4,573,1,2,2,4
14,8,36,14,f,1,1,1373,4,653,1,2,2,4
14,9,36,14,f,1,1,1374,4,447,1,2,2,4
14,10,36,14,f,1,1,1375,9,2934,0,2,2,3
14,11,36,14,f,1,1,1376,3,1843,0,2,2,1
14,12,36,14,f,1,1,1377,5,747,1,2,2,5
14,13,36,14,f,1,1,1378,6,670,1,2,2,6
14,14,36,14,f,1,1,1379,6,517,0,2,2,9
14,15,36,14,f,1,1,1380,8,995,0,2,2,2
14,16,36,14,f,1,1,1381,7,496,1,2,2,7
14,17,36,14,f,1,1,1382,7,892,0,2,2,1
14,18,36,14,f,1,1,1383,2,1334,0,2,2,4
14,19,36,14,f,1,1,1384,3,569,1,2,2,3
14,20,36,14,f,1,1,1385,6,485,1,2,2,6
14,21,36,14,f,1,1,1386,4,892,0,2,2,1
14,22,36,14,f,1,1,1387,8,596,1,2,2,8
14,23,36,14,f,1,1,1388,3,416,1,2,2,3
14,24,36,14,f,1,1,1389,3,539,0,2,2,6
14,25,36,14,f,1,1,1390,5,728,1,2,2,5
14,26,36,14,f,1,1,1391,7,524,1,2,2,7
14,27,36,14,f,1,1,1392,9,623,0,2,2,8
14,28,36,14,f,1,1,1393,3,2392,0,2,2,7
14,29,36,14,f,1,1,1394,6,857,0,2,2,2
14,30,36,14,f,1,1,1395,3,1367,0,2,2,4
14,31,36,14,f,1,1,1396,8,1675,1,2,2,8
14,32,36,14,f,1,1,1397,3,1843,0,2,2,4
14,33,36,14,f,1,1,1398,4,808,1,2,2,4
14,34,36,14,f,1,1,1399,9,1768,0,2,2,2
14,35,36,14,f,1,1,1400,5,1329,0,2,2,1
14,36,36,14,f,1,1,1401,2,1794,1,2,2,2
14,37,36,14,f,1,1,1402,9,467,1,2,2,9
14,38,36,14,f,1,1,1403,9,1154,0,2,2,6
14,39,36,14,f,1,1,1404,2,1474,0,2,2,3
14,40,36,14,f,1,1,1405,4,1747,0,2,2,7
14,41,36,14,f,1,1,1406,4,566,1,2,2,4
14,42,36,14,f,1,1,1407,9,572,0,2,2,6
14,43,36,14,f,1,1,1408,9,712,1,2,2,9
14,44,36,14,f,1,1,1409,2,635,0,2,2,6
14,45,36,14,f,1,1,1410,3,333,1,2,2,3
14,46,36,14,f,1,1,1411,7,527,0,2,2,1
14,47,36,14,f,1,1,1412,2,616,0,2,2,9
14,48,36,14,f,1,1,1413,3,572,1,2,2,3
14,49,36,14,f,1,1,1414,7,648,0,2,2,3
14,50,36,14,f,1,1,1415,9,615,0,2,2,7
14,51,36,14,f,1,1,1416,9,1356,0,2,2,3
14,52,36,14,f,1,1,1417,9,989,0,2,2,1
14,53,36,14,f,1,1,1418,9,2364,0,2,2,8
14,54,36,34,f,1,2,1419,3,199,1,2,2,3
14,55,36,34,f,1,2,1420,3,1148,0,2,2,9
14,56,36,34,f,1,2,1421,3,234,1,2,2,3
14,57,36,34,f,1,2,1422,9,302,1,2,2,9
14,58,36,34,f,1,2,1423,9,445,0,2,2,5
14,59,36,34,f,1,2,1424,8,119,1,2,2,8
14,60,36,34,f,1,2,1425,4,156,1,2,2,4
14,61,36,34,f,1,2,1426,4,173,0,2,2,8
14,62,36,34,f,1,2,1427,3,368,0,2,2,6
14,63,36,34,f,1,2,1428,2,475,0,2,2,5
14,64,36,34,f,1,2,1429,6,321,1,2,2,6
14,65,36,34,f,1,2,1430,6,163,1,2,2,6
14,66,36,34,f,1,2,1431,8,389,1,2,2,8
14,67,36,34,f,1,2,1432,1,354,1,2,2,1
14,68,36,34,f,1,2,1433,8,555,1,2,2,8
14,69,36,34,f,1,2,1434,4,154,0,2,2,6
14,70,36,34,f,1,2,1435,7,384,0,2,2,3
14,71,36,34,f,1,2,1436,9,188,1,2,2,9
14,72,36,34,f,1,2,1437,3,405,0,2,2,1
14,73,36,34,f,1,2,1438,2,390,0,2,2,8
14,74,36,34,f,1,2,1439,2,825,0,2,2,4
14,75,36,34,f,1,2,1440,3,267,1,2,2,3
14,76,36,34,f,1,2,1441,5,778,0,2,2,1
14,77,36,34,f,1,2,1442,2,225,1,2,2,2
14,78,36,34,f,1,2,1443,5,667,0,2,2,6
14,79,36,34,f,1,2,1444,3,414,1,2,2,3
14,80,36,34,f,1,2,1445,4,204,1,2,2,4
14,81,36,34,f,1,2,1446,3,185,1,2,2,3
14,82,36,34,f,1,2,1447,9,612,1,2,2,9
14,83,36,34,f,1,2,1448,2,341,0,2,2,6
14,84,36,34,f,1,2,1449,6,685,0,2,2,8
14,85,36,34,f,1,2,1450,2,541,0,2,2,8
14,86,36,34,f,1,2,1451,9,587,0,2,2,4
14,87,36,34,f,1,2,1452,3,440,1,2,2,3
14,88,36,34,f,1,2,1453,4,504,1,2,2,4
14,89,36,34,f,1,2,1454,3,516,0,2,2,7
14,90,36,34,f,1,2,1455,4,1427,0,2,2,6
14,91,36,34,f,1,2,1456,5,1237,0,2,2,6
14,92,36,34,f,1,2,1457,5,404,1,2,2,5
14,93,36,34,f,1,2,1458,4,229,1,2,2,4
14,94,36,34,f,1,2,1459,7,929,0,2,2,6
14,95,36,34,f,1,2,1460,5,1552,0,2,2,2
14,96,36,34,f,1,2,1461,2,104,1,2,2,2
14,97,36,34,f,1,2,1462,8,1675,0,2,2,7
14,98,36,34,f,1,2,1463,5,853,0,2,2,9
14,99,36,34,f,1,2,1464,4,564,1,2,2,4
14,100,36,34,f,1,2,1465,9,1263,0,2,2,6
14,101,36,34,f,1,2,1466,3,1416,1,2,2,3
14,102,36,34,f,1,2,1467,7,815,0,2,2,4
14,103,36,34,f,1,2,1468,4,124,1,2,2,4
14,104,36,34,f,1,2,1469,3,135,1,2,2,3
14,105,36,34,f,1,2,1470,1,641,1,2,2,1
15,1,30,15,f,1,1,1471,8,890,1,1,1,8
15,2,30,15,f,1,1,1472,1,289,1,1,1,1
15,3,30,15,f,1,1,1473,9,47,1,1,1,9
15,4,30,15,f,1,1,1474,9,86,1,1,1,9
15,5,30,15,f,1,1,1475,7,1461,0,1,1,1
15,6,30,15,f,1,1,1476,2,1337,0,1,1,7
15,7,30,15,f,1,1,1477,4,1578,1,1,1,4
15,8,30,15,f,1,1,1478,2,1179,0,1,1,4
15,9,30,15,f,1,1,1479,2,1189,1,1,1,2
15,10,30,15,f,1,1,1480,2,2078,0,1,1,9
15,11,30,15,f,1,1,1481,6,826,1,1,1,6
15,12,30,15,f,1,1,1482,5,643,1,1,1,5
15,13,30,15,f,1,1,1483,9,1371,0,1,1,6
15,14,30,15,f,1,1,1484,6,448,1,1,1,6
15,15,30,15,f,1,1,1485,1,1396,0,1,1,2
15,16,30,15,f,1,1,1486,3,994,0,1,1,2
15,17,30,15,f,1,1,1487,9,718,0,1,1,7
15,18,30,15,f,1,1,1488,7,585,0,1,1,4
15,19,30,15,f,1,1,1489,5,830,0,1,1,8
15,20,30,15,f,1,1,1490,5,614,0,1,1,6
15,21,30,15,f,1,1,1491,9,379,1,1,1,9
15,22,30,15,f,1,1,1492,5,380,1,1,1,5
15,23,30,15,f,1,1,1493,4,837,0,1,1,2
15,24,30,15,f,1,1,1494,3,421,1,1,1,3
15,25,30,15,f,1,1,1495,9,763,1,1,1,9
15,26,30,15,f,1,1,1496,6,396,1,1,1,6
15,27,30,15,f,1,1,1497,2,1315,0,1,1,1
15,28,30,15,f,1,1,1498,9,1733,0,1,1,2
15,29,30,15,f,1,1,1499,2,644,0,1,1,6
15,30,30,15,f,1,1,1500,2,387,0,1,1,4
15,31,30,15,f,1,1,1501,7,1234,0,1,1,5
15,32,30,15,f,1,1,1502,8,939,0,1,1,7
15,33,30,15,f,1,1,1503,1,1295,0,1,1,2
15,34,30,15,f,1,1,1504,5,2641,0,1,1,2
15,35,30,15,f,1,1,1505,9,994,0,1,1,2
15,36,30,15,f,1,1,1506,4,423,1,1,1,4
15,37,30,15,f,1,1,1507,1,698,0,1,1,7
15,38,30,15,f,1,1,1508,7,301,1,1,1,7
15,39,30,15,f,1,1,1509,2,642,0,1,1,5
15,40,30,15,f,1,1,1510,9,769,0,1,1,1
15,41,30,15,f,1,1,1511,5,810,1,1,1,5
15,42,30,15,f,1,1,1512,6,543,1,1,1,6
15,43,30,15,f,1,1,1513,8,476,1,1,1,8
15,44,30,15,f,1,1,1514,6,458,1,1,1,6
15,45,30,15,f,1,1,1515,8,994,1,1,1,8
15,46,30,15,f,1,1,1516,1,1351,1,1,1,1
15,47,30,15,f,1,1,1517,9,1564,0,1,1,3
15,48,30,15,f,1,1,1518,1,2056,0,1,1,6
15,49,30,15,f,1,1,1519,7,1487,1,1,1,7
15,50,30,15,f,1,1,1520,6,237,1,1,1,6
15,51,30,15,f,1,1,1521,1,635,0,1,1,2
15,52,30,15,f,1,1,1522,7,906,0,1,1,4
15,53,30,15,f,1,1,1523,5,615,0,1,1,1
15,54,30,35,f,1,2,1524,1,615,0,1,1,4
15,55,30,35,f,1,2,1525,8,799,0,1,1,2
15,56,30,35,f,1,2,1526,8,1652,1,1,1,8
15,57,30,35,f,1,2,1527,4,448,1,1,1,4
15,58,30,35,f,1,2,1528,9,698,0,1,1,8
15,59,30,35,f,1,2,1529,4,707,0,1,1,1
15,60,30,35,f,1,2,1530,9,483,1,1,1,9
15,61,30,35,f,1,2,1531,1,491,1,1,1,1
15,62,30,35,f,1,2,1532,7,468,1,1,1,7
15,63,30,35,f,1,2,1533,1,502,1,1,1,1
15,64,30,35,f,1,2,1534,1,469,1,1,1,1
15,65,30,35,f,1,2,1535,9,384,0,1,1,2
15,66,30,35,f,1,2,1536,9,402,0,1,1,8
15,67,30,35,f,1,2,1537,6,445,1,1,1,6
15,68,30,35,f,1,2,1538,8,249,1,1,1,8
15,69,30,35,f,1,2,1539,2,699,0,1,1,9
15,70,30,35,f,1,2,1540,5,777,1,1,1,5
15,71,30,35,f,1,2,1541,9,497,0,1,1,3
15,72,30,35,f,1,2,1542,2,676,0,1,1,4
15,73,30,35,f,1,2,1543,7,1021,0,1,1,5
15,74,30,35,f,1,2,1544,7,564,1,1,1,7
15,75,30,35,f,1,2,1545,6,867,0,1,1,3
15,76,30,35,f,1,2,1546,6,703,0,1,1,3
15,77,30,35,f,1,2,1547,7,266,1,1,1,7
15,78,30,35,f,1,2,1548,1,392,1,1,1,1
15,79,30,35,f,1,2,1549,9,772,1,1,1,9
15,80,30,35,f,1,2,1550,5,1093,0,1,1,4
15,81,30,35,f,1,2,1551,6,419,1,1,1,6
15,82,30,35,f,1,2,1552,2,469,0,1,1,7
15,83,30,35,f,1,2,1553,8,436,1,1,1,8
15,84,30,35,f,1,2,1554,1,464,0,1,1,8
15,85,30,35,f,1,2,1555,7,758,0,1,1,3
15,86,30,35,f,1,2,1556,9,1097,0,1,1,4
15,87,30,35,f,1,2,1557,8,497,1,1,1,8
15,88,30,35,f,1,2,1558,1,340,1,1,1,1
15,89,30,35,f,1,2,1559,7,623,0,1,1,6
15,90,30,35,f,1,2,1560,5,1272,0,1,1,4
15,91,30,35,f,1,2,1561,9,388,1,1,1,9
15,92,30,35,f,1,2,1562,5,884,0,1,1,9
15,93,30,35,f,1,2,1563,3,662,1,1,1,3
15,94,30,35,f,1,2,1564,6,1066,1,1,1,6
15,95,30,35,f,1,2,1565,8,378,1,1,1,8
15,96,30,35,f,1,2,1566,6,707,1,1,1,6
15,97,30,35,f,1,2,1567,6,663,1,1,1,6
15,98,30,35,f,1,2,1568,7,232,1,1,1,7
15,99,30,35,f,1,2,1569,4,696,1,1,1,4
15,100,30,35,f,1,2,1570,4,559,0,1,1,6
15,101,30,35,f,1,2,1571,3,285,1,1,1,3
15,102,30,35,f,1,2,1572,6,586,0,1,1,4
15,103,30,35,f,1,2,1573,9,645,0,1,1,4
15,104,30,35,f,1,2,1574,7,688,0,1,1,9
15,105,30,35,f,1,2,1575,7,1420,0,1,1,6
16,1,33,16,f,1,1,1576,8,254,1,2,1,8
16,2,33,16,f,1,1,1577,1,1068,1,2,1,1
16,3,33,16,f,1,1,1578,9,836,1,2,1,9
16,4,33,16,f,1,1,1579,9,1024,1,2,1,9
16,5,33,16,f,1,1,1580,1,3902,1,2,1,1
16,6,33,16,f,1,1,1581,2,6922,0,2,1,4
16,7,33,16,f,1,1,1582,7,2915,1,2,1,7
16,8,33,16,f,1,1,1583,7,3941,0,2,1,6
16,9,33,16,f,1,1,1584,2,2765,1,2,1,2
16,10,33,16,f,1,1,1585,9,1120,1,2,1,9
16,11,33,16,f,1,1,1586,1,1441,1,2,1,1
16,12,33,16,f,1,1,1587,5,2374,0,2,1,1
16,13,33,16,f,1,1,1588,1,3362,0,2,1,6
16,14,33,16,f,1,1,1589,7,2652,0,2,1,6
16,15,33,16,f,1,1,1590,8,1093,1,2,1,8
16,16,33,16,f,1,1,1591,2,1201,1,2,1,2
16,17,33,16,f,1,1,1592,7,1812,1,2,1,7
16,18,33,16,f,1,1,1593,4,1309,1,2,1,4
16,19,33,16,f,1,1,1594,8,2471,0,2,1,3
16,20,33,16,f,1,1,1595,6,826,1,2,1,6
16,21,33,16,f,1,1,1596,1,787,1,2,1,1
16,22,33,16,f,1,1,1597,4,1223,0,2,1,9
16,23,33,16,f,1,1,1598,3,2323,1,2,1,3
16,24,33,16,f,1,1,1599,6,2706,1,2,1,6
16,25,33,16,f,1,1,1600,6,835,1,2,1,6
16,26,33,16,f,1,1,1601,6,655,1,2,1,6
16,27,33,16,f,1,1,1602,8,1974,0,2,1,3
16,28,33,16,f,1,1,1603,3,1083,1,2,1,3
16,29,33,16,f,1,1,1604,1,1186,0,2,1,8
16,30,33,16,f,1,1,1605,2,1089,0,2,1,1
16,31,33,16,f,1,1,1606,5,723,1,2,1,5
16,32,33,16,f,1,1,1607,9,982,1,2,1,9
16,33,33,16,f,1,1,1608,7,657,1,2,1,7
16,34,33,16,f,1,1,1609,2,895,0,2,1,6
16,35,33,16,f,1,1,1610,1,699,1,2,1,1
16,36,33,16,f,1,1,1611,5,820,1,2,1,5
16,37,33,16,f,1,1,1612,3,934,1,2,1,3
16,38,33,16,f,1,1,1613,1,1452,1,2,1,1
16,39,33,16,f,1,1,1614,2,869,0,2,1,6
16,40,33,16,f,1,1,1615,4,602,1,2,1,4
16,41,33,16,f,1,1,1616,4,608,1,2,1,4
16,42,33,16,f,1,1,1617,1,1860,0,2,1,2
16,43,33,16,f,1,1,1618,9,708,1,2,1,9
16,44,33,16,f,1,1,1619,6,680,1,2,1,6
16,45,33,16,f,1,1,1620,1,2549,0,2,1,9
16,46,33,16,f,1,1,1621,9,730,0,2,1,5
16,47,33,16,f,1,1,1622,9,1060,1,2,1,9
16,48,33,16,f,1,1,1623,9,2086,0,2,1,1
16,49,33,16,f,1,1,1624,6,947,1,2,1,6
16,50,33,16,f,1,1,1625,7,574,1,2,1,7
16,51,33,16,f,1,1,1626,2,710,0,2,1,3
16,52,33,16,f,1,1,1627,9,1938,1,2,1,9
16,53,33,16,f,1,1,1628,1,795,1,2,1,1
16,54,33,36,f,1,2,1629,8,939,1,2,1,8
16,55,33,36,f,1,2,1630,4,573,1,2,1,4
16,56,33,36,f,1,2,1631,8,619,1,2,1,8
16,57,33,36,f,1,2,1632,1,1082,0,2,1,7
16,58,33,36,f,1,2,1633,9,972,0,2,1,7
16,59,33,36,f,1,2,1634,1,922,0,2,1,3
16,60,33,36,f,1,2,1635,7,378,1,2,1,7
16,61,33,36,f,1,2,1636,1,673,1,2,1,1
16,62,33,36,f,1,2,1637,1,1066,1,2,1,1
16,63,33,36,f,1,2,1638,2,557,1,2,1,2
16,64,33,36,f,1,2,1639,3,901,1,2,1,3
16,65,33,36,f,1,2,1640,5,1196,0,2,1,9
16,66,33,36,f,1,2,1641,6,775,1,2,1,6
16,67,33,36,f,1,2,1642,3,660,1,2,1,3
16,68,33,36,f,1,2,1643,3,323,1,2,1,3
16,69,33,36,f,1,2,1644,9,1507,0,2,1,7
16,70,33,36,f,1,2,1645,5,639,1,2,1,5
16,71,33,36,f,1,2,1646,4,650,1,2,1,4
16,72,33,36,f,1,2,1647,4,588,1,2,1,4
16,73,33,36,f,1,2,1648,7,477,1,2,1,7
16,74,33,36,f,1,2,1649,4,388,1,2,1,4
16,75,33,36,f,1,2,1650,1,701,0,2,1,9
16,76,33,36,f,1,2,1651,2,654,0,2,1,6
16,77,33,36,f,1,2,1652,1,973,1,2,1,1
16,78,33,36,f,1,2,1653,4,786,1,2,1,4
16,79,33,36,f,1,2,1654,9,876,1,2,1,9
16,80,33,36,f,1,2,1655,3,1048,1,2,1,3
16,81,33,36,f,1,2,1656,9,736,1,2,1,9
16,82,33,36,f,1,2,1657,1,1173,1,2,1,1
16,83,33,36,f,1,2,1658,3,652,1,2,1,3
16,84,33,36,f,1,2,1659,1,733,0,2,1,6
16,85,33,36,f,1,2,1660,4,519,1,2,1,4
16,86,33,36,f,1,2,1661,9,801,0,2,1,6
16,87,33,36,f,1,2,1662,2,469,1,2,1,2
16,88,33,36,f,1,2,1663,8,716,1,2,1,8
16,89,33,36,f,1,2,1664,5,606,1,2,1,5
16,90,33,36,f,1,2,1665,5,654,1,2,1,5
16,91,33,36,f,1,2,1666,9,905,1,2,1,9
16,92,33,36,f,1,2,1667,4,566,1,2,1,4
16,93,33,36,f,1,2,1668,6,936,1,2,1,6
16,94,33,36,f,1,2,1669,2,565,1,2,1,2
16,95,33,36,f,1,2,1670,6,587,1,2,1,6
16,96,33,36,f,1,2,1671,3,448,1,2,1,3
16,97,33,36,f,1,2,1672,9,581,1,2,1,9
16,98,33,36,f,1,2,1673,9,607,1,2,1,9
16,99,33,36,f,1,2,1674,4,602,1,2,1,4
16,100,33,36,f,1,2,1675,3,394,1,2,1,3
16,101,33,36,f,1,2,1676,7,808,0,2,1,1
16,102,33,36,f,1,2,1677,8,1969,0,2,1,7
16,103,33,36,f,1,2,1678,8,1549,0,2,1,3
16,104,33,36,f,1,2,1679,2,541,1,2,1,2
16,105,33,36,f,1,2,1680,6,1356,1,2,1,6
17,1,30,17,f,1,1,1681,8,6087,1,1,2,8
17,2,30,17,f,1,1,1682,1,855,1,1,2,1
17,3,30,17,f,1,1,1683,9,711,1,1,2,9
17,4,30,17,f,1,1,1684,9,899,1,1,2,9
17,5,30,17,f,1,1,1685,1,436,1,1,2,1
17,6,30,17,f,1,1,1686,4,651,1,1,2,4
17,7,30,17,f,1,1,1687,3,582,1,1,2,3
17,8,30,17,f,1,1,1688,5,825,1,1,2,5
17,9,30,17,f,1,1,1689,7,1460,0,1,2,4
17,10,30,17,f,1,1,1690,1,303,1,1,2,1
17,11,30,17,f,1,1,1691,6,1537,0,1,2,7
17,12,30,17,f,1,1,1692,1,299,1,1,2,1
17,13,30,17,f,1,1,1693,2,811,1,1,2,2
17,14,30,17,f,1,1,1694,6,1737,1,1,2,6
17,15,30,17,f,1,1,1695,5,1633,0,1,2,4
17,16,30,17,f,1,1,1696,9,320,1,1,2,9
17,17,30,17,f,1,1,1697,1,541,0,1,2,6
17,18,30,17,f,1,1,1698,6,592,1,1,2,6
17,19,30,17,f,1,1,1699,6,783,1,1,2,6
17,20,30,17,f,1,1,1700,9,715,0,1,2,2
17,21,30,17,f,1,1,1701,5,1470,0,1,2,2
17,22,30,17,f,1,1,1702,9,533,1,1,2,9
17,23,30,17,f,1,1,1703,2,740,0,1,2,6
17,24,30,17,f,1,1,1704,3,547,0,1,2,6
17,25,30,17,f,1,1,1705,1,576,0,1,2,5
17,26,30,17,f,1,1,1706,8,809,1,1,2,8
17,27,30,17,f,1,1,1707,7,863,0,1,2,6
17,28,30,17,f,1,1,1708,7,831,1,1,2,7
17,29,30,17,f,1,1,1709,2,548,1,1,2,2
17,30,30,17,f,1,1,1710,6,558,1,1,2,6
17,31,30,17,f,1,1,1711,5,849,1,1,2,5
17,32,30,17,f,1,1,1712,9,1764,1,1,2,9
17,33,30,17,f,1,1,1713,7,465,1,1,2,7
17,34,30,17,f,1,1,1714,6,501,1,1,2,6
17,35,30,17,f,1,1,1715,5,1525,0,1,2,6
17,36,30,17,f,1,1,1716,9,764,1,1,2,9
17,37,30,17,f,1,1,1717,7,1451,0,1,2,8
17,38,30,17,f,1,1,1718,6,1521,0,1,2,5
17,39,30,17,f,1,1,1719,7,655,1,1,2,7
17,40,30,17,f,1,1,1720,3,387,1,1,2,3
17,41,30,17,f,1,1,1721,2,705,0,1,2,7
17,42,30,17,f,1,1,1722,8,549,1,1,2,8
17,43,30,17,f,1,1,1723,5,816,1,1,2,5
17,44,30,17,f,1,1,1724,4,593,1,1,2,4
17,45,30,17,f,1,1,1725,9,539,1,1,2,9
17,46,30,17,f,1,1,1726,2,436,1,1,2,2
17,47,30,17,f,1,1,1727,9,189,1,1,2,9
17,48,30,17,f,1,1,1728,7,1124,0,1,2,1
17,49,30,17,f,1,1,1729,6,357,1,1,2,6
17,50,30,17,f,1,1,1730,3,668,1,1,2,3
17,51,30,17,f,1,1,1731,1,346,1,1,2,1
17,52,30,17,f,1,1,1732,2,494,1,1,2,2
17,53,30,17,f,1,1,1733,6,1253,0,1,2,3
17,54,30,37,f,1,2,1734,2,693,0,1,2,5
17,55,30,37,f,1,2,1735,2,370,1,1,2,2
17,56,30,37,f,1,2,1736,6,442,1,1,2,6
17,57,30,37,f,1,2,1737,2,548,0,1,2,5
17,58,30,37,f,1,2,1738,4,791,1,1,2,4
17,59,30,37,f,1,2,1739,3,352,1,1,2,3
17,60,30,37,f,1,2,1740,3,416,1,1,2,3
17,61,30,37,f,1,2,1741,9,301,0,1,2,5
17,62,30,37,f,1,2,1742,4,550,0,1,2,6
17,63,30,37,f,1,2,1743,1,389,1,1,2,1
17,64,30,37,f,1,2,1744,8,402,1,1,2,8
17,65,30,37,f,1,2,1745,8,383,0,1,2,2
17,66,30,37,f,1,2,1746,1,482,0,1,2,2
17,67,30,37,f,1,2,1747,5,258,1,1,2,5
17,68,30,37,f,1,2,1748,8,99,1,1,2,8
17,69,30,37,f,1,2,1749,5,420,1,1,2,5
17,70,30,37,f,1,2,1750,5,396,1,1,2,5
17,71,30,37,f,1,2,1751,4,500,1,1,2,4
17,72,30,37,f,1,2,1752,4,497,1,1,2,4
17,73,30,37,f,1,2,1753,7,599,1,1,2,7
17,74,30,37,f,1,2,1754,4,245,1,1,2,4
17,75,30,37,f,1,2,1755,9,509,1,1,2,9
17,76,30,37,f,1,2,1756,4,679,1,1,2,4
17,77,30,37,f,1,2,1757,3,612,1,1,2,3
17,78,30,37,f,1,2,1758,4,736,0,1,2,5
17,79,30,37,f,1,2,1759,2,496,0,1,2,8
17,80,30,37,f,1,2,1760,5,414,0,1,2,3
17,81,30,37,f,1,2,1761,2,452,0,1,2,6
17,82,30,37,f,1,2,1762,8,877,1,1,2,8
17,83,30,37,f,1,2,1763,5,685,1,1,2,5
17,84,30,37,f,1,2,1764,1,859,0,1,2,9
17,85,30,37,f,1,2,1765,9,622,0,1,2,7
17,86,30,37,f,1,2,1766,2,574,0,1,2,4
17,87,30,37,f,1,2,1767,1,539,0,1,2,2
17,88,30,37,f,1,2,1768,7,720,1,1,2,7
17,89,30,37,f,1,2,1769,5,500,0,1,2,7
17,90,30,37,f,1,2,1770,3,863,0,1,2,5
17,91,30,37,f,1,2,1771,6,419,1,1,2,6
17,92,30,37,f,1,2,1772,9,883,0,1,2,8
17,93,30,37,f,1,2,1773,5,439,1,1,2,5
17,94,30,37,f,1,2,1774,9,361,0,1,2,2
17,95,30,37,f,1,2,1775,1,285,1,1,2,1
17,96,30,37,f,1,2,1776,3,598,1,1,2,3
17,97,30,37,f,1,2,1777,5,567,1,1,2,5
17,98,30,37,f,1,2,1778,6,332,1,1,2,6
17,99,30,37,f,1,2,1779,2,294,1,1,2,2
17,100,30,37,f,1,2,1780,8,703,0,1,2,7
17,101,30,37,f,1,2,1781,6,374,1,1,2,6
17,102,30,37,f,1,2,1782,1,241,1,1,2,1
17,103,30,37,f,1,2,1783,2,450,1,1,2,2
17,104,30,37,f,1,2,1784,7,408,1,1,2,7
17,105,30,37,f,1,2,1785,8,598,1,1,2,8
18,1,41,18,m,1,1,1786,8,7613,1,2,2,8
18,2,41,18,m,1,1,1787,6,11434,0,2,2,1
18,3,41,18,m,1,1,1788,4,492,1,2,2,4
18,4,41,18,m,1,1,1789,3,1178,1,2,2,3
18,5,41,18,m,1,1,1790,9,2635,1,2,2,9
18,6,41,18,m,1,1,1791,2,4448,0,2,2,7
18,7,41,18,m,1,1,1792,4,4021,1,2,2,4
18,8,41,18,m,1,1,1793,4,980,1,2,2,4
18,9,41,18,m,1,1,1794,4,843,1,2,2,4
18,10,41,18,m,1,1,1795,3,1069,1,2,2,3
18,11,41,18,m,1,1,1796,6,2917,1,2,2,6
18,12,41,18,m,1,1,1797,4,1187,1,2,2,4
18,13,41,18,m,1,1,1798,2,1148,0,2,2,9
18,14,41,18,m,1,1,1799,9,5695,0,2,2,6
18,15,41,18,m,1,1,1800,7,932,1,2,2,7
18,16,41,18,m,1,1,1801,4,952,1,2,2,4
18,17,41,18,m,1,1,1802,8,1109,1,2,2,8
18,18,41,18,m,1,1,1803,1,332,1,2,2,1
18,19,41,18,m,1,1,1804,2,547,1,2,2,2
18,20,41,18,m,1,1,1805,5,1150,1,2,2,5
18,21,41,18,m,1,1,1806,3,909,1,2,2,3
18,22,41,18,m,1,1,1807,7,1088,0,2,2,9
18,23,41,18,m,1,1,1808,4,1260,0,2,2,7
18,24,41,18,m,1,1,1809,7,1803,0,2,2,3
18,25,41,18,m,1,1,1810,7,851,1,2,2,7
18,26,41,18,m,1,1,1811,4,956,0,2,2,7
18,27,41,18,m,1,1,1812,8,436,1,2,2,8
18,28,41,18,m,1,1,1813,5,1227,1,2,2,5
18,29,41,18,m,1,1,1814,3,949,1,2,2,3
18,30,41,18,m,1,1,1815,8,564,1,2,2,8
18,31,41,18,m,1,1,1816,2,510,1,2,2,2
18,32,41,18,m,1,1,1817,7,957,0,2,2,1
18,33,41,18,m,1,1,1818,4,888,1,2,2,4
18,34,41,18,m,1,1,1819,6,1041,0,2,2,8
18,35,41,18,m,1,1,1820,9,2314,0,2,2,6
18,36,41,18,m,1,1,1821,5,554,1,2,2,5
18,37,41,18,m,1,1,1822,2,979,1,2,2,2
18,38,41,18,m,1,1,1823,2,1262,0,2,2,3
18,39,41,18,m,1,1,1824,1,1067,0,2,2,8
18,40,41,18,m,1,1,1825,3,710,1,2,2,3
18,41,41,18,m,1,1,1826,1,700,1,2,2,1
18,42,41,18,m,1,1,1827,2,721,0,2,2,4
18,43,41,18,m,1,1,1828,8,623,1,2,2,8
18,44,41,18,m,1,1,1829,3,770,1,2,2,3
18,45,41,18,m,1,1,1830,9,586,0,2,2,2
18,46,41,18,m,1,1,1831,1,834,0,2,2,6
18,47,41,18,m,1,1,1832,1,1361,1,2,2,1
18,48,41,18,m,1,1,1833,7,1252,0,2,2,8
18,49,41,18,m,1,1,1834,7,1012,1,2,2,7
18,50,41,18,m,1,1,1835,1,915,0,2,2,7
18,51,41,18,m,1,1,1836,1,1839,0,2,2,8
18,52,41,18,m,1,1,1837,2,561,1,2,2,2
18,53,41,18,m,1,1,1838,2,1043,0,2,2,3
18,54,41,38,m,1,2,1839,4,720,1,2,2,4
18,55,41,38,m,1,2,1840,3,1957,0,2,2,2
18,56,41,38,m,1,2,1841,3,1620,1,2,2,3
18,57,41,38,m,1,2,1842,5,2010,0,2,2,7
18,58,41,38,m,1,2,1843,3,1679,1,2,2,3
18,59,41,38,m,1,2,1844,3,581,1,2,2,3
18,60,41,38,m,1,2,1845,9,529,1,2,2,9
18,61,41,38,m,1,2,1846,8,662,1,2,2,8
18,62,41,38,m,1,2,1847,4,771,1,2,2,4
18,63,41,38,m,1,2,1848,1,608,1,2,2,1
18,64,41,38,m,1,2,1849,8,626,1,2,2,8
18,65,41,38,m,1,2,1850,2,737,1,2,2,2
18,66,41,38,m,1,2,1851,7,540,0,2,2,6
18,67,41,38,m,1,2,1852,3,555,1,2,2,3
18,68,41,38,m,1,2,1853,3,456,1,2,2,3
18,69,41,38,m,1,2,1854,4,1007,0,2,2,7
18,70,41,38,m,1,2,1855,5,703,1,2,2,5
18,71,41,38,m,1,2,1856,4,645,1,2,2,4
18,72,41,38,m,1,2,1857,1,2051,0,2,2,4
18,73,41,38,m,1,2,1858,3,1048,1,2,2,3
18,74,41,38,m,1,2,1859,1,756,1,2,2,1
18,75,41,38,m,1,2,1860,9,999,1,2,2,9
18,76,41,38,m,1,2,1861,1,1319,0,2,2,2
18,77,41,38,m,1,2,1862,1,752,1,2,2,1
18,78,41,38,m,1,2,1863,4,913,1,2,2,4
18,79,41,38,m,1,2,1864,9,691,1,2,2,9
18,80,41,38,m,1,2,1865,3,588,1,2,2,3
18,81,41,38,m,1,2,1866,7,862,0,2,2,9
18,82,41,38,m,1,2,1867,8,1548,0,2,2,7
18,83,41,38,m,1,2,1868,6,1469,0,2,2,8
18,84,41,38,m,1,2,1869,7,692,0,2,2,4
18,85,41,38,m,1,2,1870,3,487,1,2,2,3
18,86,41,38,m,1,2,1871,2,1879,0,2,2,4
18,87,41,38,m,1,2,1872,2,495,1,2,2,2
18,88,41,38,m,1,2,1873,4,1059,0,2,2,6
18,89,41,38,m,1,2,1874,5,892,0,2,2,6
18,90,41,38,m,1,2,1875,5,1491,1,2,2,5
18,91,41,38,m,1,2,1876,4,520,1,2,2,4
18,92,41,38,m,1,2,1877,6,667,1,2,2,6
18,93,41,38,m,1,2,1878,7,739,1,2,2,7
18,94,41,38,m,1,2,1879,6,759,1,2,2,6
18,95,41,38,m,1,2,1880,2,1066,0,2,2,3
18,96,41,38,m,1,2,1881,6,648,1,2,2,6
18,97,41,38,m,1,2,1882,6,2152,0,2,2,7
18,98,41,38,m,1,2,1883,6,675,1,2,2,6
18,99,41,38,m,1,2,1884,2,739,1,2,2,2
18,100,41,38,m,1,2,1885,2,1130,0,2,2,7
18,101,41,38,m,1,2,1886,9,1079,0,2,2,3
18,102,41,38,m,1,2,1887,1,749,1,2,2,1
18,103,41,38,m,1,2,1888,2,292,1,2,2,2
18,104,41,38,m,1,2,1889,7,1390,1,2,2,7
18,105,41,38,m,1,2,1890,8,686,1,2,2,8
19,1,22,19,f,1,1,1891,8,887,1,1,1,8
19,2,22,19,f,1,1,1892,1,1129,1,1,1,1
19,3,22,19,f,1,1,1893,9,831,1,1,1,9
19,4,22,19,f,1,1,1894,9,889,1,1,1,9
19,5,22,19,f,1,1,1895,8,2281,0,1,1,1
19,6,22,19,f,1,1,1896,9,1948,0,1,1,7
19,7,22,19,f,1,1,1897,4,884,1,1,1,4
19,8,22,19,f,1,1,1898,4,492,1,1,1,4
19,9,22,19,f,1,1,1899,4,621,1,1,1,4
19,10,22,19,f,1,1,1900,3,588,1,1,1,3
19,11,22,19,f,1,1,1901,5,926,0,1,1,6
19,12,22,19,f,1,1,1902,5,796,1,1,1,5
19,13,22,19,f,1,1,1903,5,1154,0,1,1,6
19,14,22,19,f,1,1,1904,7,623,1,1,1,7
19,15,22,19,f,1,1,1905,7,796,0,1,1,2
19,16,22,19,f,1,1,1906,2,629,1,1,1,2
19,17,22,19,f,1,1,1907,8,1368,0,1,1,7
19,18,22,19,f,1,1,1908,1,548,1,1,1,1
19,19,22,19,f,1,1,1909,4,644,1,1,1,4
19,20,22,19,f,1,1,1910,2,697,1,1,1,2
19,21,22,19,f,1,1,1911,3,778,1,1,1,3
19,22,22,19,f,1,1,1912,7,1813,0,1,1,8
19,23,22,19,f,1,1,1913,7,989,0,1,1,9
19,24,22,19,f,1,1,1914,5,591,1,1,1,5
19,25,22,19,f,1,1,1915,4,1452,0,1,1,2
19,26,22,19,f,1,1,1916,9,940,1,1,1,9
19,27,22,19,f,1,1,1917,8,948,1,1,1,8
19,28,22,19,f,1,1,1918,6,1235,0,1,1,7
19,29,22,19,f,1,1,1919,2,684,0,1,1,6
19,30,22,19,f,1,1,1920,9,530,1,1,1,9
19,31,22,19,f,1,1,1921,3,520,0,1,1,8
19,32,22,19,f,1,1,1922,2,444,1,1,1,2
19,33,22,19,f,1,1,1923,6,1296,1,1,1,6
19,34,22,19,f,1,1,1924,4,482,1,1,1,4
19,35,22,19,f,1,1,1925,4,531,1,1,1,4
19,36,22,19,f,1,1,1926,2,570,1,1,1,2
19,37,22,19,f,1,1,1927,4,1161,0,1,1,3
19,38,22,19,f,1,1,1928,7,884,1,1,1,7
19,39,22,19,f,1,1,1929,3,516,0,1,1,7
19,40,22,19,f,1,1,1930,4,509,0,1,1,9
19,41,22,19,f,1,1,1931,1,679,0,1,1,6
19,42,22,19,f,1,1,1932,1,593,1,1,1,1
19,43,22,19,f,1,1,1933,7,1453,0,1,1,8
19,44,22,19,f,1,1,1934,1,528,0,1,1,7
19,45,22,19,f,1,1,1935,2,821,0,1,1,6
19,46,22,19,f,1,1,1936,1,444,1,1,1,1
19,47,22,19,f,1,1,1937,9,356,1,1,1,9
19,48,22,19,f,1,1,1938,4,1252,0,1,1,7
19,49,22,19,f,1,1,1939,5,700,0,1,1,1
19,50,22,19,f,1,1,1940,4,939,0,1,1,3
19,51,22,19,f,1,1,1941,3,149,1,1,1,3
19,52,22,19,f,1,1,1942,9,1012,0,1,1,3
19,53,22,19,f,1,1,1943,1,638,1,1,1,1
19,54,22,39,f,1,2,1944,5,971,1,1,1,5
19,55,22,39,f,1,2,1945,6,588,1,1,1,6
19,56,22,39,f,1,2,1946,6,479,1,1,1,6
19,57,22,39,f,1,2,1947,9,742,1,1,1,9
19,58,22,39,f,1,2,1948,8,791,1,1,1,8
19,59,22,39,f,1,2,1949,9,778,1,1,1,9
19,60,22,39,f,1,2,1950,3,890,1,1,1,3
19,61,22,39,f,1,2,1951,4,1249,0,1,1,6
19,62,22,39,f,1,2,1952,7,906,1,1,1,7
19,63,22,39,f,1,2,1953,7,871,1,1,1,7
19,64,22,39,f,1,2,1954,5,446,1,1,1,5
19,65,22,39,f,1,2,1955,1,819,1,1,1,1
19,66,22,39,f,1,2,1956,9,381,1,1,1,9
19,67,22,39,f,1,2,1957,7,676,0,1,1,1
19,68,22,39,f,1,2,1958,2,685,1,1,1,2
19,69,22,39,f,1,2,1959,3,659,1,1,1,3
19,70,22,39,f,1,2,1960,2,907,1,1,1,2
19,71,22,39,f,1,2,1961,5,970,1,1,1,5
19,72,22,39,f,1,2,1962,8,1259,1,1,1,8
19,73,22,39,f,1,2,1963,9,1281,1,1,1,9
19,74,22,39,f,1,2,1964,8,800,1,1,1,8
19,75,22,39,f,1,2,1965,6,2248,1,1,1,6
19,76,22,39,f,1,2,1966,4,522,1,1,1,4
19,77,22,39,f,1,2,1967,3,794,1,1,1,3
19,78,22,39,f,1,2,1968,4,737,1,1,1,4
19,79,22,39,f,1,2,1969,3,890,1,1,1,3
19,80,22,39,f,1,2,1970,9,538,1,1,1,9
19,81,22,39,f,1,2,1971,6,967,1,1,1,6
19,82,22,39,f,1,2,1972,2,905,0,1,1,7
19,83,22,39,f,1,2,1973,5,1501,1,1,1,5
19,84,22,39,f,1,2,1974,1,927,0,1,1,9
19,85,22,39,f,1,2,1975,7,805,1,1,1,7
19,86,22,39,f,1,2,1976,5,678,1,1,1,5
19,87,22,39,f,1,2,1977,4,557,1,1,1,4
19,88,22,39,f,1,2,1978,3,607,1,1,1,3
19,89,22,39,f,1,2,1979,4,778,0,1,1,1
19,90,22,39,f,1,2,1980,2,530,1,1,1,2
19,91,22,39,f,1,2,1981,3,586,1,1,1,3
19,92,22,39,f,1,2,1982,8,1000,0,1,1,7
19,93,22,39,f,1,2,1983,2,658,1,1,1,2
19,94,22,39,f,1,2,1984,3,1323,1,1,1,3
19,95,22,39,f,1,2,1985,4,633,0,1,1,3
19,96,22,39,f,1,2,1986,5,1036,1,1,1,5
19,97,22,39,f,1,2,1987,9,811,1,1,1,9
19,98,22,39,f,1,2,1988,7,1348,1,1,1,7
19,99,22,39,f,1,2,1989,1,1034,1,1,1,1
19,100,22,39,f,1,2,1990,7,440,1,1,1,7
19,101,22,39,f,1,2,1991,8,714,1,1,1,8
19,102,22,39,f,1,2,1992,2,606,0,1,1,9
19,103,22,39,f,1,2,1993,8,1250,0,1,1,9
19,104,22,39,f,1,2,1994,9,692,0,1,1,3
19,105,22,39,f,1,2,1995,6,687,0,1,1,5
20,1,22,20,f,1,1,1996,8,1679,1,2,1,8
20,2,22,20,f,1,1,1997,1,748,1,2,1,1
20,3,22,20,f,1,1,1998,2,1278,0,2,1,9
20,4,22,20,f,1,1,1999,3,615,1,2,1,3
20,5,22,20,f,1,1,2000,9,889,1,2,1,9
20,6,22,20,f,1,1,2001,9,1175,0,2,1,7
20,7,22,20,f,1,1,2002,3,1957,0,2,1,4
20,8,22,20,f,1,1,2003,9,843,1,2,1,9
20,9,22,20,f,1,1,2004,7,2682,0,2,1,3
20,10,22,20,f,1,1,2005,3,1457,1,2,1,3
20,11,22,20,f,1,1,2006,2,2024,1,2,1,2
20,12,22,20,f,1,1,2007,1,608,1,2,1,1
20,13,22,20,f,1,1,2008,3,1662,0,2,1,1
20,14,22,20,f,1,1,2009,7,964,1,2,1,7
20,15,22,20,f,1,1,2010,2,1030,1,2,1,2
20,16,22,20,f,1,1,2011,7,1021,1,2,1,7
20,17,22,20,f,1,1,2012,1,854,1,2,1,1
20,18,22,20,f,1,1,2013,7,590,0,2,1,6
20,19,22,20,f,1,1,2014,3,1701,1,2,1,3
20,20,22,20,f,1,1,2015,7,3969,0,2,1,6
20,21,22,20,f,1,1,2016,2,1312,0,2,1,9
20,22,22,20,f,1,1,2017,3,2609,0,2,1,6
20,23,22,20,f,1,1,2018,8,2590,0,2,1,4
20,24,22,20,f,1,1,2019,1,811,1,2,1,1
20,25,22,20,f,1,1,2020,1,579,1,2,1,1
20,26,22,20,f,1,1,2021,9,647,1,2,1,9
20,27,22,20,f,1,1,2022,8,1190,1,2,1,8
20,28,22,20,f,1,1,2023,3,2948,0,2,1,7
20,29,22,20,f,1,1,2024,4,1595,0,2,1,5
20,30,22,20,f,1,1,2025,6,973,0,2,1,9
20,31,22,20,f,1,1,2026,1,2013,0,2,1,5
20,32,22,20,f,1,1,2027,1,484,1,2,1,1
20,33,22,20,f,1,1,2028,4,1964,1,2,1,4
20,34,22,20,f,1,1,2029,7,2068,0,2,1,2
20,35,22,20,f,1,1,2030,1,754,1,2,1,1
20,36,22,20,f,1,1,2031,5,4054,1,2,1,5
20,37,22,20,f,1,1,2032,6,908,1,2,1,6
20,38,22,20,f,1,1,2033,7,501,1,2,1,7
20,39,22,20,f,1,1,2034,7,870,1,2,1,7
20,40,22,20,f,1,1,2035,3,635,1,2,1,3
20,41,22,20,f,1,1,2036,8,3875,0,2,1,7
20,42,22,20,f,1,1,2037,4,632,1,2,1,4
20,43,22,20,f,1,1,2038,3,446,1,2,1,3
20,44,22,20,f,1,1,2039,7,612,1,2,1,7
20,45,22,20,f,1,1,2040,6,2281,0,2,1,5
20,46,22,20,f,1,1,2041,3,435,1,2,1,3
20,47,22,20,f,1,1,2042,6,563,1,2,1,6
20,48,22,20,f,1,1,2043,7,546,1,2,1,7
20,49,22,20,f,1,1,2044,2,422,1,2,1,2
20,50,22,20,f,1,1,2045,5,558,1,2,1,5
20,51,22,20,f,1,1,2046,1,531,1,2,1,1
20,52,22,20,f,1,1,2047,5,1629,0,2,1,3
20,53,22,20,f,1,1,2048,1,366,1,2,1,1
20,54,22,40,f,1,2,2049,8,309,1,2,1,8
20,55,22,40,f,1,2,2050,4,595,1,2,1,4
20,56,22,40,f,1,2,2051,8,284,1,2,1,8
20,57,22,40,f,1,2,2052,7,128,1,2,1,7
20,58,22,40,f,1,2,2053,4,570,1,2,1,4
20,59,22,40,f,1,2,2054,3,2863,1,2,1,3
20,60,22,40,f,1,2,2055,3,559,1,2,1,3
20,61,22,40,f,1,2,2056,5,1028,1,2,1,5
20,62,22,40,f,1,2,2057,8,154,1,2,1,8
20,63,22,40,f,1,2,2058,4,555,1,2,1,4
20,64,22,40,f,1,2,2059,6,1309,1,2,1,6
20,65,22,40,f,1,2,2060,4,761,1,2,1,4
20,66,22,40,f,1,2,2061,9,1287,1,2,1,9
20,67,22,40,f,1,2,2062,7,583,1,2,1,7
20,68,22,40,f,1,2,2063,5,698,1,2,1,5
20,69,22,40,f,1,2,2064,3,683,1,2,1,3
20,70,22,40,f,1,2,2065,6,908,0,2,1,4
20,71,22,40,f,1,2,2066,3,1132,1,2,1,3
20,72,22,40,f,1,2,2067,4,702,1,2,1,4
20,73,22,40,f,1,2,2068,9,652,1,2,1,9
20,74,22,40,f,1,2,2069,4,446,1,2,1,4
20,75,22,40,f,1,2,2070,4,1347,0,2,1,5
20,76,22,40,f,1,2,2071,3,664,1,2,1,3
20,77,22,40,f,1,2,2072,2,355,1,2,1,2
20,78,22,40,f,1,2,2073,3,786,1,2,1,3
20,79,22,40,f,1,2,2074,9,812,1,2,1,9
20,80,22,40,f,1,2,2075,2,404,1,2,1,2
20,81,22,40,f,1,2,2076,8,2629,0,2,1,4
20,82,22,40,f,1,2,2077,7,1875,0,2,1,8
20,83,22,40,f,1,2,2078,8,558,1,2,1,8
20,84,22,40,f,1,2,2079,2,225,1,2,1,2
20,85,22,40,f,1,2,2080,1,384,0,2,1,2
20,86,22,40,f,1,2,2081,6,3232,1,2,1,6
20,87,22,40,f,1,2,2082,4,363,1,2,1,4
20,88,22,40,f,1,2,2083,6,596,1,2,1,6
20,89,22,40,f,1,2,2084,3,1842,1,2,1,3
20,90,22,40,f,1,2,2085,6,435,1,2,1,6
20,91,22,40,f,1,2,2086,5,1349,0,2,1,8
20,92,22,40,f,1,2,2087,5,469,1,2,1,5
20,93,22,40,f,1,2,2088,7,291,1,2,1,7
20,94,22,40,f,1,2,2089,1,244,1,2,1,1
20,95,22,40,f,1,2,2090,4,543,1,2,1,4
20,96,22,40,f,1,2,2091,9,2206,0,2,1,1
20,97,22,40,f,1,2,2092,7,539,1,2,1,7
20,98,22,40,f,1,2,2093,9,1288,0,2,1,8
20,99,22,40,f,1,2,2094,4,368,1,2,1,4
20,100,22,40,f,1,2,2095,1,375,1,2,1,1
20,101,22,40,f,1,2,2096,3,281,1,2,1,3
20,102,22,40,f,1,2,2097,1,447,1,2,1,1
20,103,22,40,f,1,2,2098,3,576,1,2,1,3
20,104,22,40,f,1,2,2099,8,986,1,2,1,8
20,105,22,40,f,1,2,2100,3,1900,0,2,1,1
