subjnr,rho,T_present,response,correct,trial_id,session,rt
1,0,1,1,1,1,1,
1,0,0,1,0,2,1,
1,0,1,1,1,3,1,
1,0,0,0,1,4,1,
1,0,1,0,0,5,1,
1,0,1,1,1,6,1,
1,0,0,0,1,7,1,
1,0,1,1,1,8,1,
1,0,1,0,0,9,1,
1,0,0,0,1,10,1,
1,0,0,0,1,11,1,
1,0,1,0,0,12,1,
1,0,0,1,0,13,1,
1,0,1,0,0,14,1,
1,0,1,1,1,15,1,
1,0,0,1,0,16,1,
1,0,0,1,0,17,1,
1,0,0,1,0,18,1,
1,0,1,1,1,19,1,
1,0,1,1,1,20,1,
1,0,1,1,1,21,1,
1,0,0,0,1,22,1,
1,0,0,1,0,23,1,
1,0,1,1,1,24,1,
1,0,1,0,0,25,1,
1,0,1,0,0,26,1,
1,0,1,1,1,27,1,
1,0,0,0,1,28,1,
1,0,0,1,0,29,1,
1,0,1,1,1,30,1,
1,0,0,0,1,31,1,
1,0,0,1,0,32,1,
1,0,0,1,0,33,1,
1,0,1,0,0,34,1,
1,0,0,1,0,35,1,
1,0,1,1,1,36,1,
1,0,1,1,1,37,1,
1,0,0,0,1,38,1,
1,0,0,0,1,39,1,
1,0,1,0,0,40,1,
1,0,0,1,0,41,1,
1,0,1,0,0,42,1,
1,0,0,0,1,43,1,
1,0,0,1,0,44,1,
1,0,0,0,1,45,1,
1,0,0,1,0,46,1,
1,0,1,1,1,47,1,
1,0,1,1,1,48,1,
1,0,0,1,0,49,1,
1,0,0,0,1,50,1,
1,0,1,0,0,51,1,
1,0,0,1,0,52,1,
1,0,0,0,1,53,1,
1,0,1,0,0,54,1,
1,0,1,0,0,55,1,
1,0,0,1,0,56,1,
1,0,0,1,0,57,1,
1,0,0,1,0,58,1,
1,0,1,0,0,59,1,
1,0,1,1,1,60,1,
1,0,1,1,1,61,1,
1,0,1,0,0,62,1,
1,0,0,1,0,63,1,
1,0,0,0,1,64,1,
1,0,0,0,1,65,1,
1,0,1,0,0,66,1,
1,0,1,0,0,67,1,
1,0,1,1,1,68,1,
1,0,1,0,0,69,1,
1,0,1,1,1,70,1,
1,0,0,1,0,71,1,
1,0,1,1,1,72,1,
1,0,0,0,1,73,1,
1,0,1,0,0,74,1,
1,0,0,1,0,75,1,
1,0,0,0,1,76,1,
1,0,1,1,1,77,1,
1,0,1,0,0,78,1,
1,0,1,0,0,79,1,
1,0,0,0,1,80,1,
1,0,1,0,0,81,1,
1,0,1,1,1,82,1,
1,0,0,1,0,83,1,
1,0,1,0,0,84,1,
1,0,1,0,0,85,1,
1,0,0,1,0,86,1,
1,0,0,0,1,87,1,
1,0,0,0,1,88,1,
1,0,1,0,0,89,1,
1,0,0,1,0,90,1,
1,0,1,1,1,91,1,
1,0,0,1,0,92,1,
1,0,0,1,0,93,1,
1,0,0,0,1,94,1,
1,0,0,0,1,95,1,
1,0,1,0,0,96,1,
1,0,0,0,1,97,1,
1,0,0,0,1,98,1,
1,0,0,1,0,99,1,
1,0,0,0,1,100,1,
1,0,0,0,1,101,1,
1,0,0,1,0,102,1,
1,0,0,0,1,103,1,
1,0,0,0,1,104,1,
1,0,0,0,1,105,1,
1,0,0,0,1,106,1,
1,0,0,1,0,107,1,
1,0,1,1,1,108,1,
1,0,1,0,0,109,1,
1,0,0,1,0,110,1,
1,0,0,1,0,111,1,
1,0,1,1,1,112,1,
1,0,0,0,1,113,1,
1,0,1,0,0,114,1,
1,0,1,1,1,115,1,
1,0,0,0,1,116,1,
1,0,0,0,1,117,1,
1,0,1,0,0,118,1,
1,0,1,0,0,119,1,
1,0,1,0,0,120,1,
1,0,1,1,1,121,1,
1,0,1,0,0,122,1,
1,0,0,0,1,123,1,
1,0,0,0,1,124,1,
1,0,1,0,0,125,1,
1,0,0,0,1,126,1,
1,0,1,1,1,127,1,
1,0,1,0,0,128,1,
1,0,1,1,1,129,1,
1,0,0,1,0,130,1,
1,0,0,0,1,131,1,
1,0,1,1,1,132,1,
1,0,1,0,0,133,1,
1,0,1,1,1,134,1,
1,0,1,0,0,135,1,
1,0,0,1,0,136,1,
1,0,1,1,1,137,1,
1,0,1,0,0,138,1,
1,0,0,1,0,139,1,
1,0,1,0,0,140,1,
1,0,0,0,1,141,1,
1,0,1,1,1,142,1,
1,0,1,1,1,143,1,
1,0,1,0,0,144,1,
1,0,1,1,1,145,1,
1,0,1,0,0,146,1,
1,0,0,1,0,147,1,
1,0,0,1,0,148,1,
1,0,0,0,1,149,1,
1,0,1,0,0,150,1,
1,0,1,0,0,151,1,
1,0,0,0,1,152,1,
1,0,1,0,0,153,1,
1,0,0,1,0,154,1,
1,0,0,1,0,155,1,
1,0,1,1,1,156,1,
1,0,1,0,0,157,1,
1,0,0,0,1,158,1,
1,0,0,1,0,159,1,
1,0,0,0,1,160,1,
1,0,0,0,1,161,1,
1,0,0,1,0,162,1,
1,0,0,1,0,163,1,
1,0,1,1,1,164,1,
1,0,1,1,1,165,1,
1,0,1,0,0,166,1,
1,0,1,0,0,167,1,
1,0,0,1,0,168,1,
1,0,1,1,1,169,1,
1,0,0,0,1,170,1,
1,0,1,1,1,171,1,
1,0,1,0,0,172,1,
1,0,0,1,0,173,1,
1,0,0,1,0,174,1,
1,0,1,1,1,175,1,
1,0,1,1,1,176,1,
1,0,0,0,1,177,1,
1,0,0,1,0,178,1,
1,0,0,1,0,179,1,
1,0,1,1,1,180,1,
1,0,0,1,0,181,1,
1,0,0,0,1,182,1,
1,0,1,1,1,183,1,
1,0,1,1,1,184,1,
1,0,0,0,1,185,1,
1,0,1,1,1,186,1,
1,0,1,1,1,187,1,
1,0,1,0,0,188,1,
1,0,0,0,1,189,1,
1,0,1,1,1,190,1,
1,0,0,0,1,191,1,
1,0,0,0,1,192,1,
1,0,0,0,1,193,1,
1,0,1,0,0,194,1,
1,0,0,0,1,195,1,
1,0,0,1,0,196,1,
1,0,0,0,1,197,1,
1,0,1,1,1,198,1,
1,0,1,1,1,199,1,
1,0,0,1,0,200,1,
1,0,1,1,1,201,1,
1,0,1,0,0,202,1,
1,0,0,1,0,203,1,
1,0,1,1,1,204,1,
1,0,0,1,0,205,1,
1,0,0,1,0,206,1,
1,0,1,1,1,207,1,
1,0,0,1,0,208,1,
1,0,0,1,0,209,1,
1,0,1,1,1,210,1,
1,0,1,0,0,211,1,
1,0,0,1,0,212,1,
1,0,0,1,0,213,1,
1,0,1,1,1,214,1,
1,0,0,1,0,215,1,
1,0,1,1,1,216,1,
1,0,0,0,1,217,1,
1,0,0,1,0,218,1,
1,0,0,1,0,219,1,
1,0,1,0,0,220,1,
1,0,0,1,0,221,1,
1,0,0,1,0,222,1,
1,0,1,1,1,223,1,
1,0,0,1,0,224,1,
1,0,0,1,0,225,1,
1,0,0,1,0,226,1,
1,0,1,1,1,227,1,
1,0,0,0,1,228,1,
1,0,0,0,1,229,1,
1,0,0,0,1,230,1,
1,0,0,0,1,231,1,
1,0,1,0,0,232,1,
1,0,1,0,0,233,1,
1,0,0,0,1,234,1,
1,0,0,1,0,235,1,
1,0,1,1,1,236,1,
1,0,1,1,1,237,1,
1,0,1,0,0,238,1,
1,0,1,0,0,239,1,
1,0,0,0,1,240,1,
1,0,0,1,0,241,1,
1,0,1,0,0,242,1,
1,0,1,1,1,243,1,
1,0,1,1,1,244,1,
1,0,0,0,1,245,1,
1,0,0,1,0,246,1,
1,0,1,0,0,247,1,
1,0,1,1,1,248,1,
1,0,1,0,0,249,1,
1,0,1,1,1,250,1,
1,0,1,1,1,251,1,
1,0,1,0,0,252,1,
1,0,0,1,0,253,1,
1,0,1,1,1,254,1,
1,0,0,0,1,255,1,
1,0,0,0,1,256,1,
1,0,1,1,1,257,1,
1,0,0,1,0,258,1,
1,0,0,0,1,259,1,
1,0,1,1,1,260,1,
1,0,1,1,1,261,1,
1,0,0,0,1,262,1,
1,0,1,1,1,263,1,
1,0,0,0,1,264,1,
1,0,1,1,1,265,1,
1,0,1,1,1,266,1,
1,0,1,1,1,267,1,
1,0,0,0,1,268,1,
1,0,0,1,0,269,1,
1,0,1,0,0,270,1,
1,0,1,1,1,271,1,
1,0,1,1,1,272,1,
1,0,1,1,1,273,1,
1,0,0,1,0,274,1,
1,0,1,1,1,275,1,
1,0,1,0,0,276,1,
1,0,0,1,0,277,1,
1,0,1,1,1,278,1,
1,0,0,1,0,279,1,
1,0,1,1,1,280,1,
1,0,0,0,1,281,1,
1,0,1,0,0,282,1,
1,0,1,1,1,283,1,
1,0,1,1,1,284,1,
1,0,1,1,1,285,1,
1,0,1,1,1,286,1,
1,0,0,0,1,287,1,
1,0,1,1,1,288,1,
1,0,1,0,0,289,1,
1,0,0,1,0,290,1,
1,0,1,1,1,291,1,
1,0,0,1,0,292,1,
1,0,0,1,0,293,1,
1,0,0,0,1,294,1,
1,0,0,0,1,295,1,
1,0,1,1,1,296,1,
1,0,0,0,1,297,1,
1,0,0,1,0,298,1,
1,0,1,1,1,299,1,
1,0,0,1,0,300,1,
1,0,0,1,0,301,1,
1,0,0,1,0,302,1,
1,0,0,0,1,303,1,
1,0,0,0,1,304,1,
1,0,1,1,1,305,1,
1,0,1,1,1,306,1,
1,0,0,1,0,307,1,
1,0,0,0,1,308,1,
1,0,1,1,1,309,1,
1,0,0,0,1,310,1,
1,0,1,0,0,311,1,
1,0,1,1,1,312,1,
1,0,1,1,1,313,1,
1,0,0,0,1,314,1,
1,0,1,1,1,315,1,
1,0,0,0,1,316,1,
1,0,1,1,1,317,1,
1,0,0,1,0,318,1,
1,0,1,1,1,319,1,
1,0,0,0,1,320,1,
1,0,0,1,0,321,1,
1,0,1,0,0,322,1,
1,0,0,0,1,323,1,
1,0,0,1,0,324,1,
1,0,0,0,1,325,1,
1,0,0,0,1,326,1,
1,0,1,1,1,327,1,
1,0,0,1,0,328,1,
1,0,0,0,1,329,1,
1,0,1,0,0,330,1,
1,0,0,0,1,331,1,
1,0,0,1,0,332,1,
1,0,0,1,0,333,1,
1,0,0,1,0,334,1,
1,0,0,1,0,335,1,
1,0,0,0,1,336,1,
1,0,0,0,1,337,1,
1,0,1,0,0,338,1,
1,0,1,1,1,339,1,
1,0,0,0,1,340,1,
1,0,1,1,1,341,1,
1,0,0,1,0,342,1,
1,0,0,0,1,343,1,
1,0,0,1,0,344,1,
1,0,1,0,0,345,1,
1,0,0,1,0,346,1,
1,0,0,0,1,347,1,
1,0,0,1,0,348,1,
1,0,1,1,1,349,1,
1,0,0,1,0,350,1,
1,0,0,0,1,351,1,
1,0,0,0,1,352,1,
1,0,1,1,1,353,1,
1,0,1,0,0,354,1,
1,0,1,1,1,355,1,
1,0,1,1,1,356,1,
1,0,0,0,1,357,1,
1,0,0,0,1,358,1,
1,0,1,1,1,359,1,
1,0,1,0,0,360,1,
1,0,0,1,0,361,1,
1,0,1,1,1,362,1,
1,0,1,1,1,363,1,
1,0,0,1,0,364,1,
1,0,0,1,0,365,1,
1,0,1,1,1,366,1,
1,0,1,1,1,367,1,
1,0,0,0,1,368,1,
1,0,0,1,0,369,1,
1,0,1,0,0,370,1,
1,0,1,0,0,371,1,
1,0,0,1,0,372,1,
1,0,1,1,1,373,1,
1,0,1,1,1,374,1,
1,0,1,1,1,375,1,
1,0,0,1,0,376,1,
1,0,0,0,1,377,1,
1,0,1,1,1,378,1,
1,0,0,1,0,379,1,
1,0,1,0,0,380,1,
1,0,1,1,1,381,1,
1,0,1,1,1,382,1,
1,0,1,1,1,383,1,
1,0,1,1,1,384,1,
1,0,1,1,1,385,1,
1,0,1,1,1,386,1,
1,0,0,0,1,387,1,
1,0,1,1,1,388,1,
1,0,0,1,0,389,1,
1,0,1,0,0,390,1,
1,0,1,0,0,391,1,
1,0,0,1,0,392,1,
1,0,0,0,1,393,1,
1,0,0,1,0,394,1,
1,0,1,0,0,395,1,
1,0,0,1,0,396,1,
1,0,1,1,1,397,1,
1,0,0,0,1,398,1,
1,0,1,1,1,399,1,
1,0,1,0,0,400,1,
1,0,0,1,0,401,1,
1,0,0,1,0,402,1,
1,0,0,0,1,403,1,
1,0,1,0,0,404,1,
1,0,0,1,0,405,1,
1,0,0,0,1,406,1,
1,0,1,1,1,407,1,
1,0,1,0,0,408,1,
1,0,0,1,0,409,1,
1,0,1,0,0,410,1,
1,0,1,0,0,411,1,
1,0,1,1,1,412,1,
1,0,0,1,0,413,1,
1,0,1,0,0,414,1,
1,0,0,1,0,415,1,
1,0,1,1,1,416,1,
1,0,1,1,1,417,1,
1,0,0,1,0,418,1,
1,0,0,0,1,419,1,
1,0,1,1,1,420,1,
1,0,1,0,0,421,1,
1,0,0,1,0,422,1,
1,0,0,1,0,423,1,
1,0,1,0,0,424,1,
1,0,0,1,0,425,1,
1,0,0,1,0,426,1,
1,0,1,1,1,427,1,
1,0,1,1,1,428,1,
1,0,0,1,0,429,1,
1,0,1,1,1,430,1,
1,0,1,1,1,431,1,
1,0,0,0,1,432,1,
1,0,1,1,1,433,1,
1,0,1,1,1,434,1,
1,0,1,0,0,435,1,
1,0,1,1,1,436,1,
1,0,1,1,1,437,1,
1,0,0,0,1,438,1,
1,0,0,1,0,439,1,
1,0,1,1,1,440,1,
1,0,0,1,0,441,1,
1,0,1,1,1,442,1,
1,0,1,1,1,443,1,
1,0,1,1,1,444,1,
1,0,0,0,1,445,1,
1,0,1,1,1,446,1,
1,0,0,1,0,447,1,
1,0,1,0,0,448,1,
1,0,1,1,1,449,1,
1,0,0,1,0,450,1,
1,0,0,1,0,451,1,
1,0,0,0,1,452,1,
1,0,0,1,0,453,1,
1,0,0,0,1,454,1,
1,0,0,1,0,455,1,
1,0,0,1,0,456,1,
1,0,1,0,0,457,1,
1,0,0,1,0,458,1,
1,0,1,1,1,459,1,
1,0,1,0,0,460,1,
1,0,1,0,0,461,1,
1,0,1,1,1,462,1,
1,0,1,0,0,463,1,
1,0,1,1,1,464,1,
1,0,0,1,0,465,1,
1,0,0,0,1,466,1,
1,0,0,0,1,467,1,
1,0,0,1,0,468,1,
1,0,0,1,0,469,1,
1,0,0,1,0,470,1,
1,0,0,1,0,471,1,
1,0,1,1,1,472,1,
1,0,1,1,1,473,1,
1,0,0,1,0,474,1,
1,0,1,0,0,475,1,
1,0,1,1,1,476,1,
1,0,1,1,1,477,1,
1,0,0,0,1,478,1,
1,0,0,1,0,479,1,
1,0,1,1,1,480,1,
1,0,0,1,0,481,1,
1,0,0,0,1,482,1,
1,0,1,0,0,483,1,
1,0,0,1,0,484,1,
1,0,1,1,1,485,1,
1,0,1,1,1,486,1,
1,0,1,1,1,487,1,
1,0,0,0,1,488,1,
1,0,1,1,1,489,1,
1,0,0,1,0,490,1,
1,0,1,1,1,491,1,
1,0,0,0,1,492,1,
1,0,1,1,1,493,1,
1,0,1,1,1,494,1,
1,0,1,0,0,495,1,
1,0,1,1,1,496,1,
1,0,1,1,1,497,1,
1,0,1,1,1,498,1,
1,0,1,1,1,499,1,
1,0,1,0,0,500,1,
1,0,1,1,1,501,1,
1,0,1,1,1,502,1,
1,0,1,1,1,503,1,
1,0,0,0,1,504,1,
1,0,0,1,0,505,1,
1,0,0,1,0,506,1,
1,0,0,0,1,507,1,
1,0,0,1,0,508,1,
1,0,0,1,0,509,1,
1,0,0,0,1,510,1,
1,0,1,1,1,511,1,
1,0,0,1,0,512,1,
1,0,1,1,1,513,1,
1,0,0,1,0,514,1,
1,0,1,1,1,515,1,
1,0,1,0,0,516,1,
1,0,1,1,1,517,1,
1,0,1,1,1,518,1,
1,0,0,1,0,519,1,
1,0,0,1,0,520,1,
1,0,1,1,1,521,1,
1,0,1,1,1,522,1,
1,0,1,0,0,523,1,
1,0,0,1,0,524,1,
1,0,1,1,1,525,1,
1,0,1,1,1,526,1,
1,0,0,0,1,527,1,
1,0,1,1,1,528,1,
1,0,1,1,1,529,1,
1,0,0,1,0,530,1,
1,0,0,0,1,531,1,
1,0,1,1,1,532,1,
1,0,1,1,1,533,1,
1,0,0,1,0,534,1,
1,0,0,0,1,535,1,
1,0,0,1,0,536,1,
1,0,0,1,0,537,1,
1,0,0,1,0,538,1,
1,0,1,0,0,539,1,
1,0,0,1,0,540,1,
1,0,0,1,0,541,1,
1,0,0,1,0,542,1,
1,0,1,1,1,543,1,
1,0,1,1,1,544,1,
1,0,1,0,0,545,1,
1,0,1,1,1,546,1,
1,0,1,1,1,547,1,
1,0,0,1,0,548,1,
1,0,0,0,1,549,1,
1,0,0,0,1,550,1,
1,0,1,1,1,551,1,
1,0,1,1,1,552,1,
1,0,0,0,1,553,1,
1,0,1,0,0,554,1,
1,0,1,1,1,555,1,
1,0,0,1,0,556,1,
1,0,0,1,0,557,1,
1,0,1,1,1,558,1,
1,0,0,0,1,559,1,
1,0,1,1,1,560,1,
1,0,0,1,0,561,1,
1,0,1,1,1,562,1,
1,0,1,0,0,563,1,
1,0,0,1,0,564,1,
1,0,0,1,0,565,1,
1,0,0,0,1,566,1,
1,0,0,1,0,567,1,
1,0,1,0,0,568,1,
1,0,1,1,1,569,1,
1,0,0,1,0,570,1,
1,0,0,0,1,571,1,
1,0,0,1,0,572,1,
1,0,0,0,1,573,1,
1,0,1,0,0,574,1,
1,0,1,0,0,575,1,
1,0,0,0,1,576,1,
1,0,1,1,1,577,1,
1,0,1,1,1,578,1,
1,0,1,0,0,579,1,
1,0,1,0,0,580,1,
1,0,0,1,0,581,1,
1,0,0,1,0,582,1,
1,0,0,1,0,583,1,
1,0,0,0,1,584,1,
1,0,0,1,0,585,1,
1,0,0,0,1,586,1,
1,0,0,1,0,587,1,
1,0,1,0,0,588,1,
1,0,0,1,0,589,1,
1,0,1,1,1,590,1,
1,0,1,1,1,591,1,
1,0,1,0,0,592,1,
1,0,1,0,0,593,1,
1,0,0,1,0,594,1,
1,0,0,0,1,595,1,
1,0,1,0,0,596,1,
1,0,1,0,0,597,1,
1,0,1,1,1,598,1,
1,0,0,1,0,599,1,
1,0,0,0,1,600,1,
1,0,0,1,0,601,1,
1,0,1,1,1,602,1,
1,0,0,0,1,603,1,
1,0,1,0,0,604,1,
1,0,1,1,1,605,1,
1,0,1,1,1,606,1,
1,0,1,1,1,607,1,
1,0,0,1,0,608,1,
1,0,1,0,0,609,1,
1,0,1,1,1,610,1,
1,0,1,0,0,611,1,
1,0,0,1,0,612,1,
1,0,0,1,0,613,1,
1,0,0,0,1,614,1,
1,0,0,1,0,615,1,
1,0,1,0,0,616,1,
1,0,0,1,0,617,1,
1,0,0,0,1,618,1,
1,0,1,0,0,619,1,
1,0,1,0,0,620,1,
1,0,0,0,1,621,1,
1,0,1,1,1,622,1,
1,0,1,1,1,623,1,
1,0,1,1,1,624,1,
1,0,0,0,1,625,1,
1,0,0,1,0,626,1,
1,0,1,0,0,627,1,
1,0,0,0,1,628,1,
1,0,0,1,0,629,1,
1,0,1,0,0,630,1,
1,0,0,1,0,631,1,
1,0,0,0,1,632,1,
1,0,0,0,1,633,1,
1,0,0,1,0,634,1,
1,0,1,1,1,635,1,
1,0,1,0,0,636,1,
1,0,1,1,1,637,1,
1,0,0,0,1,638,1,
1,0,1,1,1,639,1,
1,0,1,0,0,640,1,
1,0,0,0,1,641,1,
1,0,1,1,1,642,1,
1,0,1,1,1,643,1,
1,0,0,0,1,644,1,
1,0,0,0,1,645,1,
1,0,1,1,1,646,1,
1,0,0,0,1,647,1,
1,0,1,1,1,648,1,
1,0,0,0,1,649,1,
1,0,0,0,1,650,1,
1,0,0,0,1,651,1,
1,0,1,1,1,652,1,
1,0,1,1,1,653,1,
1,0,0,1,0,654,1,
1,0,0,0,1,655,1,
1,0,1,0,0,656,1,
1,0,0,1,0,657,1,
1,0,0,0,1,658,1,
1,0,0,1,0,659,1,
1,0,1,1,1,660,1,
1,0,0,1,0,661,1,
1,0,1,0,0,662,1,
1,0,1,1,1,663,1,
1,0,1,1,1,664,1,
1,0,0,0,1,665,1,
1,0,0,0,1,666,1,
1,0,1,1,1,667,1,
1,0,0,0,1,668,1,
1,0,1,1,1,669,1,
1,0,1,1,1,670,1,
1,0,0,1,0,671,1,
1,0,1,1,1,672,1,
1,0,0,0,1,673,1,
1,0,0,1,0,674,1,
1,0,0,1,0,675,1,
1,0,1,0,0,676,1,
1,0,0,0,1,677,1,
1,0,1,1,1,678,1,
1,0,1,0,0,679,1,
1,0,0,1,0,680,1,
1,0,1,0,0,681,1,
1,0,1,0,0,682,1,
1,0,1,1,1,683,1,
1,0,1,1,1,684,1,
1,0,0,0,1,685,1,
1,0,1,1,1,686,1,
1,0,1,0,0,687,1,
1,0,1,1,1,688,1,
1,0,0,0,1,689,1,
1,0,1,1,1,690,1,
1,0,0,0,1,691,1,
1,0,1,1,1,692,1,
1,0,0,1,0,693,1,
1,0,1,0,0,694,1,
1,0,1,1,1,695,1,
1,0,1,1,1,696,1,
1,0,1,1,1,697,1,
1,0,1,0,0,698,1,
1,0,1,1,1,699,1,
1,0,0,1,0,700,1,
1,0,0,0,1,701,1,
1,0,0,1,0,702,1,
1,0,1,0,0,703,1,
1,0,1,0,0,704,1,
1,0,0,1,0,705,1,
1,0,1,1,1,706,1,
1,0,0,1,0,707,1,
1,0,1,1,1,708,1,
1,0,1,0,0,709,1,
1,0,1,1,1,710,1,
1,0,1,1,1,711,1,
1,0,0,0,1,712,1,
1,0,1,0,0,713,1,
1,0,0,0,1,714,1,
1,0,0,0,1,715,1,
1,0,0,1,0,716,1,
1,0,0,1,0,717,1,
1,0,0,1,0,718,1,
1,0,0,0,1,719,1,
1,0,1,1,1,720,1,
1,0,0,1,0,721,1,
1,0,1,1,1,722,1,
1,0,0,0,1,723,1,
1,0,1,0,0,724,1,
1,0,0,0,1,725,1,
1,0,0,1,0,726,1,
1,0,0,1,0,727,1,
1,0,0,0,1,728,1,
1,0,0,0,1,729,1,
1,0,1,1,1,730,1,
1,0,1,1,1,731,1,
1,0,1,0,0,732,1,
1,0,1,0,0,733,1,
1,0,1,1,1,734,1,
1,0,0,0,1,735,1,
1,0,1,1,1,736,1,
1,0,0,1,0,737,1,
1,0,1,0,0,738,1,
1,0,1,1,1,739,1,
1,0,0,1,0,740,1,
1,0,0,1,0,741,1,
1,0,0,1,0,742,1,
1,0,0,1,0,743,1,
1,0,1,1,1,744,1,
1,0,0,0,1,745,1,
1,0,0,1,0,746,1,
1,0,0,0,1,747,1,
1,0,0,0,1,748,1,
1,0,0,1,0,749,1,
1,0,1,1,1,750,1,
1,0,1,1,1,751,1,
1,0,0,1,0,752,1,
1,0,0,0,1,753,1,
1,0,1,1,1,754,1,
1,0,1,1,1,755,1,
1,0,0,1,0,756,1,
1,0,1,1,1,757,1,
1,0,0,0,1,758,1,
1,0,1,0,0,759,1,
1,0,0,0,1,760,1,
1,0,1,1,1,761,1,
1,0,0,0,1,762,1,
1,0,1,1,1,763,1,
1,0,0,1,0,764,1,
1,0,0,0,1,765,1,
1,0,0,1,0,766,1,
1,0,1,0,0,767,1,
1,0,1,0,0,768,1,
1,0,1,1,1,769,1,
1,0,1,1,1,770,1,
1,0,0,1,0,771,1,
1,0,1,1,1,772,1,
1,0,1,1,1,773,1,
1,0,0,0,1,774,1,
1,0,0,1,0,775,1,
1,0,1,0,0,776,1,
1,0,0,1,0,777,1,
1,0,0,1,0,778,1,
1,0,1,1,1,779,1,
1,0,1,1,1,780,1,
1,0,1,1,1,781,1,
1,0,0,0,1,782,1,
1,0,0,0,1,783,1,
1,0,0,0,1,784,1,
1,0,1,1,1,785,1,
1,0,1,0,0,786,1,
1,0,1,1,1,787,1,
1,0,0,0,1,788,1,
1,0,0,0,1,789,1,
1,0,0,0,1,790,1,
1,0,0,0,1,791,1,
1,0,1,1,1,792,1,
1,0,0,0,1,793,1,
1,0,1,1,1,794,1,
1,0,0,0,1,795,1,
1,0,0,1,0,796,1,
1,0,0,0,1,797,1,
1,0,1,1,1,798,1,
1,0,0,1,0,799,1,
1,0,1,1,1,800,1,
1,0,0,0,1,801,1,
1,0,1,1,1,802,1,
1,0,1,0,0,803,1,
1,0,1,1,1,804,1,
1,0,0,1,0,805,1,
1,0,1,0,0,806,1,
1,0,0,1,0,807,1,
1,0,1,1,1,808,1,
1,0,1,0,0,809,1,
1,0,1,1,1,810,1,
1,0,0,1,0,811,1,
1,0,0,0,1,812,1,
1,0,0,0,1,813,1,
1,0,0,1,0,814,1,
1,0,0,1,0,815,1,
1,0,0,1,0,816,1,
1,0,0,1,0,817,1,
1,0,1,0,0,818,1,
1,0,1,1,1,819,1,
1,0,1,0,0,820,1,
1,0,0,1,0,821,1,
1,0,0,1,0,822,1,
1,0,1,1,1,823,1,
1,0,1,0,0,824,1,
1,0,0,0,1,825,1,
1,0,0,0,1,826,1,
1,0,1,1,1,827,1,
1,0,1,0,0,828,1,
1,0,0,0,1,829,1,
1,0,0,1,0,830,1,
1,0,0,0,1,831,1,
1,0,0,0,1,832,1,
1,0,1,0,0,833,1,
1,0,0,1,0,834,1,
1,0,1,1,1,835,1,
1,0,1,0,0,836,1,
1,0,0,1,0,837,1,
1,0,0,1,0,838,1,
1,0,1,0,0,839,1,
1,0,0,0,1,840,1,
1,0,1,1,1,841,1,
1,0,0,1,0,842,1,
1,0,1,1,1,843,1,
1,0,0,0,1,844,1,
1,0,1,1,1,845,1,
1,0,0,0,1,846,1,
1,0,1,1,1,847,1,
1,0,1,1,1,848,1,
1,0,1,0,0,849,1,
1,0,1,0,0,850,1,
1,0,1,1,1,851,1,
1,0,1,0,0,852,1,
1,0,0,0,1,853,1,
1,0,1,1,1,854,1,
1,0,1,1,1,855,1,
1,0,0,0,1,856,1,
1,0,1,0,0,857,1,
1,0,0,0,1,858,1,
1,0,0,0,1,859,1,
1,0,1,1,1,860,1,
1,0,0,0,1,861,1,
1,0,1,0,0,862,1,
1,0,0,1,0,863,1,
1,0,0,0,1,864,1,
1,0,0,1,0,865,1,
1,0,1,0,0,866,1,
1,0,0,1,0,867,1,
1,0,1,1,1,868,1,
1,0,0,0,1,869,1,
1,0,1,1,1,870,1,
1,0,1,0,0,871,1,
1,0,0,0,1,872,1,
1,0,1,1,1,873,1,
1,0,0,0,1,874,1,
1,0,1,0,0,875,1,
1,0,1,1,1,876,1,
1,0,0,1,0,877,1,
1,0,1,1,1,878,1,
1,0,0,0,1,879,1,
1,0,0,0,1,880,1,
1,0,1,0,0,881,1,
1,0,0,1,0,882,1,
1,0,1,0,0,883,1,
1,0,1,0,0,884,1,
1,0,1,0,0,885,1,
1,0,1,1,1,886,1,
1,0,1,0,0,887,1,
1,0,1,1,1,888,1,
1,0,1,1,1,889,1,
1,0,1,1,1,890,1,
1,0,0,0,1,891,1,
1,0,1,1,1,892,1,
1,0,0,1,0,893,1,
1,0,0,1,0,894,1,
1,0,0,0,1,895,1,
1,0,0,1,0,896,1,
1,0,0,0,1,897,1,
1,0,1,1,1,898,1,
1,0,0,0,1,899,1,
1,0,0,0,1,900,1,
1,0.333333333,0,0,1,901,2,
1,0.333333333,0,0,1,902,2,
1,0.333333333,1,0,0,903,2,
1,0.333333333,1,0,0,904,2,
1,0.333333333,1,0,0,905,2,
1,0.333333333,1,0,0,906,2,
1,0.333333333,1,0,0,907,2,
1,0.333333333,1,0,0,908,2,
1,0.333333333,0,0,1,909,2,
1,0.333333333,0,1,0,910,2,
1,0.333333333,1,0,0,911,2,
1,0.333333333,1,1,1,912,2,
1,0.333333333,1,1,1,913,2,
1,0.333333333,1,0,0,914,2,
1,0.333333333,1,1,1,915,2,
1,0.333333333,0,1,0,916,2,
1,0.333333333,1,0,0,917,2,
1,0.333333333,1,1,1,918,2,
1,0.333333333,1,1,1,919,2,
1,0.333333333,1,1,1,920,2,
1,0.333333333,0,0,1,921,2,
1,0.333333333,1,1,1,922,2,
1,0.333333333,0,0,1,923,2,
1,0.333333333,1,0,0,924,2,
1,0.333333333,1,1,1,925,2,
1,0.333333333,0,0,1,926,2,
1,0.333333333,0,0,1,927,2,
1,0.333333333,0,1,0,928,2,
1,0.333333333,1,1,1,929,2,
1,0.333333333,1,1,1,930,2,
1,0.333333333,1,0,0,931,2,
1,0.333333333,0,1,0,932,2,
1,0.333333333,1,1,1,933,2,
1,0.333333333,1,0,0,934,2,
1,0.333333333,0,1,0,935,2,
1,0.333333333,0,0,1,936,2,
1,0.333333333,1,0,0,937,2,
1,0.333333333,0,1,0,938,2,
1,0.333333333,1,0,0,939,2,
1,0.333333333,0,1,0,940,2,
1,0.333333333,0,0,1,941,2,
1,0.333333333,0,0,1,942,2,
1,0.333333333,1,0,0,943,2,
1,0.333333333,0,1,0,944,2,
1,0.333333333,1,0,0,945,2,
1,0.333333333,0,1,0,946,2,
1,0.333333333,0,0,1,947,2,
1,0.333333333,0,0,1,948,2,
1,0.333333333,1,0,0,949,2,
1,0.333333333,0,1,0,950,2,
1,0.333333333,0,0,1,951,2,
1,0.333333333,1,1,1,952,2,
1,0.333333333,1,1,1,953,2,
1,0.333333333,0,1,0,954,2,
1,0.333333333,1,1,1,955,2,
1,0.333333333,0,0,1,956,2,
1,0.333333333,0,0,1,957,2,
1,0.333333333,0,0,1,958,2,
1,0.333333333,0,1,0,959,2,
1,0.333333333,0,0,1,960,2,
1,0.333333333,1,1,1,961,2,
1,0.333333333,0,0,1,962,2,
1,0.333333333,0,0,1,963,2,
1,0.333333333,0,1,0,964,2,
1,0.333333333,0,0,1,965,2,
1,0.333333333,1,1,1,966,2,
1,0.333333333,0,1,0,967,2,
1,0.333333333,0,0,1,968,2,
1,0.333333333,0,0,1,969,2,
1,0.333333333,1,1,1,970,2,
1,0.333333333,0,1,0,971,2,
1,0.333333333,1,1,1,972,2,
1,0.333333333,0,1,0,973,2,
1,0.333333333,1,1,1,974,2,
1,0.333333333,0,0,1,975,2,
1,0.333333333,1,0,0,976,2,
1,0.333333333,0,1,0,977,2,
1,0.333333333,1,0,0,978,2,
1,0.333333333,0,1,0,979,2,
1,0.333333333,0,1,0,980,2,
1,0.333333333,0,1,0,981,2,
1,0.333333333,1,0,0,982,2,
1,0.333333333,0,0,1,983,2,
1,0.333333333,0,0,1,984,2,
1,0.333333333,1,0,0,985,2,
1,0.333333333,0,0,1,986,2,
1,0.333333333,0,0,1,987,2,
1,0.333333333,0,0,1,988,2,
1,0.333333333,1,0,0,989,2,
1,0.333333333,1,1,1,990,2,
1,0.333333333,1,1,1,991,2,
1,0.333333333,0,1,0,992,2,
1,0.333333333,0,0,1,993,2,
1,0.333333333,0,1,0,994,2,
1,0.333333333,1,1,1,995,2,
1,0.333333333,0,0,1,996,2,
1,0.333333333,1,0,0,997,2,
1,0.333333333,1,1,1,998,2,
1,0.333333333,0,0,1,999,2,
1,0.333333333,1,0,0,1000,2,
1,0.333333333,1,0,0,1001,2,
1,0.333333333,1,1,1,1002,2,
1,0.333333333,0,0,1,1003,2,
1,0.333333333,1,1,1,1004,2,
1,0.333333333,0,0,1,1005,2,
1,0.333333333,1,0,0,1006,2,
1,0.333333333,0,0,1,1007,2,
1,0.333333333,1,0,0,1008,2,
1,0.333333333,1,1,1,1009,2,
1,0.333333333,1,0,0,1010,2,
1,0.333333333,0,0,1,1011,2,
1,0.333333333,1,1,1,1012,2,
1,0.333333333,0,1,0,1013,2,
1,0.333333333,0,1,0,1014,2,
1,0.333333333,1,0,0,1015,2,
1,0.333333333,0,0,1,1016,2,
1,0.333333333,0,1,0,1017,2,
1,0.333333333,1,1,1,1018,2,
1,0.333333333,1,1,1,1019,2,
1,0.333333333,0,0,1,1020,2,
1,0.333333333,1,0,0,1021,2,
1,0.333333333,1,1,1,1022,2,
1,0.333333333,1,1,1,1023,2,
1,0.333333333,1,0,0,1024,2,
1,0.333333333,0,0,1,1025,2,
1,0.333333333,0,1,0,1026,2,
1,0.333333333,1,0,0,1027,2,
1,0.333333333,1,0,0,1028,2,
1,0.333333333,0,1,0,1029,2,
1,0.333333333,1,0,0,1030,2,
1,0.333333333,0,0,1,1031,2,
1,0.333333333,1,1,1,1032,2,
1,0.333333333,1,1,1,1033,2,
1,0.333333333,0,0,1,1034,2,
1,0.333333333,0,0,1,1035,2,
1,0.333333333,0,1,0,1036,2,
1,0.333333333,1,0,0,1037,2,
1,0.333333333,0,0,1,1038,2,
1,0.333333333,0,1,0,1039,2,
1,0.333333333,1,0,0,1040,2,
1,0.333333333,1,1,1,1041,2,
1,0.333333333,1,1,1,1042,2,
1,0.333333333,0,1,0,1043,2,
1,0.333333333,0,1,0,1044,2,
1,0.333333333,0,1,0,1045,2,
1,0.333333333,1,0,0,1046,2,
1,0.333333333,1,1,1,1047,2,
1,0.333333333,0,0,1,1048,2,
1,0.333333333,1,0,0,1049,2,
1,0.333333333,1,1,1,1050,2,
1,0.333333333,0,1,0,1051,2,
1,0.333333333,0,0,1,1052,2,
1,0.333333333,0,0,1,1053,2,
1,0.333333333,1,0,0,1054,2,
1,0.333333333,0,1,0,1055,2,
1,0.333333333,1,0,0,1056,2,
1,0.333333333,1,0,0,1057,2,
1,0.333333333,0,0,1,1058,2,
1,0.333333333,0,0,1,1059,2,
1,0.333333333,0,1,0,1060,2,
1,0.333333333,1,1,1,1061,2,
1,0.333333333,0,0,1,1062,2,
1,0.333333333,0,1,0,1063,2,
1,0.333333333,0,0,1,1064,2,
1,0.333333333,0,0,1,1065,2,
1,0.333333333,1,1,1,1066,2,
1,0.333333333,0,1,0,1067,2,
1,0.333333333,1,1,1,1068,2,
1,0.333333333,0,0,1,1069,2,
1,0.333333333,0,0,1,1070,2,
1,0.333333333,1,1,1,1071,2,
1,0.333333333,0,0,1,1072,2,
1,0.333333333,1,1,1,1073,2,
1,0.333333333,1,1,1,1074,2,
1,0.333333333,1,1,1,1075,2,
1,0.333333333,0,0,1,1076,2,
1,0.333333333,0,0,1,1077,2,
1,0.333333333,1,0,0,1078,2,
1,0.333333333,1,1,1,1079,2,
1,0.333333333,0,1,0,1080,2,
1,0.333333333,0,1,0,1081,2,
1,0.333333333,1,1,1,1082,2,
1,0.333333333,0,0,1,1083,2,
1,0.333333333,1,1,1,1084,2,
1,0.333333333,1,1,1,1085,2,
1,0.333333333,0,1,0,1086,2,
1,0.333333333,1,1,1,1087,2,
1,0.333333333,0,1,0,1088,2,
1,0.333333333,1,1,1,1089,2,
1,0.333333333,1,1,1,1090,2,
1,0.333333333,0,1,0,1091,2,
1,0.333333333,0,0,1,1092,2,
1,0.333333333,0,1,0,1093,2,
1,0.333333333,1,1,1,1094,2,
1,0.333333333,1,0,0,1095,2,
1,0.333333333,0,0,1,1096,2,
1,0.333333333,1,1,1,1097,2,
1,0.333333333,1,1,1,1098,2,
1,0.333333333,1,1,1,1099,2,
1,0.333333333,1,0,0,1100,2,
1,0.333333333,1,1,1,1101,2,
1,0.333333333,1,0,0,1102,2,
1,0.333333333,1,1,1,1103,2,
1,0.333333333,1,1,1,1104,2,
1,0.333333333,1,1,1,1105,2,
1,0.333333333,0,0,1,1106,2,
1,0.333333333,1,1,1,1107,2,
1,0.333333333,1,1,1,1108,2,
1,0.333333333,1,0,0,1109,2,
1,0.333333333,1,1,1,1110,2,
1,0.333333333,1,0,0,1111,2,
1,0.333333333,1,0,0,1112,2,
1,0.333333333,0,1,0,1113,2,
1,0.333333333,0,0,1,1114,2,
1,0.333333333,1,1,1,1115,2,
1,0.333333333,0,0,1,1116,2,
1,0.333333333,0,1,0,1117,2,
1,0.333333333,0,0,1,1118,2,
1,0.333333333,0,1,0,1119,2,
1,0.333333333,1,1,1,1120,2,
1,0.333333333,1,0,0,1121,2,
1,0.333333333,1,1,1,1122,2,
1,0.333333333,1,1,1,1123,2,
1,0.333333333,1,1,1,1124,2,
1,0.333333333,0,0,1,1125,2,
1,0.333333333,1,0,0,1126,2,
1,0.333333333,0,1,0,1127,2,
1,0.333333333,0,0,1,1128,2,
1,0.333333333,1,0,0,1129,2,
1,0.333333333,0,1,0,1130,2,
1,0.333333333,1,1,1,1131,2,
1,0.333333333,0,1,0,1132,2,
1,0.333333333,1,1,1,1133,2,
1,0.333333333,0,1,0,1134,2,
1,0.333333333,1,0,0,1135,2,
1,0.333333333,0,0,1,1136,2,
1,0.333333333,1,1,1,1137,2,
1,0.333333333,0,1,0,1138,2,
1,0.333333333,1,1,1,1139,2,
1,0.333333333,1,0,0,1140,2,
1,0.333333333,0,1,0,1141,2,
1,0.333333333,0,0,1,1142,2,
1,0.333333333,0,0,1,1143,2,
1,0.333333333,0,0,1,1144,2,
1,0.333333333,0,0,1,1145,2,
1,0.333333333,0,1,0,1146,2,
1,0.333333333,0,0,1,1147,2,
1,0.333333333,0,0,1,1148,2,
1,0.333333333,1,0,0,1149,2,
1,0.333333333,0,0,1,1150,2,
1,0.333333333,1,0,0,1151,2,
1,0.333333333,0,1,0,1152,2,
1,0.333333333,0,0,1,1153,2,
1,0.333333333,1,1,1,1154,2,
1,0.333333333,1,0,0,1155,2,
1,0.333333333,0,1,0,1156,2,
1,0.333333333,0,0,1,1157,2,
1,0.333333333,0,1,0,1158,2,
1,0.333333333,1,1,1,1159,2,
1,0.333333333,0,0,1,1160,2,
1,0.333333333,0,0,1,1161,2,
1,0.333333333,1,1,1,1162,2,
1,0.333333333,1,1,1,1163,2,
1,0.333333333,0,0,1,1164,2,
1,0.333333333,0,0,1,1165,2,
1,0.333333333,0,1,0,1166,2,
1,0.333333333,1,0,0,1167,2,
1,0.333333333,1,1,1,1168,2,
1,0.333333333,1,1,1,1169,2,
1,0.333333333,0,1,0,1170,2,
1,0.333333333,0,1,0,1171,2,
1,0.333333333,1,0,0,1172,2,
1,0.333333333,1,1,1,1173,2,
1,0.333333333,1,1,1,1174,2,
1,0.333333333,0,1,0,1175,2,
1,0.333333333,1,0,0,1176,2,
1,0.333333333,0,0,1,1177,2,
1,0.333333333,0,1,0,1178,2,
1,0.333333333,0,0,1,1179,2,
1,0.333333333,1,1,1,1180,2,
1,0.333333333,1,1,1,1181,2,
1,0.333333333,1,0,0,1182,2,
1,0.333333333,0,0,1,1183,2,
1,0.333333333,1,1,1,1184,2,
1,0.333333333,0,1,0,1185,2,
1,0.333333333,0,1,0,1186,2,
1,0.333333333,0,0,1,1187,2,
1,0.333333333,0,0,1,1188,2,
1,0.333333333,1,1,1,1189,2,
1,0.333333333,1,0,0,1190,2,
1,0.333333333,1,1,1,1191,2,
1,0.333333333,1,1,1,1192,2,
1,0.333333333,1,1,1,1193,2,
1,0.333333333,0,1,0,1194,2,
1,0.333333333,1,1,1,1195,2,
1,0.333333333,1,1,1,1196,2,
1,0.333333333,0,1,0,1197,2,
1,0.333333333,0,0,1,1198,2,
1,0.333333333,1,1,1,1199,2,
1,0.333333333,0,1,0,1200,2,
1,0.333333333,0,1,0,1201,2,
1,0.333333333,0,1,0,1202,2,
1,0.333333333,0,0,1,1203,2,
1,0.333333333,0,0,1,1204,2,
1,0.333333333,1,0,0,1205,2,
1,0.333333333,0,0,1,1206,2,
1,0.333333333,0,0,1,1207,2,
1,0.333333333,0,0,1,1208,2,
1,0.333333333,1,0,0,1209,2,
1,0.333333333,1,1,1,1210,2,
1,0.333333333,0,1,0,1211,2,
1,0.333333333,1,0,0,1212,2,
1,0.333333333,1,0,0,1213,2,
1,0.333333333,1,0,0,1214,2,
1,0.333333333,1,1,1,1215,2,
1,0.333333333,1,1,1,1216,2,
1,0.333333333,1,1,1,1217,2,
1,0.333333333,1,0,0,1218,2,
1,0.333333333,0,1,0,1219,2,
1,0.333333333,1,0,0,1220,2,
1,0.333333333,1,1,1,1221,2,
1,0.333333333,1,1,1,1222,2,
1,0.333333333,1,0,0,1223,2,
1,0.333333333,1,1,1,1224,2,
1,0.333333333,1,1,1,1225,2,
1,0.333333333,0,1,0,1226,2,
1,0.333333333,0,0,1,1227,2,
1,0.333333333,1,1,1,1228,2,
1,0.333333333,0,1,0,1229,2,
1,0.333333333,1,0,0,1230,2,
1,0.333333333,1,1,1,1231,2,
1,0.333333333,1,0,0,1232,2,
1,0.333333333,0,1,0,1233,2,
1,0.333333333,1,1,1,1234,2,
1,0.333333333,1,0,0,1235,2,
1,0.333333333,0,1,0,1236,2,
1,0.333333333,0,0,1,1237,2,
1,0.333333333,1,0,0,1238,2,
1,0.333333333,0,1,0,1239,2,
1,0.333333333,0,1,0,1240,2,
1,0.333333333,0,0,1,1241,2,
1,0.333333333,0,0,1,1242,2,
1,0.333333333,1,1,1,1243,2,
1,0.333333333,0,1,0,1244,2,
1,0.333333333,0,1,0,1245,2,
1,0.333333333,0,1,0,1246,2,
1,0.333333333,0,0,1,1247,2,
1,0.333333333,0,1,0,1248,2,
1,0.333333333,0,1,0,1249,2,
1,0.333333333,0,0,1,1250,2,
1,0.333333333,0,0,1,1251,2,
1,0.333333333,0,0,1,1252,2,
1,0.333333333,0,0,1,1253,2,
1,0.333333333,1,0,0,1254,2,
1,0.333333333,0,0,1,1255,2,
1,0.333333333,1,0,0,1256,2,
1,0.333333333,1,1,1,1257,2,
1,0.333333333,1,0,0,1258,2,
1,0.333333333,0,1,0,1259,2,
1,0.333333333,1,1,1,1260,2,
1,0.333333333,0,0,1,1261,2,
1,0.333333333,0,0,1,1262,2,
1,0.333333333,1,1,1,1263,2,
1,0.333333333,0,0,1,1264,2,
1,0.333333333,1,0,0,1265,2,
1,0.333333333,0,1,0,1266,2,
1,0.333333333,1,1,1,1267,2,
1,0.333333333,1,0,0,1268,2,
1,0.333333333,1,1,1,1269,2,
1,0.333333333,0,0,1,1270,2,
1,0.333333333,1,1,1,1271,2,
1,0.333333333,1,0,0,1272,2,
1,0.333333333,0,0,1,1273,2,
1,0.333333333,1,0,0,1274,2,
1,0.333333333,1,1,1,1275,2,
1,0.333333333,0,0,1,1276,2,
1,0.333333333,0,1,0,1277,2,
1,0.333333333,1,1,1,1278,2,
1,0.333333333,0,1,0,1279,2,
1,0.333333333,1,0,0,1280,2,
1,0.333333333,1,1,1,1281,2,
1,0.333333333,0,1,0,1282,2,
1,0.333333333,1,0,0,1283,2,
1,0.333333333,1,1,1,1284,2,
1,0.333333333,0,1,0,1285,2,
1,0.333333333,0,1,0,1286,2,
1,0.333333333,1,1,1,1287,2,
1,0.333333333,0,1,0,1288,2,
1,0.333333333,1,1,1,1289,2,
1,0.333333333,1,0,0,1290,2,
1,0.333333333,0,0,1,1291,2,
1,0.333333333,0,0,1,1292,2,
1,0.333333333,1,0,0,1293,2,
1,0.333333333,0,1,0,1294,2,
1,0.333333333,1,1,1,1295,2,
1,0.333333333,0,0,1,1296,2,
1,0.333333333,1,1,1,1297,2,
1,0.333333333,0,1,0,1298,2,
1,0.333333333,0,0,1,1299,2,
1,0.333333333,0,0,1,1300,2,
1,0.333333333,1,0,0,1301,2,
1,0.333333333,1,1,1,1302,2,
1,0.333333333,0,1,0,1303,2,
1,0.333333333,0,1,0,1304,2,
1,0.333333333,1,1,1,1305,2,
1,0.333333333,1,1,1,1306,2,
1,0.333333333,1,1,1,1307,2,
1,0.333333333,0,0,1,1308,2,
1,0.333333333,1,1,1,1309,2,
1,0.333333333,1,1,1,1310,2,
1,0.333333333,0,1,0,1311,2,
1,0.333333333,0,1,0,1312,2,
1,0.333333333,1,0,0,1313,2,
1,0.333333333,0,0,1,1314,2,
1,0.333333333,0,0,1,1315,2,
1,0.333333333,1,1,1,1316,2,
1,0.333333333,0,0,1,1317,2,
1,0.333333333,0,0,1,1318,2,
1,0.333333333,0,1,0,1319,2,
1,0.333333333,1,0,0,1320,2,
1,0.333333333,1,0,0,1321,2,
1,0.333333333,0,1,0,1322,2,
1,0.333333333,1,1,1,1323,2,
1,0.333333333,0,0,1,1324,2,
1,0.333333333,1,1,1,1325,2,
1,0.333333333,1,1,1,1326,2,
1,0.333333333,0,0,1,1327,2,
1,0.333333333,1,1,1,1328,2,
1,0.333333333,1,1,1,1329,2,
1,0.333333333,0,1,0,1330,2,
1,0.333333333,1,0,0,1331,2,
1,0.333333333,1,1,1,1332,2,
1,0.333333333,0,0,1,1333,2,
1,0.333333333,0,1,0,1334,2,
1,0.333333333,0,0,1,1335,2,
1,0.333333333,0,1,0,1336,2,
1,0.333333333,0,0,1,1337,2,
1,0.333333333,1,0,0,1338,2,
1,0.333333333,0,0,1,1339,2,
1,0.333333333,1,0,0,1340,2,
1,0.333333333,0,1,0,1341,2,
1,0.333333333,0,1,0,1342,2,
1,0.333333333,0,0,1,1343,2,
1,0.333333333,1,1,1,1344,2,
1,0.333333333,1,0,0,1345,2,
1,0.333333333,1,1,1,1346,2,
1,0.333333333,0,1,0,1347,2,
1,0.333333333,1,0,0,1348,2,
1,0.333333333,1,1,1,1349,2,
1,0.333333333,1,0,0,1350,2,
1,0.333333333,0,1,0,1351,2,
1,0.333333333,0,0,1,1352,2,
1,0.333333333,0,0,1,1353,2,
1,0.333333333,1,0,0,1354,2,
1,0.333333333,1,1,1,1355,2,
1,0.333333333,1,0,0,1356,2,
1,0.333333333,1,0,0,1357,2,
1,0.333333333,1,1,1,1358,2,
1,0.333333333,1,1,1,1359,2,
1,0.333333333,0,1,0,1360,2,
1,0.333333333,1,1,1,1361,2,
1,0.333333333,0,1,0,1362,2,
1,0.333333333,0,1,0,1363,2,
1,0.333333333,0,1,0,1364,2,
1,0.333333333,0,0,1,1365,2,
1,0.333333333,1,1,1,1366,2,
1,0.333333333,0,0,1,1367,2,
1,0.333333333,0,1,0,1368,2,
1,0.333333333,1,0,0,1369,2,
1,0.333333333,0,1,0,1370,2,
1,0.333333333,1,0,0,1371,2,
1,0.333333333,0,1,0,1372,2,
1,0.333333333,0,0,1,1373,2,
1,0.333333333,1,1,1,1374,2,
1,0.333333333,1,1,1,1375,2,
1,0.333333333,1,1,1,1376,2,
1,0.333333333,0,0,1,1377,2,
1,0.333333333,1,0,0,1378,2,
1,0.333333333,1,0,0,1379,2,
1,0.333333333,1,1,1,1380,2,
1,0.333333333,0,1,0,1381,2,
1,0.333333333,0,0,1,1382,2,
1,0.333333333,0,1,0,1383,2,
1,0.333333333,1,1,1,1384,2,
1,0.333333333,1,0,0,1385,2,
1,0.333333333,1,1,1,1386,2,
1,0.333333333,0,0,1,1387,2,
1,0.333333333,0,1,0,1388,2,
1,0.333333333,0,0,1,1389,2,
1,0.333333333,0,0,1,1390,2,
1,0.333333333,1,0,0,1391,2,
1,0.333333333,0,1,0,1392,2,
1,0.333333333,1,0,0,1393,2,
1,0.333333333,1,1,1,1394,2,
1,0.333333333,1,1,1,1395,2,
1,0.333333333,1,1,1,1396,2,
1,0.333333333,0,0,1,1397,2,
1,0.333333333,1,1,1,1398,2,
1,0.333333333,0,1,0,1399,2,
1,0.333333333,0,1,0,1400,2,
1,0.333333333,0,0,1,1401,2,
1,0.333333333,1,1,1,1402,2,
1,0.333333333,0,0,1,1403,2,
1,0.333333333,1,1,1,1404,2,
1,0.333333333,1,0,0,1405,2,
1,0.333333333,0,0,1,1406,2,
1,0.333333333,0,0,1,1407,2,
1,0.333333333,1,1,1,1408,2,
1,0.333333333,0,1,0,1409,2,
1,0.333333333,1,0,0,1410,2,
1,0.333333333,0,0,1,1411,2,
1,0.333333333,1,1,1,1412,2,
1,0.333333333,1,0,0,1413,2,
1,0.333333333,0,1,0,1414,2,
1,0.333333333,0,1,0,1415,2,
1,0.333333333,0,0,1,1416,2,
1,0.333333333,0,0,1,1417,2,
1,0.333333333,0,0,1,1418,2,
1,0.333333333,0,0,1,1419,2,
1,0.333333333,1,0,0,1420,2,
1,0.333333333,1,0,0,1421,2,
1,0.333333333,1,1,1,1422,2,
1,0.333333333,0,1,0,1423,2,
1,0.333333333,1,1,1,1424,2,
1,0.333333333,0,0,1,1425,2,
1,0.333333333,0,1,0,1426,2,
1,0.333333333,1,1,1,1427,2,
1,0.333333333,1,1,1,1428,2,
1,0.333333333,0,1,0,1429,2,
1,0.333333333,1,0,0,1430,2,
1,0.333333333,0,1,0,1431,2,
1,0.333333333,1,0,0,1432,2,
1,0.333333333,0,0,1,1433,2,
1,0.333333333,0,0,1,1434,2,
1,0.333333333,0,0,1,1435,2,
1,0.333333333,1,1,1,1436,2,
1,0.333333333,1,1,1,1437,2,
1,0.333333333,0,0,1,1438,2,
1,0.333333333,0,0,1,1439,2,
1,0.333333333,0,0,1,1440,2,
1,0.333333333,1,1,1,1441,2,
1,0.333333333,0,0,1,1442,2,
1,0.333333333,1,1,1,1443,2,
1,0.333333333,1,1,1,1444,2,
1,0.333333333,0,0,1,1445,2,
1,0.333333333,0,1,0,1446,2,
1,0.333333333,0,0,1,1447,2,
1,0.333333333,0,0,1,1448,2,
1,0.333333333,0,1,0,1449,2,
1,0.333333333,0,0,1,1450,2,
1,0.333333333,0,0,1,1451,2,
1,0.333333333,0,0,1,1452,2,
1,0.333333333,1,0,0,1453,2,
1,0.333333333,1,1,1,1454,2,
1,0.333333333,1,0,0,1455,2,
1,0.333333333,1,0,0,1456,2,
1,0.333333333,1,1,1,1457,2,
1,0.333333333,1,1,1,1458,2,
1,0.333333333,0,1,0,1459,2,
1,0.333333333,1,0,0,1460,2,
1,0.333333333,0,1,0,1461,2,
1,0.333333333,1,1,1,1462,2,
1,0.333333333,1,0,0,1463,2,
1,0.333333333,0,1,0,1464,2,
1,0.333333333,1,0,0,1465,2,
1,0.333333333,0,1,0,1466,2,
1,0.333333333,0,0,1,1467,2,
1,0.333333333,0,0,1,1468,2,
1,0.333333333,1,0,0,1469,2,
1,0.333333333,1,0,0,1470,2,
1,0.333333333,0,0,1,1471,2,
1,0.333333333,0,1,0,1472,2,
1,0.333333333,1,1,1,1473,2,
1,0.333333333,1,0,0,1474,2,
1,0.333333333,0,0,1,1475,2,
1,0.333333333,1,1,1,1476,2,
1,0.333333333,1,1,1,1477,2,
1,0.333333333,1,1,1,1478,2,
1,0.333333333,1,0,0,1479,2,
1,0.333333333,1,0,0,1480,2,
1,0.333333333,1,1,1,1481,2,
1,0.333333333,1,0,0,1482,2,
1,0.333333333,1,1,1,1483,2,
1,0.333333333,0,0,1,1484,2,
1,0.333333333,1,1,1,1485,2,
1,0.333333333,1,1,1,1486,2,
1,0.333333333,0,0,1,1487,2,
1,0.333333333,0,0,1,1488,2,
1,0.333333333,0,0,1,1489,2,
1,0.333333333,1,0,0,1490,2,
1,0.333333333,1,0,0,1491,2,
1,0.333333333,0,0,1,1492,2,
1,0.333333333,0,1,0,1493,2,
1,0.333333333,0,1,0,1494,2,
1,0.333333333,0,1,0,1495,2,
1,0.333333333,1,0,0,1496,2,
1,0.333333333,1,0,0,1497,2,
1,0.333333333,1,0,0,1498,2,
1,0.333333333,1,1,1,1499,2,
1,0.333333333,0,1,0,1500,2,
1,0.333333333,1,0,0,1501,2,
1,0.333333333,1,1,1,1502,2,
1,0.333333333,0,1,0,1503,2,
1,0.333333333,0,1,0,1504,2,
1,0.333333333,0,0,1,1505,2,
1,0.333333333,1,1,1,1506,2,
1,0.333333333,0,1,0,1507,2,
1,0.333333333,1,1,1,1508,2,
1,0.333333333,1,1,1,1509,2,
1,0.333333333,0,0,1,1510,2,
1,0.333333333,1,0,0,1511,2,
1,0.333333333,0,0,1,1512,2,
1,0.333333333,0,0,1,1513,2,
1,0.333333333,0,1,0,1514,2,
1,0.333333333,0,1,0,1515,2,
1,0.333333333,1,1,1,1516,2,
1,0.333333333,1,1,1,1517,2,
1,0.333333333,0,0,1,1518,2,
1,0.333333333,1,1,1,1519,2,
1,0.333333333,0,0,1,1520,2,
1,0.333333333,0,0,1,1521,2,
1,0.333333333,1,1,1,1522,2,
1,0.333333333,0,0,1,1523,2,
1,0.333333333,0,1,0,1524,2,
1,0.333333333,1,1,1,1525,2,
1,0.333333333,0,0,1,1526,2,
1,0.333333333,0,1,0,1527,2,
1,0.333333333,0,1,0,1528,2,
1,0.333333333,0,1,0,1529,2,
1,0.333333333,1,0,0,1530,2,
1,0.333333333,0,0,1,1531,2,
1,0.333333333,1,1,1,1532,2,
1,0.333333333,1,1,1,1533,2,
1,0.333333333,0,0,1,1534,2,
1,0.333333333,1,0,0,1535,2,
1,0.333333333,0,1,0,1536,2,
1,0.333333333,1,1,1,1537,2,
1,0.333333333,0,0,1,1538,2,
1,0.333333333,0,1,0,1539,2,
1,0.333333333,0,1,0,1540,2,
1,0.333333333,1,1,1,1541,2,
1,0.333333333,1,1,1,1542,2,
1,0.333333333,0,0,1,1543,2,
1,0.333333333,1,1,1,1544,2,
1,0.333333333,0,0,1,1545,2,
1,0.333333333,1,1,1,1546,2,
1,0.333333333,0,1,0,1547,2,
1,0.333333333,0,1,0,1548,2,
1,0.333333333,1,1,1,1549,2,
1,0.333333333,1,0,0,1550,2,
1,0.333333333,0,0,1,1551,2,
1,0.333333333,0,0,1,1552,2,
1,0.333333333,1,1,1,1553,2,
1,0.333333333,1,0,0,1554,2,
1,0.333333333,1,0,0,1555,2,
1,0.333333333,0,1,0,1556,2,
1,0.333333333,1,0,0,1557,2,
1,0.333333333,1,0,0,1558,2,
1,0.333333333,1,1,1,1559,2,
1,0.333333333,0,0,1,1560,2,
1,0.333333333,1,1,1,1561,2,
1,0.333333333,1,0,0,1562,2,
1,0.333333333,0,0,1,1563,2,
1,0.333333333,0,1,0,1564,2,
1,0.333333333,1,1,1,1565,2,
1,0.333333333,0,0,1,1566,2,
1,0.333333333,0,0,1,1567,2,
1,0.333333333,0,0,1,1568,2,
1,0.333333333,1,1,1,1569,2,
1,0.333333333,0,0,1,1570,2,
1,0.333333333,1,1,1,1571,2,
1,0.333333333,1,1,1,1572,2,
1,0.333333333,0,0,1,1573,2,
1,0.333333333,0,1,0,1574,2,
1,0.333333333,1,1,1,1575,2,
1,0.333333333,0,0,1,1576,2,
1,0.333333333,0,0,1,1577,2,
1,0.333333333,1,0,0,1578,2,
1,0.333333333,1,1,1,1579,2,
1,0.333333333,1,1,1,1580,2,
1,0.333333333,0,1,0,1581,2,
1,0.333333333,0,1,0,1582,2,
1,0.333333333,1,0,0,1583,2,
1,0.333333333,0,0,1,1584,2,
1,0.333333333,0,0,1,1585,2,
1,0.333333333,1,1,1,1586,2,
1,0.333333333,1,0,0,1587,2,
1,0.333333333,0,0,1,1588,2,
1,0.333333333,1,0,0,1589,2,
1,0.333333333,1,0,0,1590,2,
1,0.333333333,1,1,1,1591,2,
1,0.333333333,0,1,0,1592,2,
1,0.333333333,0,1,0,1593,2,
1,0.333333333,0,1,0,1594,2,
1,0.333333333,1,1,1,1595,2,
1,0.333333333,0,0,1,1596,2,
1,0.333333333,0,1,0,1597,2,
1,0.333333333,1,1,1,1598,2,
1,0.333333333,1,0,0,1599,2,
1,0.333333333,1,1,1,1600,2,
1,0.333333333,1,0,0,1601,2,
1,0.333333333,1,0,0,1602,2,
1,0.333333333,1,1,1,1603,2,
1,0.333333333,0,0,1,1604,2,
1,0.333333333,1,0,0,1605,2,
1,0.333333333,1,0,0,1606,2,
1,0.333333333,1,0,0,1607,2,
1,0.333333333,1,1,1,1608,2,
1,0.333333333,0,1,0,1609,2,
1,0.333333333,0,0,1,1610,2,
1,0.333333333,0,1,0,1611,2,
1,0.333333333,0,0,1,1612,2,
1,0.333333333,1,1,1,1613,2,
1,0.333333333,0,0,1,1614,2,
1,0.333333333,1,1,1,1615,2,
1,0.333333333,1,1,1,1616,2,
1,0.333333333,0,1,0,1617,2,
1,0.333333333,1,1,1,1618,2,
1,0.333333333,0,0,1,1619,2,
1,0.333333333,1,1,1,1620,2,
1,0.333333333,0,1,0,1621,2,
1,0.333333333,0,0,1,1622,2,
1,0.333333333,1,1,1,1623,2,
1,0.333333333,0,1,0,1624,2,
1,0.333333333,0,1,0,1625,2,
1,0.333333333,1,0,0,1626,2,
1,0.333333333,0,1,0,1627,2,
1,0.333333333,1,1,1,1628,2,
1,0.333333333,0,1,0,1629,2,
1,0.333333333,0,0,1,1630,2,
1,0.333333333,1,0,0,1631,2,
1,0.333333333,0,1,0,1632,2,
1,0.333333333,0,0,1,1633,2,
1,0.333333333,1,0,0,1634,2,
1,0.333333333,1,1,1,1635,2,
1,0.333333333,1,1,1,1636,2,
1,0.333333333,1,1,1,1637,2,
1,0.333333333,0,1,0,1638,2,
1,0.333333333,0,1,0,1639,2,
1,0.333333333,0,1,0,1640,2,
1,0.333333333,0,0,1,1641,2,
1,0.333333333,1,1,1,1642,2,
1,0.333333333,1,1,1,1643,2,
1,0.333333333,1,1,1,1644,2,
1,0.333333333,1,1,1,1645,2,
1,0.333333333,1,0,0,1646,2,
1,0.333333333,1,1,1,1647,2,
1,0.333333333,0,1,0,1648,2,
1,0.333333333,1,0,0,1649,2,
1,0.333333333,0,0,1,1650,2,
1,0.333333333,0,1,0,1651,2,
1,0.333333333,1,1,1,1652,2,
1,0.333333333,0,0,1,1653,2,
1,0.333333333,1,0,0,1654,2,
1,0.333333333,1,0,0,1655,2,
1,0.333333333,1,1,1,1656,2,
1,0.333333333,1,0,0,1657,2,
1,0.333333333,0,0,1,1658,2,
1,0.333333333,0,0,1,1659,2,
1,0.333333333,0,1,0,1660,2,
1,0.333333333,1,0,0,1661,2,
1,0.333333333,1,1,1,1662,2,
1,0.333333333,0,1,0,1663,2,
1,0.333333333,0,0,1,1664,2,
1,0.333333333,0,0,1,1665,2,
1,0.333333333,0,1,0,1666,2,
1,0.333333333,0,1,0,1667,2,
1,0.333333333,0,0,1,1668,2,
1,0.333333333,0,0,1,1669,2,
1,0.333333333,1,1,1,1670,2,
1,0.333333333,1,0,0,1671,2,
1,0.333333333,0,0,1,1672,2,
1,0.333333333,0,1,0,1673,2,
1,0.333333333,1,1,1,1674,2,
1,0.333333333,0,0,1,1675,2,
1,0.333333333,1,0,0,1676,2,
1,0.333333333,0,0,1,1677,2,
1,0.333333333,1,1,1,1678,2,
1,0.333333333,1,0,0,1679,2,
1,0.333333333,1,1,1,1680,2,
1,0.333333333,1,1,1,1681,2,
1,0.333333333,0,0,1,1682,2,
1,0.333333333,1,1,1,1683,2,
1,0.333333333,0,1,0,1684,2,
1,0.333333333,0,0,1,1685,2,
1,0.333333333,1,1,1,1686,2,
1,0.333333333,1,1,1,1687,2,
1,0.333333333,1,1,1,1688,2,
1,0.333333333,0,0,1,1689,2,
1,0.333333333,1,0,0,1690,2,
1,0.333333333,1,1,1,1691,2,
1,0.333333333,1,1,1,1692,2,
1,0.333333333,1,1,1,1693,2,
1,0.333333333,0,1,0,1694,2,
1,0.333333333,1,1,1,1695,2,
1,0.333333333,1,0,0,1696,2,
1,0.333333333,1,1,1,1697,2,
1,0.333333333,1,1,1,1698,2,
1,0.333333333,0,1,0,1699,2,
1,0.333333333,1,1,1,1700,2,
1,0.333333333,0,0,1,1701,2,
1,0.333333333,0,0,1,1702,2,
1,0.333333333,1,0,0,1703,2,
1,0.333333333,0,1,0,1704,2,
1,0.333333333,0,1,0,1705,2,
1,0.333333333,0,0,1,1706,2,
1,0.333333333,0,0,1,1707,2,
1,0.333333333,1,1,1,1708,2,
1,0.333333333,1,0,0,1709,2,
1,0.333333333,0,1,0,1710,2,
1,0.333333333,1,1,1,1711,2,
1,0.333333333,0,0,1,1712,2,
1,0.333333333,0,0,1,1713,2,
1,0.333333333,0,0,1,1714,2,
1,0.333333333,0,1,0,1715,2,
1,0.333333333,0,1,0,1716,2,
1,0.333333333,1,1,1,1717,2,
1,0.333333333,0,0,1,1718,2,
1,0.333333333,1,0,0,1719,2,
1,0.333333333,0,1,0,1720,2,
1,0.333333333,0,0,1,1721,2,
1,0.333333333,1,1,1,1722,2,
1,0.333333333,1,1,1,1723,2,
1,0.333333333,1,1,1,1724,2,
1,0.333333333,0,1,0,1725,2,
1,0.333333333,0,1,0,1726,2,
1,0.333333333,0,0,1,1727,2,
1,0.333333333,0,1,0,1728,2,
1,0.333333333,1,0,0,1729,2,
1,0.333333333,1,1,1,1730,2,
1,0.333333333,0,1,0,1731,2,
1,0.333333333,0,1,0,1732,2,
1,0.333333333,0,0,1,1733,2,
1,0.333333333,1,0,0,1734,2,
1,0.333333333,1,1,1,1735,2,
1,0.333333333,1,0,0,1736,2,
1,0.333333333,0,0,1,1737,2,
1,0.333333333,0,1,0,1738,2,
1,0.333333333,0,1,0,1739,2,
1,0.333333333,0,0,1,1740,2,
1,0.333333333,1,1,1,1741,2,
1,0.333333333,1,0,0,1742,2,
1,0.333333333,0,1,0,1743,2,
1,0.333333333,1,0,0,1744,2,
1,0.333333333,0,0,1,1745,2,
1,0.333333333,0,0,1,1746,2,
1,0.333333333,1,0,0,1747,2,
1,0.333333333,0,0,1,1748,2,
1,0.333333333,1,1,1,1749,2,
1,0.333333333,1,0,0,1750,2,
1,0.333333333,0,0,1,1751,2,
1,0.333333333,1,1,1,1752,2,
1,0.333333333,0,0,1,1753,2,
1,0.333333333,1,1,1,1754,2,
1,0.333333333,0,0,1,1755,2,
1,0.333333333,1,1,1,1756,2,
1,0.333333333,0,0,1,1757,2,
1,0.333333333,0,0,1,1758,2,
1,0.333333333,0,1,0,1759,2,
1,0.333333333,1,0,0,1760,2,
1,0.333333333,1,0,0,1761,2,
1,0.333333333,1,1,1,1762,2,
1,0.333333333,0,1,0,1763,2,
1,0.333333333,0,1,0,1764,2,
1,0.333333333,1,0,0,1765,2,
1,0.333333333,1,1,1,1766,2,
1,0.333333333,1,0,0,1767,2,
1,0.333333333,0,0,1,1768,2,
1,0.333333333,1,0,0,1769,2,
1,0.333333333,0,0,1,1770,2,
1,0.333333333,1,0,0,1771,2,
1,0.333333333,1,0,0,1772,2,
1,0.333333333,1,0,0,1773,2,
1,0.333333333,0,0,1,1774,2,
1,0.333333333,1,0,0,1775,2,
1,0.333333333,1,0,0,1776,2,
1,0.333333333,0,0,1,1777,2,
1,0.333333333,1,0,0,1778,2,
1,0.333333333,1,0,0,1779,2,
1,0.333333333,0,0,1,1780,2,
1,0.333333333,0,0,1,1781,2,
1,0.333333333,1,0,0,1782,2,
1,0.333333333,1,0,0,1783,2,
1,0.333333333,0,0,1,1784,2,
1,0.333333333,0,0,1,1785,2,
1,0.333333333,1,1,1,1786,2,
1,0.333333333,1,1,1,1787,2,
1,0.333333333,0,0,1,1788,2,
1,0.333333333,0,0,1,1789,2,
1,0.333333333,1,1,1,1790,2,
1,0.333333333,1,1,1,1791,2,
1,0.333333333,1,0,0,1792,2,
1,0.333333333,1,0,0,1793,2,
1,0.333333333,0,0,1,1794,2,
1,0.333333333,0,1,0,1795,2,
1,0.333333333,0,1,0,1796,2,
1,0.333333333,0,0,1,1797,2,
1,0.333333333,1,1,1,1798,2,
1,0.333333333,0,0,1,1799,2,
1,0.333333333,1,0,0,1800,2,
1,0.666666667,0,1,0,1801,3,
1,0.666666667,1,1,1,1802,3,
1,0.666666667,0,1,0,1803,3,
1,0.666666667,0,0,1,1804,3,
1,0.666666667,1,0,0,1805,3,
1,0.666666667,1,1,1,1806,3,
1,0.666666667,1,0,0,1807,3,
1,0.666666667,1,0,0,1808,3,
1,0.666666667,1,0,0,1809,3,
1,0.666666667,0,0,1,1810,3,
1,0.666666667,1,1,1,1811,3,
1,0.666666667,0,1,0,1812,3,
1,0.666666667,0,0,1,1813,3,
1,0.666666667,0,0,1,1814,3,
1,0.666666667,0,0,1,1815,3,
1,0.666666667,0,1,0,1816,3,
1,0.666666667,1,1,1,1817,3,
1,0.666666667,1,1,1,1818,3,
1,0.666666667,1,0,0,1819,3,
1,0.666666667,1,1,1,1820,3,
1,0.666666667,0,0,1,1821,3,
1,0.666666667,1,1,1,1822,3,
1,0.666666667,0,0,1,1823,3,
1,0.666666667,1,1,1,1824,3,
1,0.666666667,1,1,1,1825,3,
1,0.666666667,1,1,1,1826,3,
1,0.666666667,0,1,0,1827,3,
1,0.666666667,1,1,1,1828,3,
1,0.666666667,0,0,1,1829,3,
1,0.666666667,0,1,0,1830,3,
1,0.666666667,1,0,0,1831,3,
1,0.666666667,0,1,0,1832,3,
1,0.666666667,0,0,1,1833,3,
1,0.666666667,0,1,0,1834,3,
1,0.666666667,1,0,0,1835,3,
1,0.666666667,0,0,1,1836,3,
1,0.666666667,0,0,1,1837,3,
1,0.666666667,0,0,1,1838,3,
1,0.666666667,1,1,1,1839,3,
1,0.666666667,1,0,0,1840,3,
1,0.666666667,0,0,1,1841,3,
1,0.666666667,0,0,1,1842,3,
1,0.666666667,0,1,0,1843,3,
1,0.666666667,1,0,0,1844,3,
1,0.666666667,1,1,1,1845,3,
1,0.666666667,0,0,1,1846,3,
1,0.666666667,0,0,1,1847,3,
1,0.666666667,1,1,1,1848,3,
1,0.666666667,1,0,0,1849,3,
1,0.666666667,0,1,0,1850,3,
1,0.666666667,0,0,1,1851,3,
1,0.666666667,1,0,0,1852,3,
1,0.666666667,1,1,1,1853,3,
1,0.666666667,0,0,1,1854,3,
1,0.666666667,0,0,1,1855,3,
1,0.666666667,0,0,1,1856,3,
1,0.666666667,1,1,1,1857,3,
1,0.666666667,0,1,0,1858,3,
1,0.666666667,0,0,1,1859,3,
1,0.666666667,0,0,1,1860,3,
1,0.666666667,1,1,1,1861,3,
1,0.666666667,1,0,0,1862,3,
1,0.666666667,0,1,0,1863,3,
1,0.666666667,0,1,0,1864,3,
1,0.666666667,1,1,1,1865,3,
1,0.666666667,1,0,0,1866,3,
1,0.666666667,1,0,0,1867,3,
1,0.666666667,1,1,1,1868,3,
1,0.666666667,0,0,1,1869,3,
1,0.666666667,0,0,1,1870,3,
1,0.666666667,0,0,1,1871,3,
1,0.666666667,0,0,1,1872,3,
1,0.666666667,1,1,1,1873,3,
1,0.666666667,1,1,1,1874,3,
1,0.666666667,1,0,0,1875,3,
1,0.666666667,1,0,0,1876,3,
1,0.666666667,1,1,1,1877,3,
1,0.666666667,0,1,0,1878,3,
1,0.666666667,1,0,0,1879,3,
1,0.666666667,1,0,0,1880,3,
1,0.666666667,1,0,0,1881,3,
1,0.666666667,1,1,1,1882,3,
1,0.666666667,0,1,0,1883,3,
1,0.666666667,1,1,1,1884,3,
1,0.666666667,0,0,1,1885,3,
1,0.666666667,0,0,1,1886,3,
1,0.666666667,1,1,1,1887,3,
1,0.666666667,1,1,1,1888,3,
1,0.666666667,0,0,1,1889,3,
1,0.666666667,0,0,1,1890,3,
1,0.666666667,1,1,1,1891,3,
1,0.666666667,0,1,0,1892,3,
1,0.666666667,1,1,1,1893,3,
1,0.666666667,0,1,0,1894,3,
1,0.666666667,1,0,0,1895,3,
1,0.666666667,0,0,1,1896,3,
1,0.666666667,0,0,1,1897,3,
1,0.666666667,0,0,1,1898,3,
1,0.666666667,0,0,1,1899,3,
1,0.666666667,0,0,1,1900,3,
1,0.666666667,0,0,1,1901,3,
1,0.666666667,0,1,0,1902,3,
1,0.666666667,1,0,0,1903,3,
1,0.666666667,1,0,0,1904,3,
1,0.666666667,1,0,0,1905,3,
1,0.666666667,1,1,1,1906,3,
1,0.666666667,0,1,0,1907,3,
1,0.666666667,1,0,0,1908,3,
1,0.666666667,0,0,1,1909,3,
1,0.666666667,1,1,1,1910,3,
1,0.666666667,1,1,1,1911,3,
1,0.666666667,0,0,1,1912,3,
1,0.666666667,1,0,0,1913,3,
1,0.666666667,1,0,0,1914,3,
1,0.666666667,1,1,1,1915,3,
1,0.666666667,1,1,1,1916,3,
1,0.666666667,1,0,0,1917,3,
1,0.666666667,0,0,1,1918,3,
1,0.666666667,1,1,1,1919,3,
1,0.666666667,0,1,0,1920,3,
1,0.666666667,0,0,1,1921,3,
1,0.666666667,1,0,0,1922,3,
1,0.666666667,0,0,1,1923,3,
1,0.666666667,1,0,0,1924,3,
1,0.666666667,0,0,1,1925,3,
1,0.666666667,1,1,1,1926,3,
1,0.666666667,0,1,0,1927,3,
1,0.666666667,1,1,1,1928,3,
1,0.666666667,0,0,1,1929,3,
1,0.666666667,0,0,1,1930,3,
1,0.666666667,0,1,0,1931,3,
1,0.666666667,1,1,1,1932,3,
1,0.666666667,1,0,0,1933,3,
1,0.666666667,0,0,1,1934,3,
1,0.666666667,0,0,1,1935,3,
1,0.666666667,1,0,0,1936,3,
1,0.666666667,1,0,0,1937,3,
1,0.666666667,0,1,0,1938,3,
1,0.666666667,0,0,1,1939,3,
1,0.666666667,0,1,0,1940,3,
1,0.666666667,1,1,1,1941,3,
1,0.666666667,1,1,1,1942,3,
1,0.666666667,0,0,1,1943,3,
1,0.666666667,1,1,1,1944,3,
1,0.666666667,0,0,1,1945,3,
1,0.666666667,0,1,0,1946,3,
1,0.666666667,1,1,1,1947,3,
1,0.666666667,1,1,1,1948,3,
1,0.666666667,0,0,1,1949,3,
1,0.666666667,1,1,1,1950,3,
1,0.666666667,0,1,0,1951,3,
1,0.666666667,0,0,1,1952,3,
1,0.666666667,1,1,1,1953,3,
1,0.666666667,1,1,1,1954,3,
1,0.666666667,0,0,1,1955,3,
1,0.666666667,1,1,1,1956,3,
1,0.666666667,1,1,1,1957,3,
1,0.666666667,0,0,1,1958,3,
1,0.666666667,1,1,1,1959,3,
1,0.666666667,1,1,1,1960,3,
1,0.666666667,0,1,0,1961,3,
1,0.666666667,0,0,1,1962,3,
1,0.666666667,1,1,1,1963,3,
1,0.666666667,1,0,0,1964,3,
1,0.666666667,1,0,0,1965,3,
1,0.666666667,0,0,1,1966,3,
1,0.666666667,0,0,1,1967,3,
1,0.666666667,0,1,0,1968,3,
1,0.666666667,0,0,1,1969,3,
1,0.666666667,0,0,1,1970,3,
1,0.666666667,0,0,1,1971,3,
1,0.666666667,1,0,0,1972,3,
1,0.666666667,1,0,0,1973,3,
1,0.666666667,0,1,0,1974,3,
1,0.666666667,1,1,1,1975,3,
1,0.666666667,1,1,1,1976,3,
1,0.666666667,1,1,1,1977,3,
1,0.666666667,1,0,0,1978,3,
1,0.666666667,1,1,1,1979,3,
1,0.666666667,0,1,0,1980,3,
1,0.666666667,1,1,1,1981,3,
1,0.666666667,0,1,0,1982,3,
1,0.666666667,1,1,1,1983,3,
1,0.666666667,1,0,0,1984,3,
1,0.666666667,0,0,1,1985,3,
1,0.666666667,0,1,0,1986,3,
1,0.666666667,0,0,1,1987,3,
1,0.666666667,1,1,1,1988,3,
1,0.666666667,1,0,0,1989,3,
1,0.666666667,0,1,0,1990,3,
1,0.666666667,0,0,1,1991,3,
1,0.666666667,1,0,0,1992,3,
1,0.666666667,1,1,1,1993,3,
1,0.666666667,0,1,0,1994,3,
1,0.666666667,1,1,1,1995,3,
1,0.666666667,0,0,1,1996,3,
1,0.666666667,0,0,1,1997,3,
1,0.666666667,0,1,0,1998,3,
1,0.666666667,0,1,0,1999,3,
1,0.666666667,1,1,1,2000,3,
1,0.666666667,0,0,1,2001,3,
1,0.666666667,0,0,1,2002,3,
1,0.666666667,0,0,1,2003,3,
1,0.666666667,1,1,1,2004,3,
1,0.666666667,1,1,1,2005,3,
1,0.666666667,1,1,1,2006,3,
1,0.666666667,1,0,0,2007,3,
1,0.666666667,0,0,1,2008,3,
1,0.666666667,1,1,1,2009,3,
1,0.666666667,1,1,1,2010,3,
1,0.666666667,0,1,0,2011,3,
1,0.666666667,0,0,1,2012,3,
1,0.666666667,0,0,1,2013,3,
1,0.666666667,0,0,1,2014,3,
1,0.666666667,1,0,0,2015,3,
1,0.666666667,0,0,1,2016,3,
1,0.666666667,1,0,0,2017,3,
1,0.666666667,1,1,1,2018,3,
1,0.666666667,1,1,1,2019,3,
1,0.666666667,0,1,0,2020,3,
1,0.666666667,1,1,1,2021,3,
1,0.666666667,0,0,1,2022,3,
1,0.666666667,1,1,1,2023,3,
1,0.666666667,1,1,1,2024,3,
1,0.666666667,0,0,1,2025,3,
1,0.666666667,1,1,1,2026,3,
1,0.666666667,1,0,0,2027,3,
1,0.666666667,0,0,1,2028,3,
1,0.666666667,1,1,1,2029,3,
1,0.666666667,1,0,0,2030,3,
1,0.666666667,1,1,1,2031,3,
1,0.666666667,0,0,1,2032,3,
1,0.666666667,1,0,0,2033,3,
1,0.666666667,0,0,1,2034,3,
1,0.666666667,0,0,1,2035,3,
1,0.666666667,1,1,1,2036,3,
1,0.666666667,0,1,0,2037,3,
1,0.666666667,0,0,1,2038,3,
1,0.666666667,1,1,1,2039,3,
1,0.666666667,0,1,0,2040,3,
1,0.666666667,0,0,1,2041,3,
1,0.666666667,1,0,0,2042,3,
1,0.666666667,0,0,1,2043,3,
1,0.666666667,1,1,1,2044,3,
1,0.666666667,0,0,1,2045,3,
1,0.666666667,0,0,1,2046,3,
1,0.666666667,1,1,1,2047,3,
1,0.666666667,0,1,0,2048,3,
1,0.666666667,0,1,0,2049,3,
1,0.666666667,1,0,0,2050,3,
1,0.666666667,0,0,1,2051,3,
1,0.666666667,1,1,1,2052,3,
1,0.666666667,0,0,1,2053,3,
1,0.666666667,0,1,0,2054,3,
1,0.666666667,1,1,1,2055,3,
1,0.666666667,1,0,0,2056,3,
1,0.666666667,1,0,0,2057,3,
1,0.666666667,0,1,0,2058,3,
1,0.666666667,1,1,1,2059,3,
1,0.666666667,0,1,0,2060,3,
1,0.666666667,1,0,0,2061,3,
1,0.666666667,0,1,0,2062,3,
1,0.666666667,0,0,1,2063,3,
1,0.666666667,0,0,1,2064,3,
1,0.666666667,0,0,1,2065,3,
1,0.666666667,1,1,1,2066,3,
1,0.666666667,0,0,1,2067,3,
1,0.666666667,0,0,1,2068,3,
1,0.666666667,1,1,1,2069,3,
1,0.666666667,0,1,0,2070,3,
1,0.666666667,1,1,1,2071,3,
1,0.666666667,0,0,1,2072,3,
1,0.666666667,1,1,1,2073,3,
1,0.666666667,0,0,1,2074,3,
1,0.666666667,0,0,1,2075,3,
1,0.666666667,1,1,1,2076,3,
1,0.666666667,0,1,0,2077,3,
1,0.666666667,0,0,1,2078,3,
1,0.666666667,0,0,1,2079,3,
1,0.666666667,1,1,1,2080,3,
1,0.666666667,1,1,1,2081,3,
1,0.666666667,1,0,0,2082,3,
1,0.666666667,1,1,1,2083,3,
1,0.666666667,0,0,1,2084,3,
1,0.666666667,1,0,0,2085,3,
1,0.666666667,0,1,0,2086,3,
1,0.666666667,1,1,1,2087,3,
1,0.666666667,1,0,0,2088,3,
1,0.666666667,0,0,1,2089,3,
1,0.666666667,1,1,1,2090,3,
1,0.666666667,0,1,0,2091,3,
1,0.666666667,1,0,0,2092,3,
1,0.666666667,1,0,0,2093,3,
1,0.666666667,0,0,1,2094,3,
1,0.666666667,1,0,0,2095,3,
1,0.666666667,0,1,0,2096,3,
1,0.666666667,0,0,1,2097,3,
1,0.666666667,1,0,0,2098,3,
1,0.666666667,1,0,0,2099,3,
1,0.666666667,1,0,0,2100,3,
1,0.666666667,0,0,1,2101,3,
1,0.666666667,0,0,1,2102,3,
1,0.666666667,1,0,0,2103,3,
1,0.666666667,1,1,1,2104,3,
1,0.666666667,0,1,0,2105,3,
1,0.666666667,1,0,0,2106,3,
1,0.666666667,1,0,0,2107,3,
1,0.666666667,0,0,1,2108,3,
1,0.666666667,1,1,1,2109,3,
1,0.666666667,1,0,0,2110,3,
1,0.666666667,0,0,1,2111,3,
1,0.666666667,1,1,1,2112,3,
1,0.666666667,1,1,1,2113,3,
1,0.666666667,1,1,1,2114,3,
1,0.666666667,0,0,1,2115,3,
1,0.666666667,0,0,1,2116,3,
1,0.666666667,1,1,1,2117,3,
1,0.666666667,1,1,1,2118,3,
1,0.666666667,0,0,1,2119,3,
1,0.666666667,0,0,1,2120,3,
1,0.666666667,0,1,0,2121,3,
1,0.666666667,1,1,1,2122,3,
1,0.666666667,1,1,1,2123,3,
1,0.666666667,1,1,1,2124,3,
1,0.666666667,1,1,1,2125,3,
1,0.666666667,1,1,1,2126,3,
1,0.666666667,0,0,1,2127,3,
1,0.666666667,1,1,1,2128,3,
1,0.666666667,0,1,0,2129,3,
1,0.666666667,0,0,1,2130,3,
1,0.666666667,0,0,1,2131,3,
1,0.666666667,1,1,1,2132,3,
1,0.666666667,0,1,0,2133,3,
1,0.666666667,0,0,1,2134,3,
1,0.666666667,0,1,0,2135,3,
1,0.666666667,0,1,0,2136,3,
1,0.666666667,1,0,0,2137,3,
1,0.666666667,0,0,1,2138,3,
1,0.666666667,1,1,1,2139,3,
1,0.666666667,1,1,1,2140,3,
1,0.666666667,0,0,1,2141,3,
1,0.666666667,1,1,1,2142,3,
1,0.666666667,1,1,1,2143,3,
1,0.666666667,0,1,0,2144,3,
1,0.666666667,0,1,0,2145,3,
1,0.666666667,0,1,0,2146,3,
1,0.666666667,0,0,1,2147,3,
1,0.666666667,1,0,0,2148,3,
1,0.666666667,0,1,0,2149,3,
1,0.666666667,0,1,0,2150,3,
1,0.666666667,0,0,1,2151,3,
1,0.666666667,1,1,1,2152,3,
1,0.666666667,1,1,1,2153,3,
1,0.666666667,1,0,0,2154,3,
1,0.666666667,0,1,0,2155,3,
1,0.666666667,0,0,1,2156,3,
1,0.666666667,1,1,1,2157,3,
1,0.666666667,0,1,0,2158,3,
1,0.666666667,0,1,0,2159,3,
1,0.666666667,1,1,1,2160,3,
1,0.666666667,0,0,1,2161,3,
1,0.666666667,0,0,1,2162,3,
1,0.666666667,0,0,1,2163,3,
1,0.666666667,0,1,0,2164,3,
1,0.666666667,0,0,1,2165,3,
1,0.666666667,1,1,1,2166,3,
1,0.666666667,1,1,1,2167,3,
1,0.666666667,0,1,0,2168,3,
1,0.666666667,0,1,0,2169,3,
1,0.666666667,0,0,1,2170,3,
1,0.666666667,1,1,1,2171,3,
1,0.666666667,1,1,1,2172,3,
1,0.666666667,1,1,1,2173,3,
1,0.666666667,1,1,1,2174,3,
1,0.666666667,1,0,0,2175,3,
1,0.666666667,1,1,1,2176,3,
1,0.666666667,1,1,1,2177,3,
1,0.666666667,0,1,0,2178,3,
1,0.666666667,1,1,1,2179,3,
1,0.666666667,1,0,0,2180,3,
1,0.666666667,1,1,1,2181,3,
1,0.666666667,0,1,0,2182,3,
1,0.666666667,0,0,1,2183,3,
1,0.666666667,0,1,0,2184,3,
1,0.666666667,1,1,1,2185,3,
1,0.666666667,0,1,0,2186,3,
1,0.666666667,0,0,1,2187,3,
1,0.666666667,1,1,1,2188,3,
1,0.666666667,0,0,1,2189,3,
1,0.666666667,0,1,0,2190,3,
1,0.666666667,1,1,1,2191,3,
1,0.666666667,1,1,1,2192,3,
1,0.666666667,0,0,1,2193,3,
1,0.666666667,0,1,0,2194,3,
1,0.666666667,0,0,1,2195,3,
1,0.666666667,1,1,1,2196,3,
1,0.666666667,0,1,0,2197,3,
1,0.666666667,1,1,1,2198,3,
1,0.666666667,1,1,1,2199,3,
1,0.666666667,0,0,1,2200,3,
1,0.666666667,1,1,1,2201,3,
1,0.666666667,1,1,1,2202,3,
1,0.666666667,1,0,0,2203,3,
1,0.666666667,0,0,1,2204,3,
1,0.666666667,1,1,1,2205,3,
1,0.666666667,1,0,0,2206,3,
1,0.666666667,1,1,1,2207,3,
1,0.666666667,1,1,1,2208,3,
1,0.666666667,0,0,1,2209,3,
1,0.666666667,1,1,1,2210,3,
1,0.666666667,1,1,1,2211,3,
1,0.666666667,0,1,0,2212,3,
1,0.666666667,0,0,1,2213,3,
1,0.666666667,0,0,1,2214,3,
1,0.666666667,1,0,0,2215,3,
1,0.666666667,0,0,1,2216,3,
1,0.666666667,0,1,0,2217,3,
1,0.666666667,1,0,0,2218,3,
1,0.666666667,0,0,1,2219,3,
1,0.666666667,1,0,0,2220,3,
1,0.666666667,1,1,1,2221,3,
1,0.666666667,1,1,1,2222,3,
1,0.666666667,1,1,1,2223,3,
1,0.666666667,0,0,1,2224,3,
1,0.666666667,1,1,1,2225,3,
1,0.666666667,1,0,0,2226,3,
1,0.666666667,0,0,1,2227,3,
1,0.666666667,1,0,0,2228,3,
1,0.666666667,0,1,0,2229,3,
1,0.666666667,0,0,1,2230,3,
1,0.666666667,1,1,1,2231,3,
1,0.666666667,0,1,0,2232,3,
1,0.666666667,0,0,1,2233,3,
1,0.666666667,0,0,1,2234,3,
1,0.666666667,0,1,0,2235,3,
1,0.666666667,0,0,1,2236,3,
1,0.666666667,1,0,0,2237,3,
1,0.666666667,0,1,0,2238,3,
1,0.666666667,1,0,0,2239,3,
1,0.666666667,1,0,0,2240,3,
1,0.666666667,0,0,1,2241,3,
1,0.666666667,0,1,0,2242,3,
1,0.666666667,0,1,0,2243,3,
1,0.666666667,1,0,0,2244,3,
1,0.666666667,1,1,1,2245,3,
1,0.666666667,1,1,1,2246,3,
1,0.666666667,1,1,1,2247,3,
1,0.666666667,0,1,0,2248,3,
1,0.666666667,1,0,0,2249,3,
1,0.666666667,0,1,0,2250,3,
1,0.666666667,0,0,1,2251,3,
1,0.666666667,0,0,1,2252,3,
1,0.666666667,0,1,0,2253,3,
1,0.666666667,0,0,1,2254,3,
1,0.666666667,1,0,0,2255,3,
1,0.666666667,1,1,1,2256,3,
1,0.666666667,1,1,1,2257,3,
1,0.666666667,1,1,1,2258,3,
1,0.666666667,1,1,1,2259,3,
1,0.666666667,1,1,1,2260,3,
1,0.666666667,1,1,1,2261,3,
1,0.666666667,1,1,1,2262,3,
1,0.666666667,1,0,0,2263,3,
1,0.666666667,0,0,1,2264,3,
1,0.666666667,0,0,1,2265,3,
1,0.666666667,0,1,0,2266,3,
1,0.666666667,0,0,1,2267,3,
1,0.666666667,0,1,0,2268,3,
1,0.666666667,0,0,1,2269,3,
1,0.666666667,1,1,1,2270,3,
1,0.666666667,0,1,0,2271,3,
1,0.666666667,1,0,0,2272,3,
1,0.666666667,0,0,1,2273,3,
1,0.666666667,1,1,1,2274,3,
1,0.666666667,1,1,1,2275,3,
1,0.666666667,0,0,1,2276,3,
1,0.666666667,0,1,0,2277,3,
1,0.666666667,1,0,0,2278,3,
1,0.666666667,0,0,1,2279,3,
1,0.666666667,0,0,1,2280,3,
1,0.666666667,0,0,1,2281,3,
1,0.666666667,0,1,0,2282,3,
1,0.666666667,1,1,1,2283,3,
1,0.666666667,1,1,1,2284,3,
1,0.666666667,1,1,1,2285,3,
1,0.666666667,0,0,1,2286,3,
1,0.666666667,0,1,0,2287,3,
1,0.666666667,1,1,1,2288,3,
1,0.666666667,1,0,0,2289,3,
1,0.666666667,1,0,0,2290,3,
1,0.666666667,1,1,1,2291,3,
1,0.666666667,1,1,1,2292,3,
1,0.666666667,0,0,1,2293,3,
1,0.666666667,1,1,1,2294,3,
1,0.666666667,0,0,1,2295,3,
1,0.666666667,0,0,1,2296,3,
1,0.666666667,1,1,1,2297,3,
1,0.666666667,0,1,0,2298,3,
1,0.666666667,0,1,0,2299,3,
1,0.666666667,1,1,1,2300,3,
1,0.666666667,1,1,1,2301,3,
1,0.666666667,1,1,1,2302,3,
1,0.666666667,0,0,1,2303,3,
1,0.666666667,0,1,0,2304,3,
1,0.666666667,0,1,0,2305,3,
1,0.666666667,1,0,0,2306,3,
1,0.666666667,1,1,1,2307,3,
1,0.666666667,0,0,1,2308,3,
1,0.666666667,0,0,1,2309,3,
1,0.666666667,1,0,0,2310,3,
1,0.666666667,0,0,1,2311,3,
1,0.666666667,0,0,1,2312,3,
1,0.666666667,0,0,1,2313,3,
1,0.666666667,0,0,1,2314,3,
1,0.666666667,1,1,1,2315,3,
1,0.666666667,1,1,1,2316,3,
1,0.666666667,0,1,0,2317,3,
1,0.666666667,0,0,1,2318,3,
1,0.666666667,1,1,1,2319,3,
1,0.666666667,0,1,0,2320,3,
1,0.666666667,0,1,0,2321,3,
1,0.666666667,0,0,1,2322,3,
1,0.666666667,0,0,1,2323,3,
1,0.666666667,1,1,1,2324,3,
1,0.666666667,1,1,1,2325,3,
1,0.666666667,0,1,0,2326,3,
1,0.666666667,0,0,1,2327,3,
1,0.666666667,1,1,1,2328,3,
1,0.666666667,1,1,1,2329,3,
1,0.666666667,0,0,1,2330,3,
1,0.666666667,1,0,0,2331,3,
1,0.666666667,0,1,0,2332,3,
1,0.666666667,1,0,0,2333,3,
1,0.666666667,0,0,1,2334,3,
1,0.666666667,1,1,1,2335,3,
1,0.666666667,1,0,0,2336,3,
1,0.666666667,1,0,0,2337,3,
1,0.666666667,1,0,0,2338,3,
1,0.666666667,0,1,0,2339,3,
1,0.666666667,1,1,1,2340,3,
1,0.666666667,1,0,0,2341,3,
1,0.666666667,1,1,1,2342,3,
1,0.666666667,1,1,1,2343,3,
1,0.666666667,0,1,0,2344,3,
1,0.666666667,1,1,1,2345,3,
1,0.666666667,0,1,0,2346,3,
1,0.666666667,1,0,0,2347,3,
1,0.666666667,0,1,0,2348,3,
1,0.666666667,0,1,0,2349,3,
1,0.666666667,0,0,1,2350,3,
1,0.666666667,1,0,0,2351,3,
1,0.666666667,1,1,1,2352,3,
1,0.666666667,0,0,1,2353,3,
1,0.666666667,1,0,0,2354,3,
1,0.666666667,0,0,1,2355,3,
1,0.666666667,1,0,0,2356,3,
1,0.666666667,1,1,1,2357,3,
1,0.666666667,1,0,0,2358,3,
1,0.666666667,0,0,1,2359,3,
1,0.666666667,0,0,1,2360,3,
1,0.666666667,0,1,0,2361,3,
1,0.666666667,0,0,1,2362,3,
1,0.666666667,0,1,0,2363,3,
1,0.666666667,0,0,1,2364,3,
1,0.666666667,1,1,1,2365,3,
1,0.666666667,1,1,1,2366,3,
1,0.666666667,1,1,1,2367,3,
1,0.666666667,1,0,0,2368,3,
1,0.666666667,0,0,1,2369,3,
1,0.666666667,0,1,0,2370,3,
1,0.666666667,0,0,1,2371,3,
1,0.666666667,1,0,0,2372,3,
1,0.666666667,1,1,1,2373,3,
1,0.666666667,0,0,1,2374,3,
1,0.666666667,0,0,1,2375,3,
1,0.666666667,0,0,1,2376,3,
1,0.666666667,1,1,1,2377,3,
1,0.666666667,0,0,1,2378,3,
1,0.666666667,0,0,1,2379,3,
1,0.666666667,1,1,1,2380,3,
1,0.666666667,1,0,0,2381,3,
1,0.666666667,1,0,0,2382,3,
1,0.666666667,1,0,0,2383,3,
1,0.666666667,0,0,1,2384,3,
1,0.666666667,0,1,0,2385,3,
1,0.666666667,0,1,0,2386,3,
1,0.666666667,1,1,1,2387,3,
1,0.666666667,1,0,0,2388,3,
1,0.666666667,1,1,1,2389,3,
1,0.666666667,1,1,1,2390,3,
1,0.666666667,1,1,1,2391,3,
1,0.666666667,0,1,0,2392,3,
1,0.666666667,1,0,0,2393,3,
1,0.666666667,1,1,1,2394,3,
1,0.666666667,0,0,1,2395,3,
1,0.666666667,0,1,0,2396,3,
1,0.666666667,0,0,1,2397,3,
1,0.666666667,1,1,1,2398,3,
1,0.666666667,1,1,1,2399,3,
1,0.666666667,0,0,1,2400,3,
1,0.666666667,0,1,0,2401,3,
1,0.666666667,0,0,1,2402,3,
1,0.666666667,1,1,1,2403,3,
1,0.666666667,0,0,1,2404,3,
1,0.666666667,1,1,1,2405,3,
1,0.666666667,0,0,1,2406,3,
1,0.666666667,1,1,1,2407,3,
1,0.666666667,1,1,1,2408,3,
1,0.666666667,1,1,1,2409,3,
1,0.666666667,0,1,0,2410,3,
1,0.666666667,1,1,1,2411,3,
1,0.666666667,0,1,0,2412,3,
1,0.666666667,1,0,0,2413,3,
1,0.666666667,0,0,1,2414,3,
1,0.666666667,0,0,1,2415,3,
1,0.666666667,0,0,1,2416,3,
1,0.666666667,1,0,0,2417,3,
1,0.666666667,1,1,1,2418,3,
1,0.666666667,0,1,0,2419,3,
1,0.666666667,0,0,1,2420,3,
1,0.666666667,1,1,1,2421,3,
1,0.666666667,0,1,0,2422,3,
1,0.666666667,1,1,1,2423,3,
1,0.666666667,0,1,0,2424,3,
1,0.666666667,0,1,0,2425,3,
1,0.666666667,0,0,1,2426,3,
1,0.666666667,0,0,1,2427,3,
1,0.666666667,0,0,1,2428,3,
1,0.666666667,0,0,1,2429,3,
1,0.666666667,1,1,1,2430,3,
1,0.666666667,1,1,1,2431,3,
1,0.666666667,1,1,1,2432,3,
1,0.666666667,0,0,1,2433,3,
1,0.666666667,1,1,1,2434,3,
1,0.666666667,1,1,1,2435,3,
1,0.666666667,0,0,1,2436,3,
1,0.666666667,0,0,1,2437,3,
1,0.666666667,0,1,0,2438,3,
1,0.666666667,0,0,1,2439,3,
1,0.666666667,0,0,1,2440,3,
1,0.666666667,1,0,0,2441,3,
1,0.666666667,1,1,1,2442,3,
1,0.666666667,0,1,0,2443,3,
1,0.666666667,0,1,0,2444,3,
1,0.666666667,0,0,1,2445,3,
1,0.666666667,1,0,0,2446,3,
1,0.666666667,1,1,1,2447,3,
1,0.666666667,1,1,1,2448,3,
1,0.666666667,1,0,0,2449,3,
1,0.666666667,0,0,1,2450,3,
1,0.666666667,1,1,1,2451,3,
1,0.666666667,1,1,1,2452,3,
1,0.666666667,1,1,1,2453,3,
1,0.666666667,0,1,0,2454,3,
1,0.666666667,0,0,1,2455,3,
1,0.666666667,1,0,0,2456,3,
1,0.666666667,1,0,0,2457,3,
1,0.666666667,1,1,1,2458,3,
1,0.666666667,0,0,1,2459,3,
1,0.666666667,0,1,0,2460,3,
1,0.666666667,0,0,1,2461,3,
1,0.666666667,1,1,1,2462,3,
1,0.666666667,1,1,1,2463,3,
1,0.666666667,0,1,0,2464,3,
1,0.666666667,0,0,1,2465,3,
1,0.666666667,0,1,0,2466,3,
1,0.666666667,1,0,0,2467,3,
1,0.666666667,0,1,0,2468,3,
1,0.666666667,0,1,0,2469,3,
1,0.666666667,0,0,1,2470,3,
1,0.666666667,0,1,0,2471,3,
1,0.666666667,1,0,0,2472,3,
1,0.666666667,1,0,0,2473,3,
1,0.666666667,0,0,1,2474,3,
1,0.666666667,0,0,1,2475,3,
1,0.666666667,0,1,0,2476,3,
1,0.666666667,0,0,1,2477,3,
1,0.666666667,0,0,1,2478,3,
1,0.666666667,0,1,0,2479,3,
1,0.666666667,1,1,1,2480,3,
1,0.666666667,0,1,0,2481,3,
1,0.666666667,0,0,1,2482,3,
1,0.666666667,1,0,0,2483,3,
1,0.666666667,0,0,1,2484,3,
1,0.666666667,1,1,1,2485,3,
1,0.666666667,1,1,1,2486,3,
1,0.666666667,0,0,1,2487,3,
1,0.666666667,0,0,1,2488,3,
1,0.666666667,1,1,1,2489,3,
1,0.666666667,0,0,1,2490,3,
1,0.666666667,1,1,1,2491,3,
1,0.666666667,1,1,1,2492,3,
1,0.666666667,1,1,1,2493,3,
1,0.666666667,1,1,1,2494,3,
1,0.666666667,1,1,1,2495,3,
1,0.666666667,1,0,0,2496,3,
1,0.666666667,1,1,1,2497,3,
1,0.666666667,1,1,1,2498,3,
1,0.666666667,1,1,1,2499,3,
1,0.666666667,0,0,1,2500,3,
1,0.666666667,1,1,1,2501,3,
1,0.666666667,0,0,1,2502,3,
1,0.666666667,0,0,1,2503,3,
1,0.666666667,0,0,1,2504,3,
1,0.666666667,1,1,1,2505,3,
1,0.666666667,0,1,0,2506,3,
1,0.666666667,0,0,1,2507,3,
1,0.666666667,0,0,1,2508,3,
1,0.666666667,0,1,0,2509,3,
1,0.666666667,1,0,0,2510,3,
1,0.666666667,1,0,0,2511,3,
1,0.666666667,1,0,0,2512,3,
1,0.666666667,1,1,1,2513,3,
1,0.666666667,1,1,1,2514,3,
1,0.666666667,0,0,1,2515,3,
1,0.666666667,1,1,1,2516,3,
1,0.666666667,0,1,0,2517,3,
1,0.666666667,1,1,1,2518,3,
1,0.666666667,0,1,0,2519,3,
1,0.666666667,0,0,1,2520,3,
1,0.666666667,0,1,0,2521,3,
1,0.666666667,0,0,1,2522,3,
1,0.666666667,0,0,1,2523,3,
1,0.666666667,1,0,0,2524,3,
1,0.666666667,1,0,0,2525,3,
1,0.666666667,1,0,0,2526,3,
1,0.666666667,0,1,0,2527,3,
1,0.666666667,1,1,1,2528,3,
1,0.666666667,0,1,0,2529,3,
1,0.666666667,0,0,1,2530,3,
1,0.666666667,1,1,1,2531,3,
1,0.666666667,1,0,0,2532,3,
1,0.666666667,1,0,0,2533,3,
1,0.666666667,0,1,0,2534,3,
1,0.666666667,1,1,1,2535,3,
1,0.666666667,1,1,1,2536,3,
1,0.666666667,1,0,0,2537,3,
1,0.666666667,1,1,1,2538,3,
1,0.666666667,1,1,1,2539,3,
1,0.666666667,0,0,1,2540,3,
1,0.666666667,1,1,1,2541,3,
1,0.666666667,0,1,0,2542,3,
1,0.666666667,0,0,1,2543,3,
1,0.666666667,0,1,0,2544,3,
1,0.666666667,1,1,1,2545,3,
1,0.666666667,1,1,1,2546,3,
1,0.666666667,1,1,1,2547,3,
1,0.666666667,1,0,0,2548,3,
1,0.666666667,1,1,1,2549,3,
1,0.666666667,1,1,1,2550,3,
1,0.666666667,0,0,1,2551,3,
1,0.666666667,1,0,0,2552,3,
1,0.666666667,1,1,1,2553,3,
1,0.666666667,0,0,1,2554,3,
1,0.666666667,0,0,1,2555,3,
1,0.666666667,0,0,1,2556,3,
1,0.666666667,0,0,1,2557,3,
1,0.666666667,0,1,0,2558,3,
1,0.666666667,1,0,0,2559,3,
1,0.666666667,0,1,0,2560,3,
1,0.666666667,0,1,0,2561,3,
1,0.666666667,0,0,1,2562,3,
1,0.666666667,1,0,0,2563,3,
1,0.666666667,1,1,1,2564,3,
1,0.666666667,0,1,0,2565,3,
1,0.666666667,1,0,0,2566,3,
1,0.666666667,1,1,1,2567,3,
1,0.666666667,1,0,0,2568,3,
1,0.666666667,1,1,1,2569,3,
1,0.666666667,1,0,0,2570,3,
1,0.666666667,0,0,1,2571,3,
1,0.666666667,1,1,1,2572,3,
1,0.666666667,1,1,1,2573,3,
1,0.666666667,1,0,0,2574,3,
1,0.666666667,1,1,1,2575,3,
1,0.666666667,1,0,0,2576,3,
1,0.666666667,1,1,1,2577,3,
1,0.666666667,1,0,0,2578,3,
1,0.666666667,1,1,1,2579,3,
1,0.666666667,0,1,0,2580,3,
1,0.666666667,0,0,1,2581,3,
1,0.666666667,0,0,1,2582,3,
1,0.666666667,0,0,1,2583,3,
1,0.666666667,0,1,0,2584,3,
1,0.666666667,0,0,1,2585,3,
1,0.666666667,0,1,0,2586,3,
1,0.666666667,0,0,1,2587,3,
1,0.666666667,0,0,1,2588,3,
1,0.666666667,0,0,1,2589,3,
1,0.666666667,0,0,1,2590,3,
1,0.666666667,1,0,0,2591,3,
1,0.666666667,0,0,1,2592,3,
1,0.666666667,1,0,0,2593,3,
1,0.666666667,1,0,0,2594,3,
1,0.666666667,0,0,1,2595,3,
1,0.666666667,1,1,1,2596,3,
1,0.666666667,0,1,0,2597,3,
1,0.666666667,0,0,1,2598,3,
1,0.666666667,0,1,0,2599,3,
1,0.666666667,0,0,1,2600,3,
1,0.666666667,1,1,1,2601,3,
1,0.666666667,1,0,0,2602,3,
1,0.666666667,1,0,0,2603,3,
1,0.666666667,0,0,1,2604,3,
1,0.666666667,1,1,1,2605,3,
1,0.666666667,1,1,1,2606,3,
1,0.666666667,1,1,1,2607,3,
1,0.666666667,1,0,0,2608,3,
1,0.666666667,0,0,1,2609,3,
1,0.666666667,0,0,1,2610,3,
1,0.666666667,0,0,1,2611,3,
1,0.666666667,1,1,1,2612,3,
1,0.666666667,1,1,1,2613,3,
1,0.666666667,1,1,1,2614,3,
1,0.666666667,0,0,1,2615,3,
1,0.666666667,1,1,1,2616,3,
1,0.666666667,1,0,0,2617,3,
1,0.666666667,1,1,1,2618,3,
1,0.666666667,1,1,1,2619,3,
1,0.666666667,0,0,1,2620,3,
1,0.666666667,0,0,1,2621,3,
1,0.666666667,1,0,0,2622,3,
1,0.666666667,0,0,1,2623,3,
1,0.666666667,1,1,1,2624,3,
1,0.666666667,1,1,1,2625,3,
1,0.666666667,1,1,1,2626,3,
1,0.666666667,1,1,1,2627,3,
1,0.666666667,0,0,1,2628,3,
1,0.666666667,0,1,0,2629,3,
1,0.666666667,0,0,1,2630,3,
1,0.666666667,0,0,1,2631,3,
1,0.666666667,0,1,0,2632,3,
1,0.666666667,0,0,1,2633,3,
1,0.666666667,0,0,1,2634,3,
1,0.666666667,1,1,1,2635,3,
1,0.666666667,1,1,1,2636,3,
1,0.666666667,0,0,1,2637,3,
1,0.666666667,1,0,0,2638,3,
1,0.666666667,1,1,1,2639,3,
1,0.666666667,0,0,1,2640,3,
1,0.666666667,0,0,1,2641,3,
1,0.666666667,0,0,1,2642,3,
1,0.666666667,0,1,0,2643,3,
1,0.666666667,1,1,1,2644,3,
1,0.666666667,1,0,0,2645,3,
1,0.666666667,0,1,0,2646,3,
1,0.666666667,1,0,0,2647,3,
1,0.666666667,1,0,0,2648,3,
1,0.666666667,1,1,1,2649,3,
1,0.666666667,1,0,0,2650,3,
1,0.666666667,0,0,1,2651,3,
1,0.666666667,1,1,1,2652,3,
1,0.666666667,0,0,1,2653,3,
1,0.666666667,0,1,0,2654,3,
1,0.666666667,1,1,1,2655,3,
1,0.666666667,0,0,1,2656,3,
1,0.666666667,1,0,0,2657,3,
1,0.666666667,0,0,1,2658,3,
1,0.666666667,0,1,0,2659,3,
1,0.666666667,0,0,1,2660,3,
1,0.666666667,1,0,0,2661,3,
1,0.666666667,0,0,1,2662,3,
1,0.666666667,1,1,1,2663,3,
1,0.666666667,1,0,0,2664,3,
1,0.666666667,0,1,0,2665,3,
1,0.666666667,1,1,1,2666,3,
1,0.666666667,0,0,1,2667,3,
1,0.666666667,0,0,1,2668,3,
1,0.666666667,0,1,0,2669,3,
1,0.666666667,0,0,1,2670,3,
1,0.666666667,1,0,0,2671,3,
1,0.666666667,1,1,1,2672,3,
1,0.666666667,1,1,1,2673,3,
1,0.666666667,0,1,0,2674,3,
1,0.666666667,0,0,1,2675,3,
1,0.666666667,1,0,0,2676,3,
1,0.666666667,0,1,0,2677,3,
1,0.666666667,1,1,1,2678,3,
1,0.666666667,0,1,0,2679,3,
1,0.666666667,0,0,1,2680,3,
1,0.666666667,0,0,1,2681,3,
1,0.666666667,1,1,1,2682,3,
1,0.666666667,1,1,1,2683,3,
1,0.666666667,0,0,1,2684,3,
1,0.666666667,1,0,0,2685,3,
1,0.666666667,0,0,1,2686,3,
1,0.666666667,0,0,1,2687,3,
1,0.666666667,1,0,0,2688,3,
1,0.666666667,1,1,1,2689,3,
1,0.666666667,1,1,1,2690,3,
1,0.666666667,0,0,1,2691,3,
1,0.666666667,1,1,1,2692,3,
1,0.666666667,1,1,1,2693,3,
1,0.666666667,1,1,1,2694,3,
1,0.666666667,1,0,0,2695,3,
1,0.666666667,1,0,0,2696,3,
1,0.666666667,0,0,1,2697,3,
1,0.666666667,0,0,1,2698,3,
1,0.666666667,1,1,1,2699,3,
1,0.666666667,0,0,1,2700,3,
1,1,0,0,1,2701,4,
1,1,1,1,1,2702,4,
1,1,0,0,1,2703,4,
1,1,1,0,0,2704,4,
1,1,1,1,1,2705,4,
1,1,1,0,0,2706,4,
1,1,0,0,1,2707,4,
1,1,0,0,1,2708,4,
1,1,1,1,1,2709,4,
1,1,1,1,1,2710,4,
1,1,0,0,1,2711,4,
1,1,1,1,1,2712,4,
1,1,1,1,1,2713,4,
1,1,0,0,1,2714,4,
1,1,0,0,1,2715,4,
1,1,0,1,0,2716,4,
1,1,1,0,0,2717,4,
1,1,0,0,1,2718,4,
1,1,1,1,1,2719,4,
1,1,0,1,0,2720,4,
1,1,0,0,1,2721,4,
1,1,1,1,1,2722,4,
1,1,1,1,1,2723,4,
1,1,1,0,0,2724,4,
1,1,1,1,1,2725,4,
1,1,1,1,1,2726,4,
1,1,0,0,1,2727,4,
1,1,1,1,1,2728,4,
1,1,0,1,0,2729,4,
1,1,1,0,0,2730,4,
1,1,1,0,0,2731,4,
1,1,0,0,1,2732,4,
1,1,0,0,1,2733,4,
1,1,0,0,1,2734,4,
1,1,0,1,0,2735,4,
1,1,0,1,0,2736,4,
1,1,0,0,1,2737,4,
1,1,1,1,1,2738,4,
1,1,0,0,1,2739,4,
1,1,1,1,1,2740,4,
1,1,1,1,1,2741,4,
1,1,0,0,1,2742,4,
1,1,1,1,1,2743,4,
1,1,0,0,1,2744,4,
1,1,0,0,1,2745,4,
1,1,0,1,0,2746,4,
1,1,0,0,1,2747,4,
1,1,0,1,0,2748,4,
1,1,1,1,1,2749,4,
1,1,0,0,1,2750,4,
1,1,0,0,1,2751,4,
1,1,1,1,1,2752,4,
1,1,1,1,1,2753,4,
1,1,1,1,1,2754,4,
1,1,0,0,1,2755,4,
1,1,1,1,1,2756,4,
1,1,1,1,1,2757,4,
1,1,1,1,1,2758,4,
1,1,1,1,1,2759,4,
1,1,0,0,1,2760,4,
1,1,1,0,0,2761,4,
1,1,1,0,0,2762,4,
1,1,1,1,1,2763,4,
1,1,0,0,1,2764,4,
1,1,1,1,1,2765,4,
1,1,1,1,1,2766,4,
1,1,0,0,1,2767,4,
1,1,0,0,1,2768,4,
1,1,1,1,1,2769,4,
1,1,0,1,0,2770,4,
1,1,1,0,0,2771,4,
1,1,0,0,1,2772,4,
1,1,0,1,0,2773,4,
1,1,1,0,0,2774,4,
1,1,1,1,1,2775,4,
1,1,0,0,1,2776,4,
1,1,1,1,1,2777,4,
1,1,1,1,1,2778,4,
1,1,1,1,1,2779,4,
1,1,0,1,0,2780,4,
1,1,1,1,1,2781,4,
1,1,1,1,1,2782,4,
1,1,1,1,1,2783,4,
1,1,1,1,1,2784,4,
1,1,1,0,0,2785,4,
1,1,0,0,1,2786,4,
1,1,0,0,1,2787,4,
1,1,0,0,1,2788,4,
1,1,1,0,0,2789,4,
1,1,1,1,1,2790,4,
1,1,1,1,1,2791,4,
1,1,0,0,1,2792,4,
1,1,0,0,1,2793,4,
1,1,0,0,1,2794,4,
1,1,0,0,1,2795,4,
1,1,1,1,1,2796,4,
1,1,0,0,1,2797,4,
1,1,0,0,1,2798,4,
1,1,1,1,1,2799,4,
1,1,1,0,0,2800,4,
1,1,0,1,0,2801,4,
1,1,0,0,1,2802,4,
1,1,1,0,0,2803,4,
1,1,0,0,1,2804,4,
1,1,1,1,1,2805,4,
1,1,0,1,0,2806,4,
1,1,0,0,1,2807,4,
1,1,1,1,1,2808,4,
1,1,0,1,0,2809,4,
1,1,1,1,1,2810,4,
1,1,1,1,1,2811,4,
1,1,0,1,0,2812,4,
1,1,0,0,1,2813,4,
1,1,1,0,0,2814,4,
1,1,1,0,0,2815,4,
1,1,0,1,0,2816,4,
1,1,0,0,1,2817,4,
1,1,0,1,0,2818,4,
1,1,1,1,1,2819,4,
1,1,1,0,0,2820,4,
1,1,1,1,1,2821,4,
1,1,1,1,1,2822,4,
1,1,0,0,1,2823,4,
1,1,0,0,1,2824,4,
1,1,1,1,1,2825,4,
1,1,0,0,1,2826,4,
1,1,1,1,1,2827,4,
1,1,0,0,1,2828,4,
1,1,1,1,1,2829,4,
1,1,0,0,1,2830,4,
1,1,1,1,1,2831,4,
1,1,0,0,1,2832,4,
1,1,0,0,1,2833,4,
1,1,0,0,1,2834,4,
1,1,1,0,0,2835,4,
1,1,1,0,0,2836,4,
1,1,0,0,1,2837,4,
1,1,0,0,1,2838,4,
1,1,1,1,1,2839,4,
1,1,0,0,1,2840,4,
1,1,0,0,1,2841,4,
1,1,0,0,1,2842,4,
1,1,0,1,0,2843,4,
1,1,0,0,1,2844,4,
1,1,1,1,1,2845,4,
1,1,0,0,1,2846,4,
1,1,1,1,1,2847,4,
1,1,1,1,1,2848,4,
1,1,0,0,1,2849,4,
1,1,1,1,1,2850,4,
1,1,1,1,1,2851,4,
1,1,1,1,1,2852,4,
1,1,1,1,1,2853,4,
1,1,0,1,0,2854,4,
1,1,1,1,1,2855,4,
1,1,1,0,0,2856,4,
1,1,1,1,1,2857,4,
1,1,1,1,1,2858,4,
1,1,1,0,0,2859,4,
1,1,1,1,1,2860,4,
1,1,1,1,1,2861,4,
1,1,1,1,1,2862,4,
1,1,0,1,0,2863,4,
1,1,1,1,1,2864,4,
1,1,0,0,1,2865,4,
1,1,1,1,1,2866,4,
1,1,0,0,1,2867,4,
1,1,0,0,1,2868,4,
1,1,0,1,0,2869,4,
1,1,0,0,1,2870,4,
1,1,1,1,1,2871,4,
1,1,1,1,1,2872,4,
1,1,1,1,1,2873,4,
1,1,0,1,0,2874,4,
1,1,0,1,0,2875,4,
1,1,0,0,1,2876,4,
1,1,1,0,0,2877,4,
1,1,1,1,1,2878,4,
1,1,1,0,0,2879,4,
1,1,1,1,1,2880,4,
1,1,0,0,1,2881,4,
1,1,1,1,1,2882,4,
1,1,0,0,1,2883,4,
1,1,0,1,0,2884,4,
1,1,0,0,1,2885,4,
1,1,0,1,0,2886,4,
1,1,1,1,1,2887,4,
1,1,0,0,1,2888,4,
1,1,1,1,1,2889,4,
1,1,1,0,0,2890,4,
1,1,1,1,1,2891,4,
1,1,0,0,1,2892,4,
1,1,0,0,1,2893,4,
1,1,1,1,1,2894,4,
1,1,0,0,1,2895,4,
1,1,1,1,1,2896,4,
1,1,0,0,1,2897,4,
1,1,1,1,1,2898,4,
1,1,0,1,0,2899,4,
1,1,0,0,1,2900,4,
1,1,0,1,0,2901,4,
1,1,1,1,1,2902,4,
1,1,0,1,0,2903,4,
1,1,0,0,1,2904,4,
1,1,0,0,1,2905,4,
1,1,0,1,0,2906,4,
1,1,1,1,1,2907,4,
1,1,0,0,1,2908,4,
1,1,1,1,1,2909,4,
1,1,1,1,1,2910,4,
1,1,1,1,1,2911,4,
1,1,0,1,0,2912,4,
1,1,1,1,1,2913,4,
1,1,1,1,1,2914,4,
1,1,0,0,1,2915,4,
1,1,0,0,1,2916,4,
1,1,1,1,1,2917,4,
1,1,0,0,1,2918,4,
1,1,0,0,1,2919,4,
1,1,0,0,1,2920,4,
1,1,1,1,1,2921,4,
1,1,1,1,1,2922,4,
1,1,1,1,1,2923,4,
1,1,1,1,1,2924,4,
1,1,1,0,0,2925,4,
1,1,0,0,1,2926,4,
1,1,0,0,1,2927,4,
1,1,0,0,1,2928,4,
1,1,0,0,1,2929,4,
1,1,0,1,0,2930,4,
1,1,1,1,1,2931,4,
1,1,1,0,0,2932,4,
1,1,1,1,1,2933,4,
1,1,0,0,1,2934,4,
1,1,1,1,1,2935,4,
1,1,1,1,1,2936,4,
1,1,1,1,1,2937,4,
1,1,0,0,1,2938,4,
1,1,1,0,0,2939,4,
1,1,1,1,1,2940,4,
1,1,1,1,1,2941,4,
1,1,0,1,0,2942,4,
1,1,1,1,1,2943,4,
1,1,0,0,1,2944,4,
1,1,1,1,1,2945,4,
1,1,0,0,1,2946,4,
1,1,1,1,1,2947,4,
1,1,0,0,1,2948,4,
1,1,0,0,1,2949,4,
1,1,1,1,1,2950,4,
1,1,0,0,1,2951,4,
1,1,1,1,1,2952,4,
1,1,0,0,1,2953,4,
1,1,1,1,1,2954,4,
1,1,1,1,1,2955,4,
1,1,0,0,1,2956,4,
1,1,0,0,1,2957,4,
1,1,0,1,0,2958,4,
1,1,0,0,1,2959,4,
1,1,0,1,0,2960,4,
1,1,1,1,1,2961,4,
1,1,0,0,1,2962,4,
1,1,1,1,1,2963,4,
1,1,0,0,1,2964,4,
1,1,0,0,1,2965,4,
1,1,0,0,1,2966,4,
1,1,1,1,1,2967,4,
1,1,1,1,1,2968,4,
1,1,1,0,0,2969,4,
1,1,0,1,0,2970,4,
1,1,1,0,0,2971,4,
1,1,0,0,1,2972,4,
1,1,0,0,1,2973,4,
1,1,1,1,1,2974,4,
1,1,0,0,1,2975,4,
1,1,0,0,1,2976,4,
1,1,0,0,1,2977,4,
1,1,1,0,0,2978,4,
1,1,1,1,1,2979,4,
1,1,0,0,1,2980,4,
1,1,0,0,1,2981,4,
1,1,0,0,1,2982,4,
1,1,1,1,1,2983,4,
1,1,0,0,1,2984,4,
1,1,1,1,1,2985,4,
1,1,1,1,1,2986,4,
1,1,1,1,1,2987,4,
1,1,0,0,1,2988,4,
1,1,1,1,1,2989,4,
1,1,0,0,1,2990,4,
1,1,0,0,1,2991,4,
1,1,1,1,1,2992,4,
1,1,1,1,1,2993,4,
1,1,0,0,1,2994,4,
1,1,0,0,1,2995,4,
1,1,0,0,1,2996,4,
1,1,1,1,1,2997,4,
1,1,1,1,1,2998,4,
1,1,0,0,1,2999,4,
1,1,0,0,1,3000,4,
1,1,0,1,0,3001,4,
1,1,1,1,1,3002,4,
1,1,0,0,1,3003,4,
1,1,1,1,1,3004,4,
1,1,0,0,1,3005,4,
1,1,0,0,1,3006,4,
1,1,1,0,0,3007,4,
1,1,0,0,1,3008,4,
1,1,0,1,0,3009,4,
1,1,1,1,1,3010,4,
1,1,1,1,1,3011,4,
1,1,1,1,1,3012,4,
1,1,0,0,1,3013,4,
1,1,0,0,1,3014,4,
1,1,0,1,0,3015,4,
1,1,0,0,1,3016,4,
1,1,1,1,1,3017,4,
1,1,0,0,1,3018,4,
1,1,0,0,1,3019,4,
1,1,0,0,1,3020,4,
1,1,1,1,1,3021,4,
1,1,0,0,1,3022,4,
1,1,0,1,0,3023,4,
1,1,1,0,0,3024,4,
1,1,1,1,1,3025,4,
1,1,0,0,1,3026,4,
1,1,1,1,1,3027,4,
1,1,0,0,1,3028,4,
1,1,0,1,0,3029,4,
1,1,0,0,1,3030,4,
1,1,0,0,1,3031,4,
1,1,1,1,1,3032,4,
1,1,1,1,1,3033,4,
1,1,1,1,1,3034,4,
1,1,0,0,1,3035,4,
1,1,0,0,1,3036,4,
1,1,0,1,0,3037,4,
1,1,1,1,1,3038,4,
1,1,0,0,1,3039,4,
1,1,1,1,1,3040,4,
1,1,1,0,0,3041,4,
1,1,1,1,1,3042,4,
1,1,1,0,0,3043,4,
1,1,0,0,1,3044,4,
1,1,0,1,0,3045,4,
1,1,0,1,0,3046,4,
1,1,0,1,0,3047,4,
1,1,1,1,1,3048,4,
1,1,1,0,0,3049,4,
1,1,0,0,1,3050,4,
1,1,1,1,1,3051,4,
1,1,1,1,1,3052,4,
1,1,0,0,1,3053,4,
1,1,1,1,1,3054,4,
1,1,0,1,0,3055,4,
1,1,1,1,1,3056,4,
1,1,0,0,1,3057,4,
1,1,1,1,1,3058,4,
1,1,1,1,1,3059,4,
1,1,0,0,1,3060,4,
1,1,0,0,1,3061,4,
1,1,1,1,1,3062,4,
1,1,1,1,1,3063,4,
1,1,0,0,1,3064,4,
1,1,0,0,1,3065,4,
1,1,0,0,1,3066,4,
1,1,0,0,1,3067,4,
1,1,0,1,0,3068,4,
1,1,1,1,1,3069,4,
1,1,0,0,1,3070,4,
1,1,0,0,1,3071,4,
1,1,0,0,1,3072,4,
1,1,0,0,1,3073,4,
1,1,1,1,1,3074,4,
1,1,1,1,1,3075,4,
1,1,0,0,1,3076,4,
1,1,1,1,1,3077,4,
1,1,0,0,1,3078,4,
1,1,0,0,1,3079,4,
1,1,0,1,0,3080,4,
1,1,0,0,1,3081,4,
1,1,1,1,1,3082,4,
1,1,0,1,0,3083,4,
1,1,1,0,0,3084,4,
1,1,1,1,1,3085,4,
1,1,1,1,1,3086,4,
1,1,0,0,1,3087,4,
1,1,0,0,1,3088,4,
1,1,1,1,1,3089,4,
1,1,0,0,1,3090,4,
1,1,1,1,1,3091,4,
1,1,1,1,1,3092,4,
1,1,0,0,1,3093,4,
1,1,1,1,1,3094,4,
1,1,1,1,1,3095,4,
1,1,1,1,1,3096,4,
1,1,1,1,1,3097,4,
1,1,1,1,1,3098,4,
1,1,0,0,1,3099,4,
1,1,1,1,1,3100,4,
1,1,1,1,1,3101,4,
1,1,0,1,0,3102,4,
1,1,1,1,1,3103,4,
1,1,1,1,1,3104,4,
1,1,1,0,0,3105,4,
1,1,1,1,1,3106,4,
1,1,0,1,0,3107,4,
1,1,1,1,1,3108,4,
1,1,0,0,1,3109,4,
1,1,1,1,1,3110,4,
1,1,0,0,1,3111,4,
1,1,0,1,0,3112,4,
1,1,0,1,0,3113,4,
1,1,1,1,1,3114,4,
1,1,1,0,0,3115,4,
1,1,1,1,1,3116,4,
1,1,1,1,1,3117,4,
1,1,1,1,1,3118,4,
1,1,0,0,1,3119,4,
1,1,1,1,1,3120,4,
1,1,0,0,1,3121,4,
1,1,0,0,1,3122,4,
1,1,1,1,1,3123,4,
1,1,1,1,1,3124,4,
1,1,1,0,0,3125,4,
1,1,1,1,1,3126,4,
1,1,0,0,1,3127,4,
1,1,1,1,1,3128,4,
1,1,1,1,1,3129,4,
1,1,0,0,1,3130,4,
1,1,0,0,1,3131,4,
1,1,1,1,1,3132,4,
1,1,0,0,1,3133,4,
1,1,1,0,0,3134,4,
1,1,1,1,1,3135,4,
1,1,1,1,1,3136,4,
1,1,0,0,1,3137,4,
1,1,1,1,1,3138,4,
1,1,1,1,1,3139,4,
1,1,0,0,1,3140,4,
1,1,0,0,1,3141,4,
1,1,0,0,1,3142,4,
1,1,0,0,1,3143,4,
1,1,1,1,1,3144,4,
1,1,1,1,1,3145,4,
1,1,0,0,1,3146,4,
1,1,0,0,1,3147,4,
1,1,1,1,1,3148,4,
1,1,0,0,1,3149,4,
1,1,1,1,1,3150,4,
1,1,0,0,1,3151,4,
1,1,0,0,1,3152,4,
1,1,0,1,0,3153,4,
1,1,0,0,1,3154,4,
1,1,0,0,1,3155,4,
1,1,0,0,1,3156,4,
1,1,1,1,1,3157,4,
1,1,0,1,0,3158,4,
1,1,1,1,1,3159,4,
1,1,0,0,1,3160,4,
1,1,0,0,1,3161,4,
1,1,0,0,1,3162,4,
1,1,0,0,1,3163,4,
1,1,0,0,1,3164,4,
1,1,0,0,1,3165,4,
1,1,1,1,1,3166,4,
1,1,1,1,1,3167,4,
1,1,1,1,1,3168,4,
1,1,0,0,1,3169,4,
1,1,0,0,1,3170,4,
1,1,1,1,1,3171,4,
1,1,0,0,1,3172,4,
1,1,0,0,1,3173,4,
1,1,0,1,0,3174,4,
1,1,0,0,1,3175,4,
1,1,0,0,1,3176,4,
1,1,1,1,1,3177,4,
1,1,1,1,1,3178,4,
1,1,0,0,1,3179,4,
1,1,0,0,1,3180,4,
1,1,1,1,1,3181,4,
1,1,1,1,1,3182,4,
1,1,0,0,1,3183,4,
1,1,1,0,0,3184,4,
1,1,1,1,1,3185,4,
1,1,1,0,0,3186,4,
1,1,0,0,1,3187,4,
1,1,1,1,1,3188,4,
1,1,0,0,1,3189,4,
1,1,0,0,1,3190,4,
1,1,0,0,1,3191,4,
1,1,1,1,1,3192,4,
1,1,0,0,1,3193,4,
1,1,1,1,1,3194,4,
1,1,0,0,1,3195,4,
1,1,1,1,1,3196,4,
1,1,0,0,1,3197,4,
1,1,0,0,1,3198,4,
1,1,1,1,1,3199,4,
1,1,0,0,1,3200,4,
1,1,1,1,1,3201,4,
1,1,0,0,1,3202,4,
1,1,0,0,1,3203,4,
1,1,0,1,0,3204,4,
1,1,1,1,1,3205,4,
1,1,1,1,1,3206,4,
1,1,1,1,1,3207,4,
1,1,1,1,1,3208,4,
1,1,1,1,1,3209,4,
1,1,0,0,1,3210,4,
1,1,1,1,1,3211,4,
1,1,1,1,1,3212,4,
1,1,1,1,1,3213,4,
1,1,1,1,1,3214,4,
1,1,1,1,1,3215,4,
1,1,1,1,1,3216,4,
1,1,0,0,1,3217,4,
1,1,1,1,1,3218,4,
1,1,1,1,1,3219,4,
1,1,0,0,1,3220,4,
1,1,0,0,1,3221,4,
1,1,1,1,1,3222,4,
1,1,1,1,1,3223,4,
1,1,0,0,1,3224,4,
1,1,0,0,1,3225,4,
1,1,1,0,0,3226,4,
1,1,1,1,1,3227,4,
1,1,0,1,0,3228,4,
1,1,0,0,1,3229,4,
1,1,0,0,1,3230,4,
1,1,1,1,1,3231,4,
1,1,0,0,1,3232,4,
1,1,0,0,1,3233,4,
1,1,1,0,0,3234,4,
1,1,0,0,1,3235,4,
1,1,0,0,1,3236,4,
1,1,1,0,0,3237,4,
1,1,1,1,1,3238,4,
1,1,1,1,1,3239,4,
1,1,1,1,1,3240,4,
1,1,0,0,1,3241,4,
1,1,1,1,1,3242,4,
1,1,0,0,1,3243,4,
1,1,0,0,1,3244,4,
1,1,1,0,0,3245,4,
1,1,1,1,1,3246,4,
1,1,1,1,1,3247,4,
1,1,0,0,1,3248,4,
1,1,0,0,1,3249,4,
1,1,1,1,1,3250,4,
1,1,0,0,1,3251,4,
1,1,0,0,1,3252,4,
1,1,1,0,0,3253,4,
1,1,0,0,1,3254,4,
1,1,0,0,1,3255,4,
1,1,1,1,1,3256,4,
1,1,0,0,1,3257,4,
1,1,1,1,1,3258,4,
1,1,1,1,1,3259,4,
1,1,0,0,1,3260,4,
1,1,1,1,1,3261,4,
1,1,1,1,1,3262,4,
1,1,1,1,1,3263,4,
1,1,0,0,1,3264,4,
1,1,1,1,1,3265,4,
1,1,0,0,1,3266,4,
1,1,0,0,1,3267,4,
1,1,1,1,1,3268,4,
1,1,0,0,1,3269,4,
1,1,0,0,1,3270,4,
1,1,1,1,1,3271,4,
1,1,0,0,1,3272,4,
1,1,0,1,0,3273,4,
1,1,1,1,1,3274,4,
1,1,1,1,1,3275,4,
1,1,1,1,1,3276,4,
1,1,1,1,1,3277,4,
1,1,1,1,1,3278,4,
1,1,1,1,1,3279,4,
1,1,1,1,1,3280,4,
1,1,1,1,1,3281,4,
1,1,0,0,1,3282,4,
1,1,0,1,0,3283,4,
1,1,0,0,1,3284,4,
1,1,1,1,1,3285,4,
1,1,0,0,1,3286,4,
1,1,1,1,1,3287,4,
1,1,1,1,1,3288,4,
1,1,1,1,1,3289,4,
1,1,1,1,1,3290,4,
1,1,1,0,0,3291,4,
1,1,0,0,1,3292,4,
1,1,1,1,1,3293,4,
1,1,0,0,1,3294,4,
1,1,0,0,1,3295,4,
1,1,1,1,1,3296,4,
1,1,0,0,1,3297,4,
1,1,1,1,1,3298,4,
1,1,1,0,0,3299,4,
1,1,0,0,1,3300,4,
1,1,1,1,1,3301,4,
1,1,0,0,1,3302,4,
1,1,0,0,1,3303,4,
1,1,0,0,1,3304,4,
1,1,0,1,0,3305,4,
1,1,1,1,1,3306,4,
1,1,1,1,1,3307,4,
1,1,1,1,1,3308,4,
1,1,0,0,1,3309,4,
1,1,0,0,1,3310,4,
1,1,0,0,1,3311,4,
1,1,1,0,0,3312,4,
1,1,1,1,1,3313,4,
1,1,0,0,1,3314,4,
1,1,0,0,1,3315,4,
1,1,0,0,1,3316,4,
1,1,1,1,1,3317,4,
1,1,1,1,1,3318,4,
1,1,1,1,1,3319,4,
1,1,0,0,1,3320,4,
1,1,1,1,1,3321,4,
1,1,1,1,1,3322,4,
1,1,0,0,1,3323,4,
1,1,0,0,1,3324,4,
1,1,1,1,1,3325,4,
1,1,1,1,1,3326,4,
1,1,1,0,0,3327,4,
1,1,0,0,1,3328,4,
1,1,1,1,1,3329,4,
1,1,1,1,1,3330,4,
1,1,1,1,1,3331,4,
1,1,0,0,1,3332,4,
1,1,1,1,1,3333,4,
1,1,1,1,1,3334,4,
1,1,1,1,1,3335,4,
1,1,0,0,1,3336,4,
1,1,0,0,1,3337,4,
1,1,1,0,0,3338,4,
1,1,0,1,0,3339,4,
1,1,0,0,1,3340,4,
1,1,1,1,1,3341,4,
1,1,1,1,1,3342,4,
1,1,0,0,1,3343,4,
1,1,0,0,1,3344,4,
1,1,1,1,1,3345,4,
1,1,0,0,1,3346,4,
1,1,0,0,1,3347,4,
1,1,1,1,1,3348,4,
1,1,1,1,1,3349,4,
1,1,0,0,1,3350,4,
1,1,0,0,1,3351,4,
1,1,0,1,0,3352,4,
1,1,0,0,1,3353,4,
1,1,1,1,1,3354,4,
1,1,1,0,0,3355,4,
1,1,1,1,1,3356,4,
1,1,1,0,0,3357,4,
1,1,0,0,1,3358,4,
1,1,1,1,1,3359,4,
1,1,1,1,1,3360,4,
1,1,0,0,1,3361,4,
1,1,0,0,1,3362,4,
1,1,0,1,0,3363,4,
1,1,0,0,1,3364,4,
1,1,1,1,1,3365,4,
1,1,0,0,1,3366,4,
1,1,1,1,1,3367,4,
1,1,1,1,1,3368,4,
1,1,1,1,1,3369,4,
1,1,1,1,1,3370,4,
1,1,1,0,0,3371,4,
1,1,1,1,1,3372,4,
1,1,0,1,0,3373,4,
1,1,0,0,1,3374,4,
1,1,1,1,1,3375,4,
1,1,0,1,0,3376,4,
1,1,0,0,1,3377,4,
1,1,1,1,1,3378,4,
1,1,1,1,1,3379,4,
1,1,0,0,1,3380,4,
1,1,0,0,1,3381,4,
1,1,1,1,1,3382,4,
1,1,1,1,1,3383,4,
1,1,1,1,1,3384,4,
1,1,1,1,1,3385,4,
1,1,0,1,0,3386,4,
1,1,0,0,1,3387,4,
1,1,1,1,1,3388,4,
1,1,0,0,1,3389,4,
1,1,1,1,1,3390,4,
1,1,0,0,1,3391,4,
1,1,0,0,1,3392,4,
1,1,0,0,1,3393,4,
1,1,0,0,1,3394,4,
1,1,0,0,1,3395,4,
1,1,1,1,1,3396,4,
1,1,1,1,1,3397,4,
1,1,1,1,1,3398,4,
1,1,0,0,1,3399,4,
1,1,1,1,1,3400,4,
1,1,0,0,1,3401,4,
1,1,0,0,1,3402,4,
1,1,0,0,1,3403,4,
1,1,0,0,1,3404,4,
1,1,0,1,0,3405,4,
1,1,0,0,1,3406,4,
1,1,0,0,1,3407,4,
1,1,1,1,1,3408,4,
1,1,0,0,1,3409,4,
1,1,1,1,1,3410,4,
1,1,0,1,0,3411,4,
1,1,1,1,1,3412,4,
1,1,0,1,0,3413,4,
1,1,0,0,1,3414,4,
1,1,1,1,1,3415,4,
1,1,1,1,1,3416,4,
1,1,0,0,1,3417,4,
1,1,1,0,0,3418,4,
1,1,1,1,1,3419,4,
1,1,1,0,0,3420,4,
1,1,0,0,1,3421,4,
1,1,0,0,1,3422,4,
1,1,0,0,1,3423,4,
1,1,0,0,1,3424,4,
1,1,0,0,1,3425,4,
1,1,1,1,1,3426,4,
1,1,1,1,1,3427,4,
1,1,0,0,1,3428,4,
1,1,0,0,1,3429,4,
1,1,0,0,1,3430,4,
1,1,1,1,1,3431,4,
1,1,1,1,1,3432,4,
1,1,0,0,1,3433,4,
1,1,1,1,1,3434,4,
1,1,1,1,1,3435,4,
1,1,0,0,1,3436,4,
1,1,0,0,1,3437,4,
1,1,1,0,0,3438,4,
1,1,0,0,1,3439,4,
1,1,1,1,1,3440,4,
1,1,1,1,1,3441,4,
1,1,0,0,1,3442,4,
1,1,1,1,1,3443,4,
1,1,1,1,1,3444,4,
1,1,1,1,1,3445,4,
1,1,1,1,1,3446,4,
1,1,1,0,0,3447,4,
1,1,0,1,0,3448,4,
1,1,0,0,1,3449,4,
1,1,1,0,0,3450,4,
1,1,0,0,1,3451,4,
1,1,0,0,1,3452,4,
1,1,1,1,1,3453,4,
1,1,0,0,1,3454,4,
1,1,0,0,1,3455,4,
1,1,1,1,1,3456,4,
1,1,1,1,1,3457,4,
1,1,1,1,1,3458,4,
1,1,1,1,1,3459,4,
1,1,0,0,1,3460,4,
1,1,0,0,1,3461,4,
1,1,1,1,1,3462,4,
1,1,1,1,1,3463,4,
1,1,1,1,1,3464,4,
1,1,1,1,1,3465,4,
1,1,0,0,1,3466,4,
1,1,0,0,1,3467,4,
1,1,0,0,1,3468,4,
1,1,0,0,1,3469,4,
1,1,0,0,1,3470,4,
1,1,1,1,1,3471,4,
1,1,0,0,1,3472,4,
1,1,1,1,1,3473,4,
1,1,0,0,1,3474,4,
1,1,0,0,1,3475,4,
1,1,0,0,1,3476,4,
1,1,0,0,1,3477,4,
1,1,1,1,1,3478,4,
1,1,1,1,1,3479,4,
1,1,0,0,1,3480,4,
1,1,1,1,1,3481,4,
1,1,1,1,1,3482,4,
1,1,0,0,1,3483,4,
1,1,0,0,1,3484,4,
1,1,1,1,1,3485,4,
1,1,1,1,1,3486,4,
1,1,0,0,1,3487,4,
1,1,0,1,0,3488,4,
1,1,0,1,0,3489,4,
1,1,0,0,1,3490,4,
1,1,1,0,0,3491,4,
1,1,1,1,1,3492,4,
1,1,0,0,1,3493,4,
1,1,0,0,1,3494,4,
1,1,0,0,1,3495,4,
1,1,0,0,1,3496,4,
1,1,0,0,1,3497,4,
1,1,1,1,1,3498,4,
1,1,0,0,1,3499,4,
1,1,1,1,1,3500,4,
1,1,1,1,1,3501,4,
1,1,1,1,1,3502,4,
1,1,0,0,1,3503,4,
1,1,0,0,1,3504,4,
1,1,1,1,1,3505,4,
1,1,1,1,1,3506,4,
1,1,0,0,1,3507,4,
1,1,0,0,1,3508,4,
1,1,0,0,1,3509,4,
1,1,0,0,1,3510,4,
1,1,0,0,1,3511,4,
1,1,0,0,1,3512,4,
1,1,0,0,1,3513,4,
1,1,1,1,1,3514,4,
1,1,1,0,0,3515,4,
1,1,1,1,1,3516,4,
1,1,1,1,1,3517,4,
1,1,1,1,1,3518,4,
1,1,0,0,1,3519,4,
1,1,1,1,1,3520,4,
1,1,1,1,1,3521,4,
1,1,1,1,1,3522,4,
1,1,0,0,1,3523,4,
1,1,1,1,1,3524,4,
1,1,0,0,1,3525,4,
1,1,0,0,1,3526,4,
1,1,1,1,1,3527,4,
1,1,1,0,0,3528,4,
1,1,1,1,1,3529,4,
1,1,1,1,1,3530,4,
1,1,0,0,1,3531,4,
1,1,1,0,0,3532,4,
1,1,0,0,1,3533,4,
1,1,1,1,1,3534,4,
1,1,0,0,1,3535,4,
1,1,1,1,1,3536,4,
1,1,1,1,1,3537,4,
1,1,0,0,1,3538,4,
1,1,1,0,0,3539,4,
1,1,0,0,1,3540,4,
1,1,0,0,1,3541,4,
1,1,1,0,0,3542,4,
1,1,0,0,1,3543,4,
1,1,1,1,1,3544,4,
1,1,1,1,1,3545,4,
1,1,0,0,1,3546,4,
1,1,0,0,1,3547,4,
1,1,0,0,1,3548,4,
1,1,0,0,1,3549,4,
1,1,0,0,1,3550,4,
1,1,1,1,1,3551,4,
1,1,0,1,0,3552,4,
1,1,1,1,1,3553,4,
1,1,0,0,1,3554,4,
1,1,1,0,0,3555,4,
1,1,1,1,1,3556,4,
1,1,0,1,0,3557,4,
1,1,0,0,1,3558,4,
1,1,0,0,1,3559,4,
1,1,1,1,1,3560,4,
1,1,0,0,1,3561,4,
1,1,0,0,1,3562,4,
1,1,1,1,1,3563,4,
1,1,1,1,1,3564,4,
1,1,1,0,0,3565,4,
1,1,1,0,0,3566,4,
1,1,1,1,1,3567,4,
1,1,0,0,1,3568,4,
1,1,0,0,1,3569,4,
1,1,1,0,0,3570,4,
1,1,1,0,0,3571,4,
1,1,1,0,0,3572,4,
1,1,1,1,1,3573,4,
1,1,0,0,1,3574,4,
1,1,0,0,1,3575,4,
1,1,1,1,1,3576,4,
1,1,0,0,1,3577,4,
1,1,1,1,1,3578,4,
1,1,1,1,1,3579,4,
1,1,0,0,1,3580,4,
1,1,1,1,1,3581,4,
1,1,0,0,1,3582,4,
1,1,0,0,1,3583,4,
1,1,1,1,1,3584,4,
1,1,1,0,0,3585,4,
1,1,0,0,1,3586,4,
1,1,0,0,1,3587,4,
1,1,1,0,0,3588,4,
1,1,0,0,1,3589,4,
1,1,1,1,1,3590,4,
1,1,1,0,0,3591,4,
1,1,1,1,1,3592,4,
1,1,1,1,1,3593,4,
1,1,0,0,1,3594,4,
1,1,0,0,1,3595,4,
1,1,1,0,0,3596,4,
1,1,1,1,1,3597,4,
1,1,0,0,1,3598,4,
1,1,1,1,1,3599,4,
1,1,1,1,1,3600,4,
2,0,1,0,0,3601,1,
2,0,0,0,1,3602,1,
2,0,0,0,1,3603,1,
2,0,0,0,1,3604,1,
2,0,1,1,1,3605,1,
2,0,0,0,1,3606,1,
2,0,0,0,1,3607,1,
2,0,1,1,1,3608,1,
2,0,1,1,1,3609,1,
2,0,1,0,0,3610,1,
2,0,1,1,1,3611,1,
2,0,1,1,1,3612,1,
2,0,0,0,1,3613,1,
2,0,0,0,1,3614,1,
2,0,0,0,1,3615,1,
2,0,0,1,0,3616,1,
2,0,1,1,1,3617,1,
2,0,1,1,1,3618,1,
2,0,1,0,0,3619,1,
2,0,1,1,1,3620,1,
2,0,0,0,1,3621,1,
2,0,0,1,0,3622,1,
2,0,1,1,1,3623,1,
2,0,0,0,1,3624,1,
2,0,0,0,1,3625,1,
2,0,0,0,1,3626,1,
2,0,1,1,1,3627,1,
2,0,1,1,1,3628,1,
2,0,0,0,1,3629,1,
2,0,1,1,1,3630,1,
2,0,1,0,0,3631,1,
2,0,1,1,1,3632,1,
2,0,0,0,1,3633,1,
2,0,0,0,1,3634,1,
2,0,1,0,0,3635,1,
2,0,0,0,1,3636,1,
2,0,1,1,1,3637,1,
2,0,0,0,1,3638,1,
2,0,0,1,0,3639,1,
2,0,0,0,1,3640,1,
2,0,1,1,1,3641,1,
2,0,1,1,1,3642,1,
2,0,0,0,1,3643,1,
2,0,1,1,1,3644,1,
2,0,0,0,1,3645,1,
2,0,0,0,1,3646,1,
2,0,1,1,1,3647,1,
2,0,1,0,0,3648,1,
2,0,1,0,0,3649,1,
2,0,0,0,1,3650,1,
2,0,0,1,0,3651,1,
2,0,1,1,1,3652,1,
2,0,0,0,1,3653,1,
2,0,1,0,0,3654,1,
2,0,1,1,1,3655,1,
2,0,0,1,0,3656,1,
2,0,0,0,1,3657,1,
2,0,1,0,0,3658,1,
2,0,1,1,1,3659,1,
2,0,1,1,1,3660,1,
2,0,0,0,1,3661,1,
2,0,0,0,1,3662,1,
2,0,0,0,1,3663,1,
2,0,0,1,0,3664,1,
2,0,0,0,1,3665,1,
2,0,0,1,0,3666,1,
2,0,0,0,1,3667,1,
2,0,1,1,1,3668,1,
2,0,0,0,1,3669,1,
2,0,1,1,1,3670,1,
2,0,0,0,1,3671,1,
2,0,0,0,1,3672,1,
2,0,1,0,0,3673,1,
2,0,1,0,0,3674,1,
2,0,0,1,0,3675,1,
2,0,0,1,0,3676,1,
2,0,1,0,0,3677,1,
2,0,1,0,0,3678,1,
2,0,0,0,1,3679,1,
2,0,1,0,0,3680,1,
2,0,0,0,1,3681,1,
2,0,1,1,1,3682,1,
2,0,1,0,0,3683,1,
2,0,1,1,1,3684,1,
2,0,1,0,0,3685,1,
2,0,0,0,1,3686,1,
2,0,1,0,0,3687,1,
2,0,0,0,1,3688,1,
2,0,1,0,0,3689,1,
2,0,1,1,1,3690,1,
2,0,1,1,1,3691,1,
2,0,0,0,1,3692,1,
2,0,1,0,0,3693,1,
2,0,1,1,1,3694,1,
2,0,1,0,0,3695,1,
2,0,1,1,1,3696,1,
2,0,1,0,0,3697,1,
2,0,1,1,1,3698,1,
2,0,0,0,1,3699,1,
2,0,1,1,1,3700,1,
2,0,0,0,1,3701,1,
2,0,1,1,1,3702,1,
2,0,1,0,0,3703,1,
2,0,0,1,0,3704,1,
2,0,0,0,1,3705,1,
2,0,0,0,1,3706,1,
2,0,0,0,1,3707,1,
2,0,1,1,1,3708,1,
2,0,0,0,1,3709,1,
2,0,1,1,1,3710,1,
2,0,1,0,0,3711,1,
2,0,1,1,1,3712,1,
2,0,1,1,1,3713,1,
2,0,0,0,1,3714,1,
2,0,0,0,1,3715,1,
2,0,1,0,0,3716,1,
2,0,0,1,0,3717,1,
2,0,0,1,0,3718,1,
2,0,1,0,0,3719,1,
2,0,1,0,0,3720,1,
2,0,0,0,1,3721,1,
2,0,0,1,0,3722,1,
2,0,1,1,1,3723,1,
2,0,0,1,0,3724,1,
2,0,1,0,0,3725,1,
2,0,1,1,1,3726,1,
2,0,1,0,0,3727,1,
2,0,0,0,1,3728,1,
2,0,1,1,1,3729,1,
2,0,0,1,0,3730,1,
2,0,0,1,0,3731,1,
2,0,0,0,1,3732,1,
2,0,1,1,1,3733,1,
2,0,1,0,0,3734,1,
2,0,1,1,1,3735,1,
2,0,0,0,1,3736,1,
2,0,0,1,0,3737,1,
2,0,0,0,1,3738,1,
2,0,0,0,1,3739,1,
2,0,0,0,1,3740,1,
2,0,1,1,1,3741,1,
2,0,1,0,0,3742,1,
2,0,0,0,1,3743,1,
2,0,1,1,1,3744,1,
2,0,0,0,1,3745,1,
2,0,1,1,1,3746,1,
2,0,0,0,1,3747,1,
2,0,0,0,1,3748,1,
2,0,0,1,0,3749,1,
2,0,0,0,1,3750,1,
2,0,1,1,1,3751,1,
2,0,1,0,0,3752,1,
2,0,0,1,0,3753,1,
2,0,0,0,1,3754,1,
2,0,1,1,1,3755,1,
2,0,0,1,0,3756,1,
2,0,1,1,1,3757,1,
2,0,0,0,1,3758,1,
2,0,1,1,1,3759,1,
2,0,1,1,1,3760,1,
2,0,0,0,1,3761,1,
2,0,0,0,1,3762,1,
2,0,1,1,1,3763,1,
2,0,1,0,0,3764,1,
2,0,1,0,0,3765,1,
2,0,0,1,0,3766,1,
2,0,1,0,0,3767,1,
2,0,0,0,1,3768,1,
2,0,1,1,1,3769,1,
2,0,0,0,1,3770,1,
2,0,0,0,1,3771,1,
2,0,1,0,0,3772,1,
2,0,0,0,1,3773,1,
2,0,1,0,0,3774,1,
2,0,0,1,0,3775,1,
2,0,1,1,1,3776,1,
2,0,1,0,0,3777,1,
2,0,1,1,1,3778,1,
2,0,0,0,1,3779,1,
2,0,1,1,1,3780,1,
2,0,1,1,1,3781,1,
2,0,1,0,0,3782,1,
2,0,0,0,1,3783,1,
2,0,0,0,1,3784,1,
2,0,1,1,1,3785,1,
2,0,0,0,1,3786,1,
2,0,1,0,0,3787,1,
2,0,1,0,0,3788,1,
2,0,0,1,0,3789,1,
2,0,1,0,0,3790,1,
2,0,0,0,1,3791,1,
2,0,1,1,1,3792,1,
2,0,0,0,1,3793,1,
2,0,0,1,0,3794,1,
2,0,1,1,1,3795,1,
2,0,1,0,0,3796,1,
2,0,1,0,0,3797,1,
2,0,0,0,1,3798,1,
2,0,0,0,1,3799,1,
2,0,1,1,1,3800,1,
2,0,1,1,1,3801,1,
2,0,0,0,1,3802,1,
2,0,0,0,1,3803,1,
2,0,1,0,0,3804,1,
2,0,1,0,0,3805,1,
2,0,0,0,1,3806,1,
2,0,1,1,1,3807,1,
2,0,1,1,1,3808,1,
2,0,0,0,1,3809,1,
2,0,0,0,1,3810,1,
2,0,0,0,1,3811,1,
2,0,1,0,0,3812,1,
2,0,0,0,1,3813,1,
2,0,0,0,1,3814,1,
2,0,1,1,1,3815,1,
2,0,1,1,1,3816,1,
2,0,1,0,0,3817,1,
2,0,1,0,0,3818,1,
2,0,1,1,1,3819,1,
2,0,0,0,1,3820,1,
2,0,1,0,0,3821,1,
2,0,0,0,1,3822,1,
2,0,0,1,0,3823,1,
2,0,0,0,1,3824,1,
2,0,1,1,1,3825,1,
2,0,1,0,0,3826,1,
2,0,0,0,1,3827,1,
2,0,1,1,1,3828,1,
2,0,0,1,0,3829,1,
2,0,0,1,0,3830,1,
2,0,0,0,1,3831,1,
2,0,1,0,0,3832,1,
2,0,1,1,1,3833,1,
2,0,0,1,0,3834,1,
2,0,0,1,0,3835,1,
2,0,0,1,0,3836,1,
2,0,1,1,1,3837,1,
2,0,0,0,1,3838,1,
2,0,0,0,1,3839,1,
2,0,1,0,0,3840,1,
2,0,1,1,1,3841,1,
2,0,1,0,0,3842,1,
2,0,0,0,1,3843,1,
2,0,0,1,0,3844,1,
2,0,0,0,1,3845,1,
2,0,1,1,1,3846,1,
2,0,0,0,1,3847,1,
2,0,1,0,0,3848,1,
2,0,1,1,1,3849,1,
2,0,0,0,1,3850,1,
2,0,0,0,1,3851,1,
2,0,1,0,0,3852,1,
2,0,0,1,0,3853,1,
2,0,1,1,1,3854,1,
2,0,0,0,1,3855,1,
2,0,1,1,1,3856,1,
2,0,0,1,0,3857,1,
2,0,0,1,0,3858,1,
2,0,1,1,1,3859,1,
2,0,0,0,1,3860,1,
2,0,0,0,1,3861,1,
2,0,1,0,0,3862,1,
2,0,1,1,1,3863,1,
2,0,1,0,0,3864,1,
2,0,0,0,1,3865,1,
2,0,1,0,0,3866,1,
2,0,1,1,1,3867,1,
2,0,1,1,1,3868,1,
2,0,0,0,1,3869,1,
2,0,1,0,0,3870,1,
2,0,1,0,0,3871,1,
2,0,0,0,1,3872,1,
2,0,1,0,0,3873,1,
2,0,0,1,0,3874,1,
2,0,0,0,1,3875,1,
2,0,1,1,1,3876,1,
2,0,0,1,0,3877,1,
2,0,0,0,1,3878,1,
2,0,0,0,1,3879,1,
2,0,0,0,1,3880,1,
2,0,0,1,0,3881,1,
2,0,1,1,1,3882,1,
2,0,0,0,1,3883,1,
2,0,0,0,1,3884,1,
2,0,0,0,1,3885,1,
2,0,1,0,0,3886,1,
2,0,0,0,1,3887,1,
2,0,1,0,0,3888,1,
2,0,1,1,1,3889,1,
2,0,1,0,0,3890,1,
2,0,0,1,0,3891,1,
2,0,0,0,1,3892,1,
2,0,1,1,1,3893,1,
2,0,1,0,0,3894,1,
2,0,0,0,1,3895,1,
2,0,1,1,1,3896,1,
2,0,0,1,0,3897,1,
2,0,0,1,0,3898,1,
2,0,0,1,0,3899,1,
2,0,1,1,1,3900,1,
2,0,1,0,0,3901,1,
2,0,1,1,1,3902,1,
2,0,1,0,0,3903,1,
2,0,0,1,0,3904,1,
2,0,0,1,0,3905,1,
2,0,0,1,0,3906,1,
2,0,0,0,1,3907,1,
2,0,0,0,1,3908,1,
2,0,0,1,0,3909,1,
2,0,0,0,1,3910,1,
2,0,0,0,1,3911,1,
2,0,1,0,0,3912,1,
2,0,1,1,1,3913,1,
2,0,0,0,1,3914,1,
2,0,0,0,1,3915,1,
2,0,1,1,1,3916,1,
2,0,0,0,1,3917,1,
2,0,1,0,0,3918,1,
2,0,1,1,1,3919,1,
2,0,0,0,1,3920,1,
2,0,0,0,1,3921,1,
2,0,1,1,1,3922,1,
2,0,1,0,0,3923,1,
2,0,0,1,0,3924,1,
2,0,1,1,1,3925,1,
2,0,0,0,1,3926,1,
2,0,1,1,1,3927,1,
2,0,0,0,1,3928,1,
2,0,0,0,1,3929,1,
2,0,1,1,1,3930,1,
2,0,0,1,0,3931,1,
2,0,0,1,0,3932,1,
2,0,0,1,0,3933,1,
2,0,1,1,1,3934,1,
2,0,0,1,0,3935,1,
2,0,1,0,0,3936,1,
2,0,0,0,1,3937,1,
2,0,1,1,1,3938,1,
2,0,0,0,1,3939,1,
2,0,1,0,0,3940,1,
2,0,0,0,1,3941,1,
2,0,0,0,1,3942,1,
2,0,1,1,1,3943,1,
2,0,1,0,0,3944,1,
2,0,0,1,0,3945,1,
2,0,1,1,1,3946,1,
2,0,0,1,0,3947,1,
2,0,1,0,0,3948,1,
2,0,0,0,1,3949,1,
2,0,0,1,0,3950,1,
2,0,0,1,0,3951,1,
2,0,0,1,0,3952,1,
2,0,0,0,1,3953,1,
2,0,0,0,1,3954,1,
2,0,0,0,1,3955,1,
2,0,0,1,0,3956,1,
2,0,1,1,1,3957,1,
2,0,0,0,1,3958,1,
2,0,0,1,0,3959,1,
2,0,1,1,1,3960,1,
2,0,1,1,1,3961,1,
2,0,0,0,1,3962,1,
2,0,1,1,1,3963,1,
2,0,0,0,1,3964,1,
2,0,0,1,0,3965,1,
2,0,0,1,0,3966,1,
2,0,0,1,0,3967,1,
2,0,1,0,0,3968,1,
2,0,1,1,1,3969,1,
2,0,1,1,1,3970,1,
2,0,1,1,1,3971,1,
2,0,0,0,1,3972,1,
2,0,1,1,1,3973,1,
2,0,0,1,0,3974,1,
2,0,0,1,0,3975,1,
2,0,0,0,1,3976,1,
2,0,1,1,1,3977,1,
2,0,1,0,0,3978,1,
2,0,1,1,1,3979,1,
2,0,1,1,1,3980,1,
2,0,1,0,0,3981,1,
2,0,0,0,1,3982,1,
2,0,1,0,0,3983,1,
2,0,0,0,1,3984,1,
2,0,0,0,1,3985,1,
2,0,1,1,1,3986,1,
2,0,1,0,0,3987,1,
2,0,0,0,1,3988,1,
2,0,0,0,1,3989,1,
2,0,0,1,0,3990,1,
2,0,1,1,1,3991,1,
2,0,1,1,1,3992,1,
2,0,1,0,0,3993,1,
2,0,0,0,1,3994,1,
2,0,0,0,1,3995,1,
2,0,0,1,0,3996,1,
2,0,0,0,1,3997,1,
2,0,0,0,1,3998,1,
2,0,1,0,0,3999,1,
2,0,0,1,0,4000,1,
2,0,1,0,0,4001,1,
2,0,1,0,0,4002,1,
2,0,1,0,0,4003,1,
2,0,0,0,1,4004,1,
2,0,1,1,1,4005,1,
2,0,1,0,0,4006,1,
2,0,1,0,0,4007,1,
2,0,1,0,0,4008,1,
2,0,0,0,1,4009,1,
2,0,0,1,0,4010,1,
2,0,0,1,0,4011,1,
2,0,1,0,0,4012,1,
2,0,1,1,1,4013,1,
2,0,0,0,1,4014,1,
2,0,0,0,1,4015,1,
2,0,1,0,0,4016,1,
2,0,1,1,1,4017,1,
2,0,1,1,1,4018,1,
2,0,1,1,1,4019,1,
2,0,1,1,1,4020,1,
2,0,1,0,0,4021,1,
2,0,0,1,0,4022,1,
2,0,1,1,1,4023,1,
2,0,0,1,0,4024,1,
2,0,1,1,1,4025,1,
2,0,1,1,1,4026,1,
2,0,0,0,1,4027,1,
2,0,1,0,0,4028,1,
2,0,1,0,0,4029,1,
2,0,0,0,1,4030,1,
2,0,1,1,1,4031,1,
2,0,1,0,0,4032,1,
2,0,0,0,1,4033,1,
2,0,1,1,1,4034,1,
2,0,0,0,1,4035,1,
2,0,0,0,1,4036,1,
2,0,1,0,0,4037,1,
2,0,1,0,0,4038,1,
2,0,0,1,0,4039,1,
2,0,0,0,1,4040,1,
2,0,1,0,0,4041,1,
2,0,1,1,1,4042,1,
2,0,0,0,1,4043,1,
2,0,1,1,1,4044,1,
2,0,1,0,0,4045,1,
2,0,0,0,1,4046,1,
2,0,1,0,0,4047,1,
2,0,1,0,0,4048,1,
2,0,1,0,0,4049,1,
2,0,1,1,1,4050,1,
2,0,0,0,1,4051,1,
2,0,1,1,1,4052,1,
2,0,0,0,1,4053,1,
2,0,0,0,1,4054,1,
2,0,0,0,1,4055,1,
2,0,0,1,0,4056,1,
2,0,0,1,0,4057,1,
2,0,0,0,1,4058,1,
2,0,1,1,1,4059,1,
2,0,0,0,1,4060,1,
2,0,1,1,1,4061,1,
2,0,1,0,0,4062,1,
2,0,1,1,1,4063,1,
2,0,0,0,1,4064,1,
2,0,0,0,1,4065,1,
2,0,0,0,1,4066,1,
2,0,0,0,1,4067,1,
2,0,1,1,1,4068,1,
2,0,1,1,1,4069,1,
2,0,0,0,1,4070,1,
2,0,1,1,1,4071,1,
2,0,1,0,0,4072,1,
2,0,1,0,0,4073,1,
2,0,0,0,1,4074,1,
2,0,0,1,0,4075,1,
2,0,0,1,0,4076,1,
2,0,0,1,0,4077,1,
2,0,1,1,1,4078,1,
2,0,0,1,0,4079,1,
2,0,1,0,0,4080,1,
2,0,1,1,1,4081,1,
2,0,1,0,0,4082,1,
2,0,1,0,0,4083,1,
2,0,0,1,0,4084,1,
2,0,0,1,0,4085,1,
2,0,1,0,0,4086,1,
2,0,1,1,1,4087,1,
2,0,0,0,1,4088,1,
2,0,0,1,0,4089,1,
2,0,0,0,1,4090,1,
2,0,0,0,1,4091,1,
2,0,0,0,1,4092,1,
2,0,0,0,1,4093,1,
2,0,0,1,0,4094,1,
2,0,1,0,0,4095,1,
2,0,0,0,1,4096,1,
2,0,1,1,1,4097,1,
2,0,1,1,1,4098,1,
2,0,1,0,0,4099,1,
2,0,0,1,0,4100,1,
2,0,0,0,1,4101,1,
2,0,1,0,0,4102,1,
2,0,1,1,1,4103,1,
2,0,1,0,0,4104,1,
2,0,1,0,0,4105,1,
2,0,0,0,1,4106,1,
2,0,1,1,1,4107,1,
2,0,0,1,0,4108,1,
2,0,1,1,1,4109,1,
2,0,0,0,1,4110,1,
2,0,0,1,0,4111,1,
2,0,1,1,1,4112,1,
2,0,1,1,1,4113,1,
2,0,1,0,0,4114,1,
2,0,0,0,1,4115,1,
2,0,0,1,0,4116,1,
2,0,1,1,1,4117,1,
2,0,1,0,0,4118,1,
2,0,1,0,0,4119,1,
2,0,0,1,0,4120,1,
2,0,0,0,1,4121,1,
2,0,1,0,0,4122,1,
2,0,0,0,1,4123,1,
2,0,1,1,1,4124,1,
2,0,1,1,1,4125,1,
2,0,0,0,1,4126,1,
2,0,1,0,0,4127,1,
2,0,0,1,0,4128,1,
2,0,1,1,1,4129,1,
2,0,0,0,1,4130,1,
2,0,1,1,1,4131,1,
2,0,0,0,1,4132,1,
2,0,1,1,1,4133,1,
2,0,0,0,1,4134,1,
2,0,0,0,1,4135,1,
2,0,1,0,0,4136,1,
2,0,0,1,0,4137,1,
2,0,0,1,0,4138,1,
2,0,1,0,0,4139,1,
2,0,1,1,1,4140,1,
2,0,1,1,1,4141,1,
2,0,1,0,0,4142,1,
2,0,0,1,0,4143,1,
2,0,0,0,1,4144,1,
2,0,1,1,1,4145,1,
2,0,1,0,0,4146,1,
2,0,1,0,0,4147,1,
2,0,0,0,1,4148,1,
2,0,0,1,0,4149,1,
2,0,1,0,0,4150,1,
2,0,1,1,1,4151,1,
2,0,1,0,0,4152,1,
2,0,1,1,1,4153,1,
2,0,1,0,0,4154,1,
2,0,0,0,1,4155,1,
2,0,0,0,1,4156,1,
2,0,0,1,0,4157,1,
2,0,0,1,0,4158,1,
2,0,0,0,1,4159,1,
2,0,1,0,0,4160,1,
2,0,0,0,1,4161,1,
2,0,1,1,1,4162,1,
2,0,0,1,0,4163,1,
2,0,1,1,1,4164,1,
2,0,1,0,0,4165,1,
2,0,1,1,1,4166,1,
2,0,1,0,0,4167,1,
2,0,1,0,0,4168,1,
2,0,0,0,1,4169,1,
2,0,1,0,0,4170,1,
2,0,1,1,1,4171,1,
2,0,0,0,1,4172,1,
2,0,0,1,0,4173,1,
2,0,1,0,0,4174,1,
2,0,0,1,0,4175,1,
2,0,0,1,0,4176,1,
2,0,0,1,0,4177,1,
2,0,1,1,1,4178,1,
2,0,1,1,1,4179,1,
2,0,0,0,1,4180,1,
2,0,1,1,1,4181,1,
2,0,0,1,0,4182,1,
2,0,0,0,1,4183,1,
2,0,1,0,0,4184,1,
2,0,0,0,1,4185,1,
2,0,1,1,1,4186,1,
2,0,1,1,1,4187,1,
2,0,1,0,0,4188,1,
2,0,1,1,1,4189,1,
2,0,0,1,0,4190,1,
2,0,0,1,0,4191,1,
2,0,0,0,1,4192,1,
2,0,1,0,0,4193,1,
2,0,0,1,0,4194,1,
2,0,1,0,0,4195,1,
2,0,1,1,1,4196,1,
2,0,1,1,1,4197,1,
2,0,0,1,0,4198,1,
2,0,0,0,1,4199,1,
2,0,0,0,1,4200,1,
2,0,1,1,1,4201,1,
2,0,0,0,1,4202,1,
2,0,0,1,0,4203,1,
2,0,1,0,0,4204,1,
2,0,1,1,1,4205,1,
2,0,0,0,1,4206,1,
2,0,0,1,0,4207,1,
2,0,0,1,0,4208,1,
2,0,0,0,1,4209,1,
2,0,1,1,1,4210,1,
2,0,0,1,0,4211,1,
2,0,0,0,1,4212,1,
2,0,1,1,1,4213,1,
2,0,1,1,1,4214,1,
2,0,0,0,1,4215,1,
2,0,1,0,0,4216,1,
2,0,0,0,1,4217,1,
2,0,0,0,1,4218,1,
2,0,0,0,1,4219,1,
2,0,1,0,0,4220,1,
2,0,1,0,0,4221,1,
2,0,1,1,1,4222,1,
2,0,1,0,0,4223,1,
2,0,0,0,1,4224,1,
2,0,1,0,0,4225,1,
2,0,0,0,1,4226,1,
2,0,0,0,1,4227,1,
2,0,1,1,1,4228,1,
2,0,1,0,0,4229,1,
2,0,1,0,0,4230,1,
2,0,1,0,0,4231,1,
2,0,1,1,1,4232,1,
2,0,1,0,0,4233,1,
2,0,1,0,0,4234,1,
2,0,0,0,1,4235,1,
2,0,0,1,0,4236,1,
2,0,0,1,0,4237,1,
2,0,1,0,0,4238,1,
2,0,1,0,0,4239,1,
2,0,1,1,1,4240,1,
2,0,1,0,0,4241,1,
2,0,1,1,1,4242,1,
2,0,1,0,0,4243,1,
2,0,0,1,0,4244,1,
2,0,1,1,1,4245,1,
2,0,1,0,0,4246,1,
2,0,0,0,1,4247,1,
2,0,1,1,1,4248,1,
2,0,0,1,0,4249,1,
2,0,1,1,1,4250,1,
2,0,0,0,1,4251,1,
2,0,1,1,1,4252,1,
2,0,1,1,1,4253,1,
2,0,0,0,1,4254,1,
2,0,1,1,1,4255,1,
2,0,0,1,0,4256,1,
2,0,0,1,0,4257,1,
2,0,1,1,1,4258,1,
2,0,0,1,0,4259,1,
2,0,1,1,1,4260,1,
2,0,0,0,1,4261,1,
2,0,1,1,1,4262,1,
2,0,1,1,1,4263,1,
2,0,0,0,1,4264,1,
2,0,0,1,0,4265,1,
2,0,0,1,0,4266,1,
2,0,0,0,1,4267,1,
2,0,0,1,0,4268,1,
2,0,0,0,1,4269,1,
2,0,1,1,1,4270,1,
2,0,0,0,1,4271,1,
2,0,1,0,0,4272,1,
2,0,1,0,0,4273,1,
2,0,1,1,1,4274,1,
2,0,0,1,0,4275,1,
2,0,1,1,1,4276,1,
2,0,0,1,0,4277,1,
2,0,0,1,0,4278,1,
2,0,1,0,0,4279,1,
2,0,0,0,1,4280,1,
2,0,1,0,0,4281,1,
2,0,0,0,1,4282,1,
2,0,1,1,1,4283,1,
2,0,1,0,0,4284,1,
2,0,0,0,1,4285,1,
2,0,0,1,0,4286,1,
2,0,1,0,0,4287,1,
2,0,0,1,0,4288,1,
2,0,0,0,1,4289,1,
2,0,1,1,1,4290,1,
2,0,0,0,1,4291,1,
2,0,1,1,1,4292,1,
2,0,1,0,0,4293,1,
2,0,0,1,0,4294,1,
2,0,0,0,1,4295,1,
2,0,0,0,1,4296,1,
2,0,0,1,0,4297,1,
2,0,1,0,0,4298,1,
2,0,0,0,1,4299,1,
2,0,0,1,0,4300,1,
2,0,0,1,0,4301,1,
2,0,0,1,0,4302,1,
2,0,0,1,0,4303,1,
2,0,0,0,1,4304,1,
2,0,1,1,1,4305,1,
2,0,0,0,1,4306,1,
2,0,1,0,0,4307,1,
2,0,0,1,0,4308,1,
2,0,0,1,0,4309,1,
2,0,0,0,1,4310,1,
2,0,0,0,1,4311,1,
2,0,0,0,1,4312,1,
2,0,1,0,0,4313,1,
2,0,0,0,1,4314,1,
2,0,0,0,1,4315,1,
2,0,1,0,0,4316,1,
2,0,0,0,1,4317,1,
2,0,1,0,0,4318,1,
2,0,1,1,1,4319,1,
2,0,1,0,0,4320,1,
2,0,0,0,1,4321,1,
2,0,0,1,0,4322,1,
2,0,1,1,1,4323,1,
2,0,1,1,1,4324,1,
2,0,1,0,0,4325,1,
2,0,0,0,1,4326,1,
2,0,1,0,0,4327,1,
2,0,1,0,0,4328,1,
2,0,0,1,0,4329,1,
2,0,0,1,0,4330,1,
2,0,0,0,1,4331,1,
2,0,1,1,1,4332,1,
2,0,0,0,1,4333,1,
2,0,1,1,1,4334,1,
2,0,1,0,0,4335,1,
2,0,0,1,0,4336,1,
2,0,0,0,1,4337,1,
2,0,1,0,0,4338,1,
2,0,1,1,1,4339,1,
2,0,1,0,0,4340,1,
2,0,1,1,1,4341,1,
2,0,1,1,1,4342,1,
2,0,0,0,1,4343,1,
2,0,1,1,1,4344,1,
2,0,1,1,1,4345,1,
2,0,0,1,0,4346,1,
2,0,1,0,0,4347,1,
2,0,1,1,1,4348,1,
2,0,0,0,1,4349,1,
2,0,1,1,1,4350,1,
2,0,1,1,1,4351,1,
2,0,1,1,1,4352,1,
2,0,0,0,1,4353,1,
2,0,0,0,1,4354,1,
2,0,0,0,1,4355,1,
2,0,1,1,1,4356,1,
2,0,0,1,0,4357,1,
2,0,0,0,1,4358,1,
2,0,1,0,0,4359,1,
2,0,1,0,0,4360,1,
2,0,0,0,1,4361,1,
2,0,0,1,0,4362,1,
2,0,1,1,1,4363,1,
2,0,0,1,0,4364,1,
2,0,0,0,1,4365,1,
2,0,0,0,1,4366,1,
2,0,1,1,1,4367,1,
2,0,0,0,1,4368,1,
2,0,1,0,0,4369,1,
2,0,1,0,0,4370,1,
2,0,0,0,1,4371,1,
2,0,0,0,1,4372,1,
2,0,1,0,0,4373,1,
2,0,0,1,0,4374,1,
2,0,0,1,0,4375,1,
2,0,0,1,0,4376,1,
2,0,1,0,0,4377,1,
2,0,1,1,1,4378,1,
2,0,0,1,0,4379,1,
2,0,0,0,1,4380,1,
2,0,0,0,1,4381,1,
2,0,0,1,0,4382,1,
2,0,1,0,0,4383,1,
2,0,1,1,1,4384,1,
2,0,0,0,1,4385,1,
2,0,1,1,1,4386,1,
2,0,0,1,0,4387,1,
2,0,0,0,1,4388,1,
2,0,1,1,1,4389,1,
2,0,1,1,1,4390,1,
2,0,0,0,1,4391,1,
2,0,1,1,1,4392,1,
2,0,0,0,1,4393,1,
2,0,0,0,1,4394,1,
2,0,1,1,1,4395,1,
2,0,1,1,1,4396,1,
2,0,1,1,1,4397,1,
2,0,0,1,0,4398,1,
2,0,1,1,1,4399,1,
2,0,0,1,0,4400,1,
2,0,0,1,0,4401,1,
2,0,1,1,1,4402,1,
2,0,0,1,0,4403,1,
2,0,0,1,0,4404,1,
2,0,1,1,1,4405,1,
2,0,0,0,1,4406,1,
2,0,0,1,0,4407,1,
2,0,0,1,0,4408,1,
2,0,0,1,0,4409,1,
2,0,0,0,1,4410,1,
2,0,1,1,1,4411,1,
2,0,1,0,0,4412,1,
2,0,1,1,1,4413,1,
2,0,1,0,0,4414,1,
2,0,1,1,1,4415,1,
2,0,1,1,1,4416,1,
2,0,0,0,1,4417,1,
2,0,0,1,0,4418,1,
2,0,1,1,1,4419,1,
2,0,1,1,1,4420,1,
2,0,1,1,1,4421,1,
2,0,1,0,0,4422,1,
2,0,1,1,1,4423,1,
2,0,1,0,0,4424,1,
2,0,1,0,0,4425,1,
2,0,0,0,1,4426,1,
2,0,1,1,1,4427,1,
2,0,1,0,0,4428,1,
2,0,1,0,0,4429,1,
2,0,0,0,1,4430,1,
2,0,1,1,1,4431,1,
2,0,1,0,0,4432,1,
2,0,1,1,1,4433,1,
2,0,0,0,1,4434,1,
2,0,0,1,0,4435,1,
2,0,1,1,1,4436,1,
2,0,1,1,1,4437,1,
2,0,0,1,0,4438,1,
2,0,0,1,0,4439,1,
2,0,1,0,0,4440,1,
2,0,0,1,0,4441,1,
2,0,1,1,1,4442,1,
2,0,1,0,0,4443,1,
2,0,0,1,0,4444,1,
2,0,0,0,1,4445,1,
2,0,1,1,1,4446,1,
2,0,0,0,1,4447,1,
2,0,0,1,0,4448,1,
2,0,0,0,1,4449,1,
2,0,0,0,1,4450,1,
2,0,1,1,1,4451,1,
2,0,0,0,1,4452,1,
2,0,1,1,1,4453,1,
2,0,0,0,1,4454,1,
2,0,1,1,1,4455,1,
2,0,1,1,1,4456,1,
2,0,1,0,0,4457,1,
2,0,1,1,1,4458,1,
2,0,0,1,0,4459,1,
2,0,1,1,1,4460,1,
2,0,1,0,0,4461,1,
2,0,1,1,1,4462,1,
2,0,0,0,1,4463,1,
2,0,1,0,0,4464,1,
2,0,0,0,1,4465,1,
2,0,0,0,1,4466,1,
2,0,1,1,1,4467,1,
2,0,1,0,0,4468,1,
2,0,0,0,1,4469,1,
2,0,1,1,1,4470,1,
2,0,0,1,0,4471,1,
2,0,0,1,0,4472,1,
2,0,0,1,0,4473,1,
2,0,1,1,1,4474,1,
2,0,1,1,1,4475,1,
2,0,1,0,0,4476,1,
2,0,0,1,0,4477,1,
2,0,0,1,0,4478,1,
2,0,0,0,1,4479,1,
2,0,1,1,1,4480,1,
2,0,1,1,1,4481,1,
2,0,0,1,0,4482,1,
2,0,0,0,1,4483,1,
2,0,1,0,0,4484,1,
2,0,0,1,0,4485,1,
2,0,1,0,0,4486,1,
2,0,1,1,1,4487,1,
2,0,0,0,1,4488,1,
2,0,0,0,1,4489,1,
2,0,1,1,1,4490,1,
2,0,0,1,0,4491,1,
2,0,0,1,0,4492,1,
2,0,1,0,0,4493,1,
2,0,0,1,0,4494,1,
2,0,0,0,1,4495,1,
2,0,1,1,1,4496,1,
2,0,1,1,1,4497,1,
2,0,0,0,1,4498,1,
2,0,0,0,1,4499,1,
2,0,1,0,0,4500,1,
2,0.333333333,0,0,1,4501,2,
2,0.333333333,1,1,1,4502,2,
2,0.333333333,0,0,1,4503,2,
2,0.333333333,1,1,1,4504,2,
2,0.333333333,1,1,1,4505,2,
2,0.333333333,0,0,1,4506,2,
2,0.333333333,1,0,0,4507,2,
2,0.333333333,1,1,1,4508,2,
2,0.333333333,1,1,1,4509,2,
2,0.333333333,1,0,0,4510,2,
2,0.333333333,0,0,1,4511,2,
2,0.333333333,0,1,0,4512,2,
2,0.333333333,0,1,0,4513,2,
2,0.333333333,0,0,1,4514,2,
2,0.333333333,0,0,1,4515,2,
2,0.333333333,1,1,1,4516,2,
2,0.333333333,1,1,1,4517,2,
2,0.333333333,1,0,0,4518,2,
2,0.333333333,0,1,0,4519,2,
2,0.333333333,0,0,1,4520,2,
2,0.333333333,0,0,1,4521,2,
2,0.333333333,1,0,0,4522,2,
2,0.333333333,1,0,0,4523,2,
2,0.333333333,0,0,1,4524,2,
2,0.333333333,0,0,1,4525,2,
2,0.333333333,1,1,1,4526,2,
2,0.333333333,0,0,1,4527,2,
2,0.333333333,1,1,1,4528,2,
2,0.333333333,1,1,1,4529,2,
2,0.333333333,1,0,0,4530,2,
2,0.333333333,1,1,1,4531,2,
2,0.333333333,1,1,1,4532,2,
2,0.333333333,1,1,1,4533,2,
2,0.333333333,0,0,1,4534,2,
2,0.333333333,1,1,1,4535,2,
2,0.333333333,0,0,1,4536,2,
2,0.333333333,1,1,1,4537,2,
2,0.333333333,1,1,1,4538,2,
2,0.333333333,0,0,1,4539,2,
2,0.333333333,1,1,1,4540,2,
2,0.333333333,0,0,1,4541,2,
2,0.333333333,1,1,1,4542,2,
2,0.333333333,1,1,1,4543,2,
2,0.333333333,1,1,1,4544,2,
2,0.333333333,0,0,1,4545,2,
2,0.333333333,0,1,0,4546,2,
2,0.333333333,1,1,1,4547,2,
2,0.333333333,1,0,0,4548,2,
2,0.333333333,1,1,1,4549,2,
2,0.333333333,1,1,1,4550,2,
2,0.333333333,1,0,0,4551,2,
2,0.333333333,0,0,1,4552,2,
2,0.333333333,0,1,0,4553,2,
2,0.333333333,0,0,1,4554,2,
2,0.333333333,1,1,1,4555,2,
2,0.333333333,1,0,0,4556,2,
2,0.333333333,0,1,0,4557,2,
2,0.333333333,1,0,0,4558,2,
2,0.333333333,0,1,0,4559,2,
2,0.333333333,0,0,1,4560,2,
2,0.333333333,0,0,1,4561,2,
2,0.333333333,1,1,1,4562,2,
2,0.333333333,0,0,1,4563,2,
2,0.333333333,0,0,1,4564,2,
2,0.333333333,0,1,0,4565,2,
2,0.333333333,1,1,1,4566,2,
2,0.333333333,0,0,1,4567,2,
2,0.333333333,0,0,1,4568,2,
2,0.333333333,0,0,1,4569,2,
2,0.333333333,0,1,0,4570,2,
2,0.333333333,1,1,1,4571,2,
2,0.333333333,1,1,1,4572,2,
2,0.333333333,1,1,1,4573,2,
