trial_id,Subject,block_n,Trial,set_size,correctResponse,resp,acc,RT
1,1,1,1,5,1,1,1,924
2,1,1,2,20,1,1,1,845
3,1,1,3,2,1,1,1,436
4,1,1,4,20,1,1,1,588
5,1,1,5,2,0,0,1,431
6,1,1,6,32,1,1,1,505
7,1,1,7,10,0,0,1,748
8,1,1,8,20,0,0,0,576
9,1,1,9,10,1,1,1,756
10,1,1,10,20,0,0,1,792
11,1,1,11,32,1,1,1,1404
12,1,1,12,10,1,1,1,590
13,1,1,13,2,1,1,1,670
14,1,1,14,2,1,1,1,516
15,1,1,15,2,0,0,1,622
16,1,1,16,10,1,1,1,783
17,1,1,17,5,0,0,1,949
18,1,1,18,10,0,0,1,681
19,1,1,19,32,0,0,1,700
20,1,1,20,5,1,1,1,600
21,1,1,21,20,0,0,1,514
22,1,1,22,32,0,0,1,1259
23,1,1,23,5,0,0,1,463
24,1,1,24,2,1,1,1,605
25,1,1,25,32,0,0,1,966
26,1,1,26,2,0,0,1,502
27,1,1,27,20,1,1,1,841
28,1,1,28,2,0,0,1,423
29,1,1,29,5,0,0,1,441
30,1,1,30,1,1,1,1,551
31,1,1,31,32,0,0,1,1156
32,1,1,32,10,1,1,1,968
33,1,1,33,20,0,0,1,465
34,1,1,34,1,1,1,1,413
35,1,1,35,2,1,1,1,556
36,1,1,36,2,1,1,1,444
37,1,1,37,10,0,0,1,1687
38,1,1,38,1,0,0,1,518
39,1,1,39,1,0,0,1,438
40,1,1,40,2,1,1,1,376
41,1,1,41,5,0,0,1,1021
42,1,1,42,20,0,0,1,472
43,1,1,43,32,0,0,1,915
44,1,1,44,10,1,1,1,1250
45,1,1,45,10,1,1,1,405
46,1,1,46,1,1,1,1,381
47,1,1,47,20,0,0,1,1171
48,1,1,48,2,1,1,1,740
49,1,1,49,5,0,0,1,615
50,1,1,50,1,0,0,1,423
51,1,1,51,10,1,1,1,572
52,1,1,52,2,0,0,1,445
53,1,1,53,1,0,0,1,394
54,1,1,54,32,1,1,1,710
55,1,1,55,2,1,1,1,580
56,1,1,56,5,1,1,1,770
57,1,1,57,10,0,0,1,528
58,1,1,58,1,0,0,1,411
59,1,1,59,32,1,1,1,575
60,1,1,60,2,0,0,1,845
61,1,1,61,20,1,1,1,442
62,1,1,62,32,1,1,1,544
63,1,1,63,5,0,0,1,435
64,1,1,64,32,0,0,1,552
65,1,1,65,10,0,0,1,437
66,1,1,66,32,0,0,1,1217
67,1,1,67,5,0,0,1,471
68,1,1,68,1,1,1,1,431
69,1,1,69,20,1,1,1,676
70,1,1,70,2,0,0,1,373
71,1,1,71,5,1,1,1,490
72,1,1,72,2,1,1,1,374
73,1,1,73,20,0,0,1,638
74,1,1,74,5,1,1,1,436
75,1,1,75,20,0,0,1,366
76,1,1,76,5,1,1,1,450
77,1,1,77,32,1,1,1,511
78,1,1,78,2,1,1,1,851
79,1,1,79,32,0,0,1,833
80,1,1,80,32,0,0,1,569
81,1,1,81,10,1,1,1,537
82,1,1,82,2,0,0,1,667
83,1,1,83,20,0,0,1,661
84,1,1,84,1,1,1,1,480
85,1,1,85,32,1,1,1,626
86,1,1,86,32,0,0,1,1274
87,1,1,87,5,1,1,1,715
88,1,1,88,32,1,1,1,1166
89,1,1,89,20,0,0,1,586
90,1,1,90,20,1,1,1,517
91,1,1,91,5,0,0,1,557
92,1,1,92,32,1,1,1,965
93,1,1,93,10,1,1,0,697
94,1,1,94,10,1,1,1,779
95,1,1,95,10,0,0,1,472
96,1,1,96,2,0,0,1,463
97,1,1,97,10,1,1,1,695
98,1,1,98,32,0,0,1,671
99,1,1,99,32,1,1,1,982
100,1,1,100,20,1,1,1,543
101,1,1,101,2,0,0,1,634
102,1,1,102,32,1,1,1,721
103,1,1,103,32,0,0,1,585
104,1,1,104,5,1,1,1,659
105,1,1,105,32,0,0,1,846
106,1,1,106,2,1,1,1,513
107,1,1,107,2,0,0,1,470
108,1,1,108,2,1,1,1,587
109,1,1,109,5,0,0,1,490
110,1,1,110,32,1,1,1,759
111,1,1,111,1,1,1,1,396
112,1,1,112,1,0,0,1,355
113,1,1,113,32,0,0,1,851
114,1,1,114,20,1,1,1,453
115,1,1,115,20,1,1,1,1310
116,1,1,116,5,1,1,1,801
117,1,1,117,20,1,1,1,958
118,1,1,118,2,1,1,1,424
119,1,1,119,32,1,1,1,562
120,1,1,120,1,1,1,1,436
121,1,1,121,32,0,0,1,706
122,1,1,122,20,1,1,1,574
123,1,1,123,20,0,0,1,537
124,1,1,124,20,0,0,1,895
125,1,1,125,1,1,1,1,461
126,1,1,126,5,1,1,1,417
127,1,1,127,10,1,1,1,546
128,1,1,128,10,1,1,1,534
129,1,1,129,2,1,1,1,415
130,1,1,130,2,0,0,1,528
131,1,1,131,2,1,1,1,482
132,1,1,132,20,0,0,1,680
133,1,1,133,32,1,1,1,533
134,1,1,134,5,1,1,1,626
135,1,1,135,32,1,1,1,980
136,1,1,136,20,0,0,1,799
137,1,1,137,32,0,0,1,529
138,1,1,138,32,0,0,1,1264
139,1,1,139,10,0,0,1,537
140,1,1,140,20,0,0,1,640
141,1,1,141,5,0,0,1,553
142,1,1,142,10,1,1,1,753
143,1,1,143,2,1,1,1,637
144,1,1,144,10,0,0,1,986
145,1,1,145,5,1,1,1,627
146,1,1,146,2,0,0,1,798
147,1,1,147,32,0,0,1,988
148,1,1,148,5,0,0,1,396
149,1,1,149,2,0,0,1,464
150,1,1,150,20,1,1,1,774
151,1,1,151,32,1,1,1,1086
152,1,1,152,5,0,0,1,504
153,1,1,153,32,0,0,1,736
154,1,1,154,32,0,0,1,1460
155,1,1,155,20,0,0,1,985
156,1,1,156,2,0,0,1,454
157,1,1,157,5,0,0,1,819
158,1,1,158,2,0,0,1,608
159,1,1,159,5,0,0,1,384
160,1,1,160,32,1,1,1,506
161,1,1,161,20,1,1,1,500
162,1,1,162,2,0,0,1,538
163,1,1,163,20,0,0,1,1956
164,1,1,164,10,1,1,1,1019
165,1,1,165,10,0,0,1,663
166,1,1,166,10,1,1,1,425
167,1,1,167,5,1,1,1,441
168,1,1,168,10,0,0,1,649
169,1,1,169,32,0,0,1,1268
170,1,1,170,2,0,0,1,469
171,1,1,171,20,1,1,1,479
172,1,1,172,10,1,1,1,633
173,1,1,173,5,0,0,1,457
174,1,1,174,2,0,0,1,437
175,1,1,175,20,1,1,1,1280
176,1,1,176,20,0,0,1,460
177,1,1,177,32,1,1,1,577
178,1,1,178,32,0,0,1,894
179,1,1,179,2,1,1,1,1364
180,1,1,180,10,1,1,1,506
181,1,1,181,32,1,1,1,1240
182,1,1,182,10,1,1,1,464
183,1,1,183,20,1,1,1,659
184,1,1,184,10,0,0,1,676
185,1,1,185,32,1,1,1,597
186,1,1,186,20,1,1,1,451
187,1,1,187,20,0,0,1,592
188,1,1,188,5,1,1,1,689
189,1,1,189,5,0,0,1,448
190,1,1,190,10,0,0,1,451
191,1,1,191,5,0,0,1,381
192,1,1,192,2,0,0,1,571
193,1,1,193,10,0,0,1,885
194,1,1,194,32,1,1,1,792
195,1,1,195,1,0,0,1,454
196,1,1,196,10,0,0,1,534
197,1,1,197,32,0,0,1,557
198,1,1,198,32,0,0,0,526
199,1,1,199,20,1,1,1,1261
200,1,1,200,20,0,0,1,723
201,1,1,201,5,1,1,1,825
202,1,1,202,20,1,1,1,1308
203,1,1,203,20,0,0,1,504
204,1,1,204,2,0,0,1,591
205,1,1,205,2,0,0,1,499
206,1,1,206,2,1,1,1,501
207,1,1,207,1,0,0,1,534
208,1,1,208,5,0,0,1,517
209,1,1,209,5,0,0,1,444
210,1,1,210,1,1,1,1,796
211,1,1,211,32,0,0,1,563
212,1,1,212,2,1,1,1,525
213,1,1,213,2,0,0,1,417
214,1,1,214,20,0,0,1,508
215,1,1,215,10,0,0,1,805
216,1,1,216,20,1,1,1,792
217,1,1,217,32,0,0,1,719
218,1,1,218,5,1,1,1,955
219,1,1,219,5,0,0,1,660
220,1,1,220,2,0,0,1,521
221,1,1,221,5,0,0,1,1066
222,1,1,222,32,1,1,1,569
223,1,1,223,2,1,1,1,498
224,1,1,224,1,0,0,1,398
225,1,1,225,5,1,1,1,506
226,1,1,226,2,1,1,1,531
227,1,1,227,5,0,0,1,585
228,1,1,228,2,1,1,1,519
229,1,1,229,2,1,1,1,482
230,1,1,230,2,0,0,1,460
231,1,1,231,5,1,1,1,558
232,1,1,232,1,0,0,1,537
233,1,1,233,5,1,1,1,601
234,1,1,234,2,0,0,1,566
235,1,1,235,2,1,1,1,467
236,1,1,236,2,0,0,1,548
237,1,1,237,2,0,0,1,538
238,1,1,238,1,0,0,1,385
239,1,1,239,20,1,1,1,716
240,1,1,240,2,1,1,1,550
241,1,1,241,10,1,1,1,545
242,1,1,242,32,0,0,1,663
243,1,1,243,20,0,0,1,574
244,1,1,244,32,0,0,1,497
245,1,1,245,2,0,0,1,409
246,1,1,246,32,0,0,1,1179
247,1,1,247,2,0,0,1,869
248,1,1,248,2,0,0,1,383
249,1,1,249,20,1,1,1,1408
250,1,1,250,2,0,0,1,570
251,1,1,251,5,1,1,1,479
252,1,1,252,2,1,1,1,481
253,1,1,253,5,1,1,1,553
254,1,1,254,5,1,1,1,504
255,1,1,255,10,1,1,1,868
256,1,1,256,5,1,1,1,599
257,1,1,257,1,0,0,1,594
258,1,1,258,32,1,1,1,487
259,1,1,259,20,1,1,1,886
260,1,1,260,10,1,1,1,450
261,1,1,261,2,1,1,1,509
262,1,1,262,20,0,0,1,1117
263,1,1,263,2,1,1,1,466
264,1,1,264,5,0,0,1,622
265,1,1,265,32,1,1,1,662
266,1,1,266,10,0,0,1,476
267,1,1,267,32,0,0,1,733
268,1,1,268,32,0,0,1,683
269,1,1,269,2,0,0,1,473
270,1,1,270,10,1,1,1,1135
271,1,1,271,20,1,1,1,536
272,1,1,272,5,0,0,1,482
273,1,1,273,1,0,0,1,420
274,1,1,274,32,1,1,1,948
275,1,1,275,10,0,0,1,503
276,1,1,276,10,1,1,1,734
277,1,1,277,5,0,0,1,509
278,1,1,278,5,1,1,1,1140
279,1,1,279,32,0,0,1,484
280,1,1,280,2,0,0,1,406
281,1,1,281,32,0,0,1,529
282,1,1,282,5,0,0,0,585
283,1,1,283,10,1,1,1,941
284,1,1,284,10,1,1,1,550
285,1,1,285,32,1,1,1,577
286,1,1,286,20,1,1,1,568
287,1,1,287,10,1,1,1,500
288,1,1,288,5,1,1,1,921
289,1,1,289,5,1,1,1,529
290,1,1,290,10,1,1,1,427
291,1,1,291,20,1,1,1,523
292,1,1,292,5,0,0,1,506
293,1,1,293,1,1,1,1,439
294,1,1,294,2,1,1,1,551
295,1,1,295,32,1,1,1,545
296,1,1,296,2,0,0,1,483
297,1,1,297,2,1,1,1,585
298,1,1,298,1,1,1,1,412
299,1,1,299,20,0,0,1,1413
300,1,1,300,10,1,1,1,548
301,1,1,301,10,1,1,1,465
302,1,1,302,5,1,1,1,582
303,1,1,303,20,1,1,1,462
304,1,1,304,1,1,1,1,465
305,1,1,305,20,1,1,1,557
306,1,1,306,32,1,1,1,1058
307,1,1,307,10,0,0,1,469
308,1,1,308,1,1,1,1,513
309,1,1,309,5,1,1,1,821
310,1,1,310,2,1,1,1,821
311,1,1,311,20,0,0,1,631
312,1,1,312,32,1,1,1,1082
313,1,1,313,20,1,1,1,658
314,1,1,314,32,0,0,1,1450
315,1,1,315,20,1,1,1,463
316,1,1,316,20,0,0,1,810
317,1,1,317,2,1,1,1,557
318,1,1,318,5,0,0,1,436
319,1,1,319,5,0,0,1,524
320,1,1,320,20,1,1,1,831
321,1,1,321,1,0,0,1,428
322,1,1,322,10,0,0,1,540
323,1,1,323,10,1,1,1,716
324,1,1,324,20,1,1,1,611
325,1,1,325,20,1,1,1,558
326,1,1,326,10,0,0,1,486
327,1,1,327,5,1,1,1,502
328,1,1,328,10,1,1,1,1069
329,1,1,329,5,1,1,1,464
330,1,1,330,10,1,1,1,491
331,1,1,331,2,0,0,1,443
332,1,1,332,10,1,1,1,493
333,1,1,333,32,0,0,1,868
334,1,1,334,32,0,0,1,537
335,1,1,335,32,0,0,1,459
336,1,1,336,5,0,0,1,534
337,1,1,337,32,1,1,1,1520
338,1,1,338,32,0,0,1,551
339,1,1,339,10,1,1,1,840
340,1,1,340,32,1,1,1,490
341,1,1,341,5,1,1,1,426
342,1,1,342,5,1,1,1,499
343,1,1,343,10,1,1,1,485
344,1,1,344,32,0,0,1,709
345,1,1,345,10,0,0,1,482
346,1,1,346,10,0,0,1,467
347,1,1,347,20,0,0,1,453
348,1,1,348,20,0,0,0,525
349,1,1,349,20,1,1,1,469
350,1,1,350,5,0,0,1,816
351,1,1,351,2,0,0,1,426
352,1,1,352,10,0,0,1,445
353,1,1,353,2,1,1,1,352
354,1,1,354,20,0,0,1,401
355,1,1,355,20,0,0,1,595
356,1,1,356,32,1,1,1,503
357,1,1,357,20,0,0,1,961
358,1,1,358,32,0,0,1,677
359,1,1,359,32,1,1,1,528
360,1,1,360,10,1,1,1,951
361,1,1,361,20,0,0,1,646
362,1,1,362,2,1,1,1,419
363,1,1,363,20,1,1,1,485
364,1,1,364,10,1,1,1,416
365,1,1,365,10,0,0,1,402
366,1,1,366,32,1,1,1,1409
367,1,1,367,20,0,0,1,749
368,1,1,368,20,0,0,1,455
369,1,1,369,5,0,0,1,370
370,1,1,370,1,0,0,1,353
371,1,1,371,20,1,1,1,478
372,1,1,372,5,1,1,1,678
373,1,1,373,5,1,1,0,494
374,1,1,374,2,0,0,1,606
375,1,1,375,5,1,1,1,426
376,1,1,376,20,0,0,1,1036
377,1,1,377,20,1,1,1,601
378,1,1,378,20,0,0,1,476
379,1,1,379,10,1,1,1,413
380,1,1,380,10,1,1,1,537
381,1,1,381,32,0,0,1,1167
382,1,1,382,2,0,0,1,664
383,1,1,383,20,0,0,1,433
384,1,1,384,32,0,0,1,464
385,1,1,385,2,0,0,1,544
386,1,1,386,2,1,1,1,426
387,1,1,387,2,0,0,1,476
388,1,1,388,10,1,1,1,506
389,1,1,389,2,0,0,0,480
390,1,1,390,20,1,1,1,464
391,1,1,391,20,0,0,1,612
392,1,1,392,5,1,1,1,540
393,1,1,393,10,0,0,1,463
394,1,1,394,2,1,1,1,513
395,1,1,395,32,1,1,1,549
396,1,1,396,2,1,1,1,382
397,1,1,397,1,0,0,1,409
398,1,1,398,5,0,0,1,934
399,1,1,399,20,0,0,1,802
400,1,1,400,1,0,0,1,724
401,1,1,401,1,0,0,1,368
402,1,1,402,20,1,1,1,824
403,1,1,403,5,1,1,1,451
404,1,1,404,20,1,1,1,534
405,1,1,405,5,0,0,1,500
406,1,1,406,2,0,0,1,412
407,1,1,407,5,0,0,1,751
408,1,1,408,10,1,1,1,742
409,1,1,409,10,0,0,1,694
410,1,1,410,5,1,1,1,716
411,1,1,411,32,1,1,1,824
412,1,1,412,32,0,0,1,1123
413,1,1,413,10,1,1,1,628
414,1,1,414,2,0,0,1,661
415,1,1,415,20,1,1,1,471
416,1,1,416,32,1,1,1,529
417,1,1,417,5,0,0,1,622
418,1,1,418,32,1,1,1,910
419,1,1,419,2,1,1,1,447
420,1,1,420,2,0,0,1,393
421,1,1,421,20,0,0,1,453
422,1,1,422,2,1,1,1,565
423,1,1,423,32,1,1,1,399
424,1,1,424,2,1,1,1,524
425,1,1,425,32,1,1,1,483
426,1,1,426,20,0,0,1,617
427,1,1,427,2,1,1,1,366
428,1,1,428,10,1,1,1,1019
429,1,1,429,10,0,0,1,383
430,1,1,430,32,0,0,1,488
431,1,1,431,2,1,1,1,370
432,1,1,432,20,1,1,1,1073
433,1,1,433,5,0,0,1,881
434,1,1,434,5,0,0,1,429
435,1,1,435,10,0,0,1,494
436,1,1,436,5,1,1,1,481
437,1,1,437,32,1,1,1,768
438,1,1,438,5,0,0,1,460
439,1,1,439,2,0,0,1,458
440,1,1,440,10,0,0,1,1072
441,1,1,441,20,1,1,1,840
442,1,1,442,5,1,1,1,517
443,1,1,443,20,1,1,1,449
444,1,1,444,5,1,1,1,535
445,1,1,445,20,1,1,1,1330
446,1,1,446,5,0,0,1,446
447,1,1,447,10,0,0,1,495
448,1,1,448,32,0,0,1,587
449,1,1,449,10,0,0,1,712
450,1,1,450,32,0,0,1,571
451,1,1,451,2,0,0,1,594
452,1,1,452,10,0,0,1,689
453,1,1,453,10,1,1,1,1140
454,1,1,454,32,1,1,1,488
455,1,1,455,32,0,0,1,678
456,1,1,456,2,1,1,1,616
457,1,1,457,2,1,1,1,531
458,1,1,458,20,1,1,1,566
459,1,1,459,10,1,1,1,550
460,1,1,460,1,1,1,1,760
461,1,1,461,5,0,0,1,468
462,1,1,462,10,1,1,1,1151
463,1,1,463,32,1,1,1,922
464,1,1,464,10,0,0,1,536
465,1,1,465,5,0,0,0,383
466,1,1,466,5,1,1,1,683
467,1,1,467,10,0,0,1,734
468,1,1,468,32,1,1,1,446
469,1,1,469,5,0,0,1,421
470,1,1,470,20,0,0,1,420
471,1,1,471,10,1,1,1,718
472,1,1,472,2,1,1,0,456
473,1,1,473,5,1,1,1,456
474,1,1,474,5,0,0,1,655
475,1,1,475,2,0,0,1,434
476,1,1,476,32,1,1,1,1005
477,1,1,477,2,1,1,1,540
478,1,1,478,10,0,0,1,527
479,1,1,479,20,1,1,1,476
480,1,1,480,5,0,0,1,518
481,1,1,481,20,0,0,1,977
482,1,1,482,5,0,0,1,743
483,1,1,483,10,0,0,1,569
484,1,1,484,5,1,1,0,347
485,1,1,485,32,1,1,1,535
486,1,1,486,1,1,1,1,385
487,1,1,487,20,1,1,1,429
488,1,1,488,20,0,0,1,784
489,1,1,489,10,1,1,1,542
490,1,1,490,20,1,1,1,395
491,1,1,491,20,0,0,1,544
492,1,1,492,2,0,0,0,526
493,1,1,493,10,1,1,1,937
494,1,1,494,2,1,1,1,457
495,1,1,495,5,0,0,1,607
496,1,1,496,32,1,1,1,846
497,1,1,497,32,1,1,1,668
498,1,1,498,10,0,0,1,421
499,1,1,499,20,1,1,1,477
500,1,1,500,20,0,0,1,730
501,1,1,501,20,1,1,1,753
502,1,1,502,10,0,0,1,546
503,1,1,503,20,0,0,1,558
504,1,1,504,32,1,1,1,475
505,1,1,505,32,0,0,1,563
506,1,1,506,5,0,0,1,646
507,1,1,507,2,1,1,1,609
508,1,1,508,5,0,0,1,474
509,1,1,509,1,1,1,1,561
510,1,1,510,2,0,0,1,420
511,1,1,511,2,1,1,1,498
512,1,1,512,20,1,1,1,945
513,1,1,513,2,0,0,1,810
514,1,1,514,10,0,0,1,910
515,1,1,515,32,0,0,1,708
516,1,1,516,5,0,0,1,445
517,1,1,517,10,1,1,1,531
518,1,1,518,2,0,0,1,461
519,1,1,519,5,1,1,1,432
520,1,1,520,10,0,0,1,386
521,1,1,521,5,0,0,1,469
522,1,1,522,5,0,0,1,361
523,1,1,523,32,0,0,1,509
524,1,1,524,20,0,0,1,397
525,1,1,525,20,0,0,1,560
526,1,1,526,32,0,0,1,483
527,1,1,527,32,1,1,1,446
528,1,1,528,20,1,1,1,728
529,1,1,529,20,0,0,1,482
530,1,1,530,32,1,1,1,947
531,1,1,531,20,1,1,1,891
532,1,1,532,5,0,0,1,460
533,1,1,533,1,1,1,1,364
534,1,1,534,5,0,0,1,425
535,1,1,535,5,0,0,1,932
536,1,1,536,1,1,1,1,428
537,1,1,537,5,1,1,1,449
538,1,1,538,2,0,0,1,488
539,1,1,539,1,0,0,1,452
540,1,1,540,2,1,1,1,750
541,1,1,541,5,1,1,1,572
542,1,1,542,2,0,0,1,397
543,1,1,543,10,1,1,1,529
544,1,1,544,2,0,0,0,502
545,1,1,545,20,0,0,1,452
546,1,1,546,5,1,1,1,487
547,1,1,547,20,0,0,1,637
548,1,1,548,2,0,0,1,511
549,1,1,549,10,0,0,1,612
550,1,1,550,10,0,0,1,619
551,1,1,551,32,1,1,1,1318
552,1,1,552,10,1,1,1,516
553,1,1,553,20,1,1,1,636
554,1,1,554,32,1,1,1,463
555,1,1,555,10,0,0,1,436
556,1,1,556,20,0,0,1,535
557,1,1,557,2,1,1,1,430
558,1,1,558,10,0,0,1,484
559,1,1,559,10,1,1,1,710
560,1,1,560,32,1,1,1,1105
561,1,1,561,32,1,1,1,918
562,1,1,562,10,0,0,1,650
563,1,1,563,5,1,1,1,671
564,1,1,564,32,0,0,1,1281
565,1,1,565,20,0,0,1,575
566,1,1,566,10,0,0,1,497
567,1,1,567,1,0,0,1,452
568,1,1,568,2,1,1,0,404
569,1,1,569,32,1,1,1,835
570,1,1,570,32,0,0,1,829
571,1,1,571,2,0,0,1,451
572,1,1,572,20,0,0,1,552
573,1,1,573,10,0,0,1,623
574,1,1,574,20,0,0,1,615
575,1,1,575,32,1,1,1,887
576,1,1,576,10,0,0,1,560
577,1,1,577,5,1,1,1,920
578,1,1,578,5,0,0,1,427
579,1,1,579,32,1,1,1,722
580,1,1,580,20,0,0,1,501
581,1,1,581,10,0,0,1,820
582,1,1,582,1,1,1,1,612
583,1,1,583,5,1,1,1,382
584,1,1,584,32,0,0,1,521
585,1,1,585,2,1,1,0,477
586,1,1,586,2,1,1,1,448
587,1,1,587,10,0,0,1,1335
588,1,1,588,5,0,0,1,509
589,1,1,589,2,1,1,1,395
590,1,1,590,20,1,1,1,569
591,1,1,591,5,0,0,1,564
592,1,1,592,10,0,0,1,804
593,1,1,593,5,1,1,1,381
594,1,1,594,5,1,1,1,334
595,1,1,595,2,1,1,1,405
596,1,1,596,20,0,0,1,1228
597,1,1,597,5,1,1,1,511
598,1,1,598,10,1,1,1,759
599,1,1,599,2,1,1,1,417
600,1,1,600,20,1,1,1,448
601,1,1,601,10,0,0,1,822
602,1,1,602,10,0,0,1,588
603,1,1,603,10,0,0,1,446
604,1,1,604,32,0,0,1,411
605,1,1,605,2,0,0,1,370
606,1,1,606,10,1,1,1,520
607,1,1,607,5,1,1,1,678
608,1,1,608,5,1,1,1,458
609,1,1,609,5,0,0,1,497
610,1,1,610,10,0,0,1,498
611,1,1,611,10,0,0,1,670
612,1,1,612,2,0,0,1,370
613,1,1,613,10,1,1,1,622
614,1,1,614,2,1,1,1,374
615,1,1,615,10,0,0,1,590
616,1,1,616,32,0,0,1,589
617,1,1,617,20,1,1,1,521
618,1,1,618,10,0,0,1,522
619,1,1,619,20,1,1,1,990
620,1,1,620,10,1,1,1,484
621,1,1,621,5,1,1,1,429
622,1,1,622,2,1,1,1,390
623,1,1,623,5,1,1,1,497
624,1,1,624,32,1,1,1,1328
625,1,1,625,2,0,0,1,974
626,1,1,626,32,0,0,1,574
627,1,1,627,5,0,0,1,471
628,1,1,628,32,0,0,1,1232
629,1,1,629,10,0,0,1,613
630,1,1,630,32,0,0,1,524
631,1,1,631,20,0,0,1,405
632,1,1,632,5,1,1,1,481
633,1,1,633,32,0,0,1,413
634,1,1,634,32,1,1,1,436
635,1,1,635,1,1,1,1,390
636,1,1,636,10,0,0,1,411
637,1,1,637,10,1,1,1,1123
638,1,1,638,5,1,1,1,481
639,1,1,639,10,1,1,1,486
640,1,1,640,20,1,1,1,687
641,2,1,1,2,0,0,1,1274
642,2,1,2,5,0,0,1,2077
643,2,1,3,5,0,0,1,782
644,2,1,4,5,0,0,1,974
645,2,1,5,20,0,0,1,2314
646,2,1,6,20,0,0,1,1013
647,2,1,7,32,0,0,1,1210
648,2,1,8,32,0,0,1,1375
649,2,1,9,20,0,0,1,2058
650,2,1,10,10,1,1,1,1141
651,2,1,11,32,0,0,1,744
652,2,1,12,10,0,0,1,812
653,2,1,13,10,1,1,1,812
654,2,1,14,20,1,1,1,737
655,2,1,15,20,1,1,1,891
656,2,1,16,32,1,1,0,3016
657,2,1,17,20,0,0,1,1020
658,2,1,18,32,1,1,1,1752
659,2,1,19,2,1,1,1,745
660,2,1,20,1,1,1,1,580
661,2,1,21,2,1,1,1,746
662,2,1,22,32,1,1,1,1483
663,2,1,23,10,1,1,1,491
664,2,1,24,20,0,0,1,957
665,2,1,25,10,1,1,1,507
666,2,1,26,1,1,1,1,614
667,2,1,27,2,0,0,1,643
668,2,1,28,32,1,1,1,815
669,2,1,29,10,1,1,1,611
670,2,1,30,1,1,1,1,517
671,2,1,31,20,0,0,1,631
672,2,1,32,2,0,0,1,718
673,2,1,33,32,1,1,1,995
674,2,1,34,10,1,1,1,722
675,2,1,35,20,0,0,1,787
676,2,1,36,10,0,0,1,795
677,2,1,37,2,0,0,1,670
678,2,1,38,10,1,1,1,526
679,2,1,39,5,0,0,1,1848
680,2,1,40,1,1,1,1,526
681,2,1,41,10,0,0,1,936
682,2,1,42,5,0,0,1,594
683,2,1,43,32,0,0,1,1313
684,2,1,44,5,0,0,1,565
685,2,1,45,10,1,1,1,570
686,2,1,46,20,0,0,1,1107
687,2,1,47,2,1,1,1,676
688,2,1,48,32,0,0,1,1095
689,2,1,49,20,1,1,1,849
690,2,1,50,5,0,0,1,782
691,2,1,51,20,1,1,1,1474
692,2,1,52,32,1,1,1,662
693,2,1,53,5,1,1,1,616
694,2,1,54,5,1,1,1,494
695,2,1,55,32,1,1,1,653
696,2,1,56,10,1,1,1,697
697,2,1,57,20,1,1,1,837
698,2,1,58,10,1,1,1,654
699,2,1,59,5,1,1,1,1059
700,2,1,60,10,0,0,1,522
701,2,1,61,10,0,0,1,767
702,2,1,62,2,0,0,1,474
703,2,1,63,10,1,1,1,1332
704,2,1,64,10,1,1,1,694
705,2,1,65,5,1,1,1,489
706,2,1,66,32,1,1,1,830
707,2,1,67,32,0,0,1,799
708,2,1,68,5,0,0,1,795
709,2,1,69,20,1,1,1,736
710,2,1,70,20,0,0,1,747
711,2,1,71,20,0,0,1,575
712,2,1,72,5,1,1,1,718
713,2,1,73,32,1,1,1,1034
714,2,1,74,20,1,1,1,691
715,2,1,75,5,1,1,1,643
716,2,1,76,2,1,1,1,669
717,2,1,77,5,1,1,1,473
718,2,1,78,20,1,1,1,679
719,2,1,79,32,0,0,1,664
720,2,1,80,10,1,1,1,750
721,2,1,81,2,1,1,1,705
722,2,1,82,32,1,1,1,1432
723,2,1,83,10,1,1,1,535
724,2,1,84,20,1,1,1,522
725,2,1,85,2,1,1,1,618
726,2,1,86,20,1,1,1,1242
727,2,1,87,20,1,1,1,704
728,2,1,88,5,0,0,1,939
729,2,1,89,1,0,0,1,743
730,2,1,90,2,0,0,1,574
731,2,1,91,2,0,0,1,731
732,2,1,92,2,0,0,1,667
733,2,1,93,10,0,0,1,721
734,2,1,94,2,1,1,1,681
735,2,1,95,10,0,0,1,662
736,2,1,96,10,0,0,1,611
737,2,1,97,32,1,1,1,1291
738,2,1,98,20,1,1,1,840
739,2,1,99,2,1,1,1,465
740,2,1,100,2,0,0,1,543
741,2,1,101,10,0,0,1,874
742,2,1,102,10,0,0,1,823
743,2,1,103,20,1,1,1,1235
744,2,1,104,32,0,0,1,908
745,2,1,105,20,1,1,1,885
746,2,1,106,10,0,0,1,779
747,2,1,107,5,1,1,1,818
748,2,1,108,1,0,0,1,1443
749,2,1,109,20,1,1,1,861
750,2,1,110,32,0,0,1,762
751,2,1,111,5,0,0,1,628
752,2,1,112,20,0,0,1,605
753,2,1,113,32,1,1,1,1011
754,2,1,114,10,0,0,1,559
755,2,1,115,2,1,1,1,459
756,2,1,116,32,0,0,1,710
757,2,1,117,32,0,0,1,603
758,2,1,118,32,1,1,1,729
759,2,1,119,2,1,1,1,950
760,2,1,120,5,0,0,1,730
761,2,1,121,10,0,0,1,725
762,2,1,122,2,1,1,1,640
763,2,1,123,20,0,0,1,1150
764,2,1,124,10,1,1,1,517
765,2,1,125,32,0,0,1,915
766,2,1,126,5,0,0,1,650
767,2,1,127,1,0,0,1,507
768,2,1,128,2,1,1,1,567
769,2,1,129,20,1,1,1,829
770,2,1,130,20,0,0,1,824
771,2,1,131,10,1,1,1,590
772,2,1,132,32,0,0,1,557
773,2,1,133,2,1,1,1,494
774,2,1,134,20,0,0,1,637
775,2,1,135,2,1,1,1,505
776,2,1,136,20,0,0,1,623
777,2,1,137,20,0,0,1,1008
778,2,1,138,32,1,1,1,1083
779,2,1,139,5,1,1,1,818
780,2,1,140,32,0,0,1,1069
781,2,1,141,20,0,0,1,528
782,2,1,142,20,0,0,1,572
783,2,1,143,1,1,1,1,486
784,2,1,144,32,0,0,1,1317
785,2,1,145,2,0,0,1,876
786,2,1,146,5,1,1,1,599
787,2,1,147,32,1,1,1,673
788,2,1,148,20,0,0,1,857
789,2,1,149,5,0,0,1,607
790,2,1,150,32,1,1,1,490
791,2,1,151,5,0,0,1,918
792,2,1,152,2,0,0,1,540
793,2,1,153,10,1,1,1,910
794,2,1,154,5,0,0,1,657
795,2,1,155,5,0,0,1,716
796,2,1,156,20,0,0,1,865
797,2,1,157,32,1,1,1,598
798,2,1,158,20,1,1,1,964
799,2,1,159,20,1,1,1,988
800,2,1,160,32,1,1,1,1312
801,2,1,161,10,0,0,1,584
802,2,1,162,2,0,0,1,878
803,2,1,163,2,1,1,1,616
804,2,1,164,10,1,1,1,1177
805,2,1,165,32,0,0,1,886
806,2,1,166,5,0,0,1,552
807,2,1,167,2,1,1,1,934
808,2,1,168,2,1,1,1,685
809,2,1,169,32,0,0,1,610
810,2,1,170,5,1,1,1,778
811,2,1,171,5,0,0,1,540
812,2,1,172,5,1,1,1,761
813,2,1,173,10,0,0,1,485
814,2,1,174,20,0,0,1,574
815,2,1,175,10,0,0,1,660
816,2,1,176,2,1,1,1,499
817,2,1,177,5,0,0,1,857
818,2,1,178,5,1,1,1,535
819,2,1,179,5,1,1,1,677
820,2,1,180,1,0,0,1,527
821,2,1,181,20,1,1,1,944
822,2,1,182,5,0,0,1,709
823,2,1,183,2,1,1,1,660
824,2,1,184,5,1,1,1,553
825,2,1,185,5,1,1,1,643
826,2,1,186,32,0,0,1,1351
827,2,1,187,5,0,0,1,701
828,2,1,188,5,1,1,1,651
829,2,1,189,2,1,1,1,693
830,2,1,190,5,0,0,1,496
831,2,1,191,32,1,1,1,1196
832,2,1,192,20,0,0,1,892
833,2,1,193,5,1,1,1,680
834,2,1,194,1,1,1,1,542
835,2,1,195,5,0,0,1,704
836,2,1,196,2,0,0,1,637
837,2,1,197,5,0,0,1,579
838,2,1,198,32,0,0,1,785
839,2,1,199,20,1,1,1,605
840,2,1,200,2,0,0,1,547
841,2,1,201,5,0,0,1,918
842,2,1,202,5,0,0,1,531
843,2,1,203,2,0,0,1,442
844,2,1,204,2,1,1,1,671
845,2,1,205,2,0,0,1,648
846,2,1,206,5,1,1,1,420
847,2,1,207,32,1,1,1,677
848,2,1,208,20,0,0,1,496
849,2,1,209,10,1,1,1,657
850,2,1,210,10,0,0,1,774
851,2,1,211,20,0,0,1,698
852,2,1,212,32,0,0,1,1267
853,2,1,213,5,1,1,1,474
854,2,1,214,10,1,1,1,585
855,2,1,215,2,1,1,1,583
856,2,1,216,10,0,0,1,504
857,2,1,217,10,0,0,1,640
858,2,1,218,32,0,0,1,941
859,2,1,219,32,0,0,1,558
860,2,1,220,32,0,0,1,891
861,2,1,221,2,1,1,1,465
862,2,1,222,20,0,0,1,959
863,2,1,223,2,0,0,1,538
864,2,1,224,1,0,0,1,419
865,2,1,225,5,1,1,1,635
866,2,1,226,2,0,0,1,593
867,2,1,227,32,1,1,1,819
868,2,1,228,20,0,0,1,536
869,2,1,229,32,1,1,1,640
870,2,1,230,10,1,1,1,742
871,2,1,231,20,0,0,1,659
872,2,1,232,2,0,0,1,1064
873,2,1,233,32,0,0,1,1528
874,2,1,234,20,1,1,1,575
875,2,1,235,5,1,1,1,485
876,2,1,236,32,1,1,1,1116
877,2,1,237,32,0,0,1,544
878,2,1,238,1,1,1,1,618
879,2,1,239,32,1,1,1,843
880,2,1,240,2,0,0,1,571
881,2,1,241,20,1,1,1,972
882,2,1,242,10,1,1,1,587
883,2,1,243,2,0,0,1,635
884,2,1,244,2,1,1,1,522
885,2,1,245,10,1,1,1,616
886,2,1,246,2,1,1,1,542
887,2,1,247,2,1,1,1,821
888,2,1,248,20,1,1,1,694
889,2,1,249,20,0,0,1,1133
890,2,1,250,20,1,1,1,578
891,2,1,251,32,0,0,1,503
892,2,1,252,1,0,0,1,567
893,2,1,253,5,0,0,1,695
894,2,1,254,10,0,0,1,623
895,2,1,255,10,1,1,1,862
896,2,1,256,2,0,0,1,1027
897,2,1,257,1,1,1,1,530
898,2,1,258,2,1,1,1,937
899,2,1,259,5,0,0,1,727
900,2,1,260,2,1,1,1,657
901,2,1,261,1,0,0,1,553
902,2,1,262,5,1,1,1,720
903,2,1,263,5,0,0,1,688
904,2,1,264,20,1,1,1,1008
905,2,1,265,20,1,1,1,874
906,2,1,266,32,0,0,1,573
907,2,1,267,5,1,1,1,555
908,2,1,268,10,0,0,1,973
909,2,1,269,32,0,0,1,971
910,2,1,270,32,1,1,1,1848
911,2,1,271,5,1,1,1,599
912,2,1,272,10,0,0,1,859
913,2,1,273,1,0,0,1,559
914,2,1,274,5,0,0,1,556
915,2,1,275,2,1,1,1,836
916,2,1,276,32,1,1,1,961
917,2,1,277,5,0,0,1,702
918,2,1,278,10,1,1,1,773
919,2,1,279,5,0,0,1,851
920,2,1,280,32,0,0,1,614
921,2,1,281,20,0,0,1,650
922,2,1,282,32,1,1,1,907
923,2,1,283,20,0,0,1,584
924,2,1,284,2,0,0,1,848
925,2,1,285,20,1,1,1,530
926,2,1,286,2,1,1,1,909
927,2,1,287,2,0,0,1,681
928,2,1,288,10,0,0,1,634
929,2,1,289,20,1,1,1,851
930,2,1,290,32,1,1,1,673
931,2,1,291,2,1,1,1,718
932,2,1,292,32,1,1,1,593
933,2,1,293,1,0,0,1,606
934,2,1,294,2,0,0,1,546
935,2,1,295,2,0,0,1,580
936,2,1,296,2,1,1,1,761
937,2,1,297,5,1,1,1,537
938,2,1,298,1,0,0,1,511
939,2,1,299,20,0,0,1,759
940,2,1,300,5,0,0,1,1344
941,2,1,301,1,1,1,1,511
942,2,1,302,2,1,1,1,635
943,2,1,303,10,1,1,1,855
944,2,1,304,20,0,0,1,522
945,2,1,305,32,1,1,1,571
946,2,1,306,2,1,1,1,558
947,2,1,307,20,1,1,1,862
948,2,1,308,5,0,0,1,959
949,2,1,309,2,0,0,1,622
950,2,1,310,2,1,1,1,504
951,2,1,311,20,1,1,1,715
952,2,1,312,10,1,1,1,816
953,2,1,313,5,1,1,1,521
954,2,1,314,32,0,0,1,1757
955,2,1,315,10,1,1,1,686
956,2,1,316,1,0,0,1,542
957,2,1,317,10,1,1,1,910
958,2,1,318,5,1,1,1,503
959,2,1,319,5,0,0,1,811
960,2,1,320,20,0,0,1,580
961,2,1,321,20,1,1,1,597
962,2,1,322,20,1,1,1,1142
963,2,1,323,32,0,0,1,643
964,2,1,324,20,0,0,1,876
965,2,1,325,5,1,1,1,555
966,2,1,326,5,0,0,1,622
967,2,1,327,2,0,0,1,529
968,2,1,328,32,0,0,1,915
969,2,1,329,1,0,0,1,628
970,2,1,330,32,0,0,1,696
971,2,1,331,2,1,1,1,687
972,2,1,332,10,1,1,1,884
973,2,1,333,20,0,0,1,983
974,2,1,334,32,0,0,1,828
975,2,1,335,5,1,1,1,670
976,2,1,336,5,0,0,1,468
977,2,1,337,10,0,0,1,523
978,2,1,338,2,1,1,1,545
979,2,1,339,32,1,1,1,1132
980,2,1,340,5,1,1,1,718
981,2,1,341,10,0,0,1,798
982,2,1,342,10,1,1,1,618
983,2,1,343,20,0,0,1,618
984,2,1,344,2,0,0,1,475
985,2,1,345,20,0,0,1,553
986,2,1,346,10,1,1,1,689
987,2,1,347,32,1,1,1,782
988,2,1,348,20,0,0,1,542
989,2,1,349,20,1,1,1,531
990,2,1,350,32,1,1,1,757
991,2,1,351,20,1,1,1,554
992,2,1,352,20,1,1,0,582
993,2,1,353,10,0,0,1,730
994,2,1,354,10,0,0,1,792
995,2,1,355,10,0,0,1,894
996,2,1,356,20,0,0,1,740
997,2,1,357,5,0,0,1,794
998,2,1,358,2,0,0,1,590
999,2,1,359,5,1,1,1,1060
1000,2,1,360,2,0,0,1,652
1001,2,1,361,5,0,0,1,1172
1002,2,1,362,32,1,1,1,1133
1003,2,1,363,20,0,0,1,839
1004,2,1,364,20,1,1,1,572
1005,2,1,365,10,1,1,1,1276
1006,2,1,366,5,0,0,1,2171
1007,2,1,367,5,0,0,1,1425
1008,2,1,368,2,0,0,1,2676
1009,2,1,369,5,1,1,1,526
1010,2,1,370,32,0,0,1,1272
1011,2,1,371,32,0,0,1,3686
1012,2,1,372,10,1,1,1,2081
1013,2,1,373,1,0,0,1,1253
1014,2,1,374,10,1,1,1,1985
1015,2,1,375,10,1,1,1,1261
1016,2,1,376,10,1,1,1,1073
1017,2,1,377,5,0,0,1,1067
1018,2,1,378,10,0,0,1,2079
1019,2,1,379,32,0,0,1,696
1020,2,1,380,10,1,1,1,803
1021,2,1,381,2,0,0,1,530
1022,2,1,382,10,0,0,1,2175
1023,2,1,383,10,0,0,1,1501
1024,2,1,384,10,0,0,1,579
1025,2,1,385,10,1,1,1,1572
1026,2,1,386,1,1,1,1,506
1027,2,1,387,10,0,0,1,693
1028,2,1,388,5,1,1,1,1353
1029,2,1,389,32,0,0,1,1471
1030,2,1,390,2,1,1,1,1091
1031,2,1,391,5,0,0,1,483
1032,2,1,392,10,0,0,1,497
1033,2,1,393,10,0,0,1,766
1034,2,1,394,32,0,0,1,1624
1035,2,1,395,32,1,1,1,705
1036,2,1,396,32,1,1,1,1831
1037,2,1,397,2,0,0,1,1199
1038,2,1,398,1,1,1,1,663
1039,2,1,399,32,1,1,1,632
1040,2,1,400,20,1,1,1,673
1041,2,1,401,5,1,1,1,1935
1042,2,1,402,5,0,0,1,653
1043,2,1,403,10,0,0,1,1080
1044,2,1,404,10,0,0,1,962
1045,2,1,405,32,1,1,1,650
1046,2,1,406,32,0,0,1,1091
1047,2,1,407,20,1,1,1,587
1048,2,1,408,2,1,1,1,691
1049,2,1,409,32,1,1,1,525
1050,2,1,410,5,1,1,1,771
1051,2,1,411,5,0,0,1,732
1052,2,1,412,10,1,1,1,520
1053,2,1,413,5,1,1,1,759
1054,2,1,414,1,0,0,1,536
1055,2,1,415,20,1,1,1,539
1056,2,1,416,20,0,0,1,669
1057,2,1,417,5,1,1,1,551
1058,2,1,418,2,0,0,1,635
1059,2,1,419,2,1,1,1,696
1060,2,1,420,5,1,1,1,610
1061,2,1,421,5,0,0,1,852
1062,2,1,422,2,0,0,1,550
1063,2,1,423,5,0,0,1,633
1064,2,1,424,10,1,1,1,552
1065,2,1,425,20,1,1,1,517
1066,2,1,426,2,1,1,1,632
1067,2,1,427,5,0,0,1,596
1068,2,1,428,10,1,1,1,671
1069,2,1,429,32,1,1,1,550
1070,2,1,430,2,0,0,1,465
1071,2,1,431,20,1,1,1,889
1072,2,1,432,1,1,1,1,605
1073,2,1,433,32,1,1,1,672
1074,2,1,434,10,0,0,1,556
1075,2,1,435,1,1,1,1,446
1076,2,1,436,5,0,0,1,786
1077,2,1,437,32,0,0,1,1362
1078,2,1,438,32,0,0,1,554
1079,2,1,439,2,0,0,1,517
1080,2,1,440,10,1,1,1,631
1081,2,1,441,32,0,0,1,983
1082,2,1,442,2,0,0,1,581
1083,2,1,443,32,0,0,1,669
1084,2,1,444,10,0,0,1,1623
1085,2,1,445,10,1,1,1,703
1086,2,1,446,2,1,1,1,693
1087,2,1,447,1,1,1,1,483
1088,2,1,448,32,0,0,1,1127
1089,2,1,449,2,0,0,1,625
1090,2,1,450,32,0,0,1,896
1091,2,1,451,32,1,1,1,778
1092,2,1,452,2,0,0,1,806
1093,2,1,453,2,1,1,1,545
1094,2,1,454,2,0,0,1,823
1095,2,1,455,10,0,0,1,651
1096,2,1,456,1,0,0,1,510
1097,2,1,457,5,1,1,1,496
1098,2,1,458,2,1,1,1,1028
1099,2,1,459,2,1,1,1,833
1100,2,1,460,2,1,1,1,794
1101,2,1,461,32,1,1,1,621
1102,2,1,462,32,1,1,1,578
1103,2,1,463,10,1,1,1,529
1104,2,1,464,10,1,1,1,1068
1105,2,1,465,2,1,1,1,519
1106,2,1,466,20,1,1,1,569
1107,2,1,467,20,0,0,1,552
1108,2,1,468,32,1,1,1,637
1109,2,1,469,5,1,1,1,820
1110,2,1,470,20,0,0,1,868
1111,2,1,471,5,1,1,1,962
1112,2,1,472,20,1,1,1,834
1113,2,1,473,10,1,1,1,575
1114,2,1,474,2,0,0,1,663
1115,2,1,475,1,1,1,1,549
1116,2,1,476,5,1,1,1,395
1117,2,1,477,20,1,1,1,759
1118,2,1,478,10,0,0,1,703
1119,2,1,479,32,1,1,1,620
1120,2,1,480,2,1,1,1,538
1121,2,1,481,10,0,0,1,1351
1122,2,1,482,10,1,1,1,583
1123,2,1,483,10,1,1,1,398
1124,2,1,484,20,1,1,1,853
1125,2,1,485,2,0,0,1,747
1126,2,1,486,32,0,0,1,1274
1127,2,1,487,20,1,1,1,701
1128,2,1,488,20,0,0,1,795
1129,2,1,489,20,0,0,1,587
1130,2,1,490,10,0,0,1,655
1131,2,1,491,10,0,0,1,616
1132,2,1,492,20,0,0,1,532
1133,2,1,493,20,0,0,1,1194
1134,2,1,494,5,1,1,1,1116
1135,2,1,495,2,0,0,1,609
1136,2,1,496,1,0,0,1,552
1137,2,1,497,20,1,1,1,975
1138,2,1,498,20,1,1,1,690
1139,2,1,499,32,1,1,1,769
1140,2,1,500,20,0,0,1,860
1141,2,1,501,2,0,0,1,603
1142,2,1,502,1,1,1,1,512
1143,2,1,503,2,0,0,1,608
1144,2,1,504,2,1,1,1,607
1145,2,1,505,10,1,1,1,773
1146,2,1,506,5,1,1,1,994
1147,2,1,507,2,0,0,1,787
1148,2,1,508,20,1,1,1,1007
1149,2,1,509,10,0,0,1,584
1150,2,1,510,20,0,0,1,1345
1151,2,1,511,2,1,1,1,722
1152,2,1,512,5,1,1,1,743
1153,2,1,513,32,1,1,1,1421
1154,2,1,514,20,0,0,1,1215
1155,2,1,515,20,0,0,1,771
1156,2,1,516,5,1,1,1,735
1157,2,1,517,10,1,1,1,632
1158,2,1,518,5,0,0,1,747
1159,2,1,519,20,1,1,1,1282
1160,2,1,520,10,1,1,1,818
1161,2,1,521,10,1,1,1,951
1162,2,1,522,1,0,0,1,612
1163,2,1,523,32,0,0,1,824
1164,2,1,524,32,1,1,1,760
1165,2,1,525,10,0,0,1,591
1166,2,1,526,1,1,1,1,597
1167,2,1,527,2,0,0,1,780
1168,2,1,528,20,0,0,1,655
1169,2,1,529,32,0,0,1,958
1170,2,1,530,32,0,0,1,628
1171,2,1,531,32,0,0,1,557
1172,2,1,532,32,0,0,1,761
1173,2,1,533,20,0,0,1,708
1174,2,1,534,10,0,0,1,772
1175,2,1,535,2,1,1,1,683
1176,2,1,536,10,1,1,1,1080
1177,2,1,537,20,1,1,1,840
1178,2,1,538,2,0,0,1,542
1179,2,1,539,10,0,0,1,706
1180,2,1,540,1,1,1,1,683
1181,2,1,541,2,1,1,1,498
1182,2,1,542,20,0,0,1,614
1183,2,1,543,10,1,1,1,954
1184,2,1,544,5,1,1,1,650
1185,2,1,545,10,0,0,1,553
1186,2,1,546,5,1,1,1,753
1187,2,1,547,10,0,0,1,552
1188,2,1,548,2,1,1,1,1002
1189,2,1,549,2,0,0,1,1123
1190,2,1,550,1,0,0,1,847
1191,2,1,551,10,1,1,1,873
1192,2,1,552,5,0,0,1,1501
1193,2,1,553,20,1,1,1,839
1194,2,1,554,32,1,1,1,1758
1195,2,1,555,5,0,0,1,1235
1196,2,1,556,2,1,1,1,1342
1197,2,1,557,5,1,1,1,1172
1198,2,1,558,2,0,0,1,1139
1199,2,1,559,10,0,0,1,629
1200,2,1,560,5,1,1,1,1674
1201,2,1,561,32,0,0,1,1042
1202,2,1,562,32,0,0,1,641
1203,2,1,563,20,1,1,1,802
1204,2,1,564,5,1,1,1,706
1205,2,1,565,10,0,0,1,1344
1206,2,1,566,32,1,1,1,1031
1207,2,1,567,2,0,0,1,994
1208,2,1,568,2,0,0,1,718
1209,2,1,569,32,0,0,1,2281
1210,2,1,570,5,0,0,1,1181
1211,2,1,571,32,1,1,1,643
1212,2,1,572,10,0,0,1,1227
1213,2,1,573,20,0,0,1,1219
1214,2,1,574,5,0,0,1,896
1215,2,1,575,5,0,0,1,1307
1216,2,1,576,2,1,1,1,843
1217,2,1,577,5,1,1,1,1077
1218,2,1,578,2,0,0,1,1129
1219,2,1,579,20,1,1,1,2494
1220,2,1,580,2,1,1,1,1788
1221,2,1,581,32,1,1,1,879
1222,2,1,582,5,0,0,1,619
1223,2,1,583,10,0,0,1,608
1224,2,1,584,20,1,1,1,658
1225,2,1,585,32,1,1,1,1379
1226,2,1,586,2,0,0,1,537
1227,2,1,587,32,0,0,1,1377
1228,2,1,588,10,0,0,1,1675
1229,2,1,589,20,1,1,1,833
1230,2,1,590,20,0,0,1,1009
1231,2,1,591,5,1,1,1,668
1232,2,1,592,10,1,1,1,682
1233,2,1,593,10,0,0,1,823
1234,2,1,594,20,0,0,1,1531
1235,2,1,595,20,1,1,1,1243
1236,2,1,596,2,0,0,1,786
1237,2,1,597,20,1,1,1,1063
1238,2,1,598,2,1,1,1,2134
1239,2,1,599,5,1,1,1,664
1240,2,1,600,32,0,0,1,1328
1241,2,1,601,5,0,0,1,2863
1242,2,1,602,5,0,0,1,2069
1243,2,1,603,10,0,0,1,1152
1244,2,1,604,10,1,1,1,1691
1245,2,1,605,2,0,0,1,625
1246,2,1,606,32,1,1,1,1210
1247,2,1,607,5,1,1,1,760
1248,2,1,608,2,0,0,1,4569
1249,2,1,609,20,0,0,1,525
1250,2,1,610,20,0,0,1,778
1251,2,1,611,10,0,0,1,816
1252,2,1,612,32,0,0,1,1879
1253,2,1,613,5,1,1,1,796
1254,2,1,614,2,1,1,1,487
1255,2,1,615,2,1,1,1,2125
1256,2,1,616,2,1,1,1,611
1257,2,1,617,5,1,1,1,516
1258,2,1,618,32,0,0,1,742
1259,2,1,619,32,1,1,1,1517
1260,2,1,620,1,1,1,1,760
1261,2,1,621,5,0,0,1,640
1262,2,1,622,10,1,1,1,794
1263,2,1,623,32,1,1,1,2166
1264,2,1,624,32,0,0,1,2476
1265,2,1,625,20,1,1,1,3533
1266,2,1,626,10,0,0,1,933
1267,2,1,627,5,1,1,1,732
1268,2,1,628,10,1,1,1,587
1269,2,1,629,1,1,1,1,1078
1270,2,1,630,2,0,0,1,2885
1271,2,1,631,20,0,0,1,830
1272,2,1,632,5,1,1,1,894
1273,2,1,633,5,0,0,1,1817
1274,2,1,634,1,0,0,1,2775
1275,2,1,635,1,0,0,1,654
1276,2,1,636,32,1,1,1,982
1277,2,1,637,32,1,1,1,1069
1278,2,1,638,32,1,1,1,604
1279,2,1,639,20,1,1,1,1346
1280,2,1,640,10,0,0,1,467
1281,3,1,1,5,0,3,0,4993
1282,3,1,2,32,1,1,1,1772
1283,3,1,3,10,1,1,1,707
1284,3,1,4,32,0,0,1,782
1285,3,1,5,10,0,0,1,989
1286,3,1,6,20,1,1,1,705
1287,3,1,7,2,1,1,1,689
1288,3,1,8,10,0,0,1,1070
1289,3,1,9,5,1,1,1,635
1290,3,1,10,32,0,0,1,833
1291,3,1,11,10,0,0,1,572
1292,3,1,12,2,1,1,1,477
1293,3,1,13,10,0,0,1,489
1294,3,1,14,20,0,0,1,779
1295,3,1,15,32,1,1,1,861
1296,3,1,16,2,0,0,1,460
1297,3,1,17,2,0,0,1,451
1298,3,1,18,10,1,1,1,761
1299,3,1,19,20,1,1,1,1165
1300,3,1,20,32,0,0,1,694
1301,3,1,21,1,0,0,1,611
1302,3,1,22,10,0,0,1,579
1303,3,1,23,5,1,1,1,569
1304,3,1,24,5,1,1,1,645
1305,3,1,25,32,0,0,1,965
1306,3,1,26,32,1,1,1,1520
1307,3,1,27,5,0,0,1,503
1308,3,1,28,20,0,0,1,1189
1309,3,1,29,32,0,0,1,816
1310,3,1,30,10,0,0,1,741
1311,3,1,31,10,1,1,1,703
1312,3,1,32,32,1,1,1,678
1313,3,1,33,1,1,1,1,469
1314,3,1,34,10,0,0,1,801
1315,3,1,35,2,1,1,1,674
1316,3,1,36,10,0,0,1,564
1317,3,1,37,20,1,1,1,832
1318,3,1,38,5,0,0,1,483
1319,3,1,39,1,1,1,1,442
1320,3,1,40,10,0,0,1,473
1321,3,1,41,32,0,0,1,811
1322,3,1,42,5,1,1,0,463
1323,3,1,43,20,0,0,1,781
1324,3,1,44,20,1,1,1,567
1325,3,1,45,2,0,0,1,618
1326,3,1,46,20,0,0,1,494
1327,3,1,47,10,0,0,1,560
1328,3,1,48,32,1,1,1,1075
1329,3,1,49,32,0,0,1,2995
1330,3,1,50,5,0,0,1,780
1331,3,1,51,2,1,1,1,543
1332,3,1,52,2,0,0,1,622
1333,3,1,53,20,0,0,1,517
1334,3,1,54,2,0,0,1,503
1335,3,1,55,10,0,0,1,940
1336,3,1,56,5,0,0,1,557
1337,3,1,57,32,1,1,1,1306
1338,3,1,58,2,1,1,1,502
1339,3,1,59,10,0,0,1,554
1340,3,1,60,20,1,1,1,495
1341,3,1,61,32,1,1,1,536
1342,3,1,62,10,1,1,1,1019
1343,3,1,63,32,1,1,1,468
1344,3,1,64,10,1,1,1,591
1345,3,1,65,2,0,0,1,577
1346,3,1,66,5,0,0,1,518
1347,3,1,67,32,0,0,1,1336
1348,3,1,68,20,0,0,1,1059
1349,3,1,69,20,1,1,1,591
1350,3,1,70,2,0,0,1,512
1351,3,1,71,20,0,0,1,616
1352,3,1,72,10,1,1,1,427
1353,3,1,73,32,1,1,1,558
1354,3,1,74,20,1,1,1,461
1355,3,1,75,32,1,1,1,783
1356,3,1,76,10,1,1,1,755
1357,3,1,77,2,1,1,1,435
1358,3,1,78,2,1,1,1,483
1359,3,1,79,32,0,0,1,1409
1360,3,1,80,32,0,0,1,985
1361,3,1,81,5,1,1,1,750
1362,3,1,82,2,1,1,1,457
1363,3,1,83,10,0,0,1,564
1364,3,1,84,20,1,1,1,461
1365,3,1,85,2,1,1,1,418
1366,3,1,86,2,1,1,1,400
1367,3,1,87,5,1,1,1,447
1368,3,1,88,2,1,1,1,383
1369,3,1,89,32,0,0,1,508
1370,3,1,90,20,0,0,1,661
1371,3,1,91,20,0,0,1,480
1372,3,1,92,20,0,0,1,1159
1373,3,1,93,10,1,1,1,448
1374,3,1,94,10,1,1,1,577
1375,3,1,95,32,1,1,1,1613
1376,3,1,96,20,1,1,1,879
1377,3,1,97,32,1,1,0,1064
1378,3,1,98,5,0,0,1,714
1379,3,1,99,5,0,0,1,484
1380,3,1,100,20,0,0,1,787
1381,3,1,101,32,1,1,1,843
1382,3,1,102,2,1,1,1,542
1383,3,1,103,20,0,0,1,1041
1384,3,1,104,10,0,0,1,631
1385,3,1,105,1,1,1,1,427
1386,3,1,106,2,0,0,1,489
1387,3,1,107,1,0,0,1,421
1388,3,1,108,2,1,1,1,622
1389,3,1,109,2,1,1,1,463
1390,3,1,110,2,0,0,1,482
1391,3,1,111,10,0,0,1,436
1392,3,1,112,32,1,1,1,730
1393,3,1,113,10,1,1,1,500
1394,3,1,114,20,0,0,1,689
1395,3,1,115,20,1,1,1,570
1396,3,1,116,20,1,1,1,817
1397,3,1,117,20,1,1,1,540
1398,3,1,118,1,1,1,1,423
1399,3,1,119,10,1,1,1,507
1400,3,1,120,2,1,1,1,432
1401,3,1,121,20,1,1,1,1816
1402,3,1,122,5,1,1,1,605
1403,3,1,123,10,0,0,1,731
1404,3,1,124,2,0,0,1,571
1405,3,1,125,2,0,0,1,564
1406,3,1,126,32,1,1,1,1115
1407,3,1,127,2,0,0,1,522
1408,3,1,128,5,1,1,1,563
1409,3,1,129,2,1,1,1,811
1410,3,1,130,5,0,0,1,494
1411,3,1,131,2,0,0,1,548
1412,3,1,132,5,1,1,1,894
1413,3,1,133,5,0,0,1,992
1414,3,1,134,20,0,0,1,573
1415,3,1,135,5,1,1,1,547
1416,3,1,136,32,1,1,1,691
1417,3,1,137,32,1,1,1,947
1418,3,1,138,5,1,1,1,1133
1419,3,1,139,5,1,1,1,436
1420,3,1,140,10,0,0,1,455
1421,3,1,141,10,1,1,1,820
1422,3,1,142,10,1,1,1,747
1423,3,1,143,20,0,0,1,962
1424,3,1,144,32,0,0,1,772
1425,3,1,145,1,1,1,1,468
1426,3,1,146,20,0,0,1,596
1427,3,1,147,32,1,1,1,2614
1428,3,1,148,20,0,0,1,604
1429,3,1,149,10,0,0,1,538
1430,3,1,150,2,0,0,1,551
1431,3,1,151,5,0,0,1,506
1432,3,1,152,20,0,0,1,1050
1433,3,1,153,32,0,0,1,800
1434,3,1,154,10,1,1,1,738
1435,3,1,155,5,1,1,1,584
1436,3,1,156,32,0,0,1,802
1437,3,1,157,2,1,1,1,533
1438,3,1,158,20,0,0,1,840
1439,3,1,159,20,1,1,1,779
1440,3,1,160,2,1,1,1,506
1441,3,1,161,32,1,1,1,549
1442,3,1,162,2,1,1,1,605
1443,3,1,163,5,0,0,1,505
1444,3,1,164,20,0,0,1,1158
1445,3,1,165,20,1,1,1,848
1446,3,1,166,10,0,0,1,584
1447,3,1,167,10,1,1,1,619
1448,3,1,168,1,0,0,1,439
1449,3,1,169,5,0,0,1,687
1450,3,1,170,1,0,0,1,476
1451,3,1,171,10,0,0,1,857
1452,3,1,172,32,0,0,1,535
1453,3,1,173,5,1,1,1,481
1454,3,1,174,10,1,1,1,439
1455,3,1,175,5,0,0,1,669
1456,3,1,176,5,0,0,1,688
1457,3,1,177,10,1,1,1,753
1458,3,1,178,32,0,0,1,580
1459,3,1,179,32,0,0,1,655
1460,3,1,180,10,1,1,1,1279
1461,3,1,181,20,0,0,1,922
1462,3,1,182,5,0,0,1,505
1463,3,1,183,20,0,0,1,775
1464,3,1,184,20,1,1,1,534
1465,3,1,185,10,1,1,1,826
1466,3,1,186,10,0,0,1,513
1467,3,1,187,2,1,1,1,439
1468,3,1,188,1,1,1,1,440
1469,3,1,189,32,1,1,1,930
1470,3,1,190,2,0,0,1,456
1471,3,1,191,10,0,0,1,659
1472,3,1,192,20,1,1,1,774
1473,3,1,193,2,1,1,1,527
1474,3,1,194,2,0,0,1,536
1475,3,1,195,20,0,0,1,557
1476,3,1,196,20,0,0,1,1044
1477,3,1,197,32,0,0,1,515
1478,3,1,198,10,1,1,1,545
1479,3,1,199,32,1,1,1,607
1480,3,1,200,5,0,0,1,479
1481,3,1,201,1,0,0,1,481
1482,3,1,202,20,1,1,1,814
1483,3,1,203,32,1,1,1,505
1484,3,1,204,2,1,1,1,507
1485,3,1,205,5,0,0,1,510
1486,3,1,206,20,0,0,1,647
1487,3,1,207,2,0,0,1,462
1488,3,1,208,5,0,0,0,598
1489,3,1,209,10,1,1,1,970
1490,3,1,210,10,0,0,1,566
1491,3,1,211,20,0,0,1,646
1492,3,1,212,32,0,0,1,558
1493,3,1,213,32,0,0,1,791
1494,3,1,214,20,1,1,1,881
1495,3,1,215,32,1,1,1,765
1496,3,1,216,32,1,1,1,764
1497,3,1,217,5,0,0,1,537
1498,3,1,218,32,1,1,1,694
1499,3,1,219,2,0,0,1,619
1500,3,1,220,2,0,0,1,578
1501,3,1,221,20,0,0,1,1075
1502,3,1,222,20,1,1,1,509
1503,3,1,223,32,0,0,1,833
1504,3,1,224,5,1,1,1,610
1505,3,1,225,20,1,1,1,478
1506,3,1,226,10,1,1,1,764
1507,3,1,227,5,1,1,1,531
1508,3,1,228,20,1,1,1,1203
1509,3,1,229,32,0,0,1,543
1510,3,1,230,32,0,0,1,532
1511,3,1,231,5,1,1,1,507
1512,3,1,232,10,0,0,1,471
1513,3,1,233,10,0,0,1,506
1514,3,1,234,20,1,1,1,574
1515,3,1,235,5,1,1,1,548
1516,3,1,236,1,1,1,1,443
1517,3,1,237,2,1,1,1,581
1518,3,1,238,10,1,1,1,496
1519,3,1,239,2,0,0,1,478
1520,3,1,240,20,0,0,1,599
1521,3,1,241,32,1,1,1,697
1522,3,1,242,5,1,1,1,504
1523,3,1,243,2,0,0,1,644
1524,3,1,244,20,1,1,1,1371
1525,3,1,245,10,1,1,1,752
1526,3,1,246,5,0,0,1,591
1527,3,1,247,1,0,0,1,432
1528,3,1,248,2,0,0,1,398
1529,3,1,249,1,0,0,1,383
1530,3,1,250,20,1,1,1,710
1531,3,1,251,10,1,1,1,541
1532,3,1,252,5,0,0,1,509
1533,3,1,253,5,0,0,1,566
1534,3,1,254,5,0,0,1,473
1535,3,1,255,1,1,1,1,453
1536,3,1,256,2,0,0,1,460
1537,3,1,257,5,0,0,1,468
1538,3,1,258,2,1,1,1,741
1539,3,1,259,20,1,1,1,768
1540,3,1,260,32,0,0,1,523
1541,3,1,261,10,0,0,1,473
1542,3,1,262,2,1,1,1,418
1543,3,1,263,32,0,0,1,1018
1544,3,1,264,5,1,1,1,578
1545,3,1,265,1,0,0,1,514
1546,3,1,266,20,0,0,1,580
1547,3,1,267,32,1,1,1,592
1548,3,1,268,10,1,1,1,619
1549,3,1,269,10,0,0,1,521
1550,3,1,270,32,1,1,1,587
1551,3,1,271,2,0,0,1,419
1552,3,1,272,5,0,0,1,470
1553,3,1,273,2,1,1,1,471
1554,3,1,274,20,0,0,1,625
1555,3,1,275,32,1,1,1,483
1556,3,1,276,10,0,0,1,491
1557,3,1,277,5,1,1,1,616
1558,3,1,278,20,0,0,1,725
1559,3,1,279,20,1,1,1,998
1560,3,1,280,5,0,0,1,466
1561,3,1,281,5,1,1,1,502
1562,3,1,282,20,1,1,1,626
1563,3,1,283,32,0,0,1,533
1564,3,1,284,10,1,1,1,459
1565,3,1,285,2,1,1,0,471
1566,3,1,286,10,0,0,1,605
1567,3,1,287,32,0,0,1,1100
1568,3,1,288,2,0,0,1,625
1569,3,1,289,5,1,1,1,560
1570,3,1,290,5,0,0,1,614
1571,3,1,291,5,0,0,1,504
1572,3,1,292,20,0,0,1,907
1573,3,1,293,5,1,1,1,1520
1574,3,1,294,2,1,1,1,543
1575,3,1,295,1,0,0,1,539
1576,3,1,296,5,0,0,1,641
1577,3,1,297,32,0,0,1,969
1578,3,1,298,1,0,0,1,568
1579,3,1,299,20,0,0,1,664
1580,3,1,300,2,1,1,1,528
1581,3,1,301,32,1,1,1,1511
1582,3,1,302,2,1,1,1,549
1583,3,1,303,5,1,1,1,671
1584,3,1,304,20,0,0,1,939
1585,3,1,305,20,0,0,1,1475
1586,3,1,306,5,1,1,1,575
1587,3,1,307,10,1,1,1,691
1588,3,1,308,2,1,1,1,771
1589,3,1,309,32,1,1,1,839
1590,3,1,310,10,0,0,1,1042
1591,3,1,311,32,1,1,1,722
1592,3,1,312,20,0,0,1,542
1593,3,1,313,32,0,0,1,1324
1594,3,1,314,1,0,0,1,488
1595,3,1,315,32,1,1,1,731
1596,3,1,316,2,0,0,1,506
1597,3,1,317,5,0,0,1,537
1598,3,1,318,32,1,1,1,1867
1599,3,1,319,1,1,1,1,483
1600,3,1,320,2,0,0,1,595
1601,3,1,321,2,0,0,1,518
1602,3,1,322,10,0,0,1,793
1603,3,1,323,20,0,0,1,509
1604,3,1,324,32,0,0,1,2323
1605,3,1,325,2,0,0,1,463
1606,3,1,326,1,0,0,1,398
1607,3,1,327,10,1,1,1,576
1608,3,1,328,32,1,1,1,513
1609,3,1,329,2,0,0,0,507
1610,3,1,330,2,0,0,1,645
1611,3,1,331,20,0,0,1,928
1612,3,1,332,2,0,0,1,452
1613,3,1,333,2,1,1,1,831
1614,3,1,334,1,1,1,1,515
1615,3,1,335,10,0,0,1,560
1616,3,1,336,20,1,1,1,973
1617,3,1,337,20,1,1,1,724
1618,3,1,338,20,1,1,1,1079
1619,3,1,339,5,1,1,1,748
1620,3,1,340,10,1,1,1,850
1621,3,1,341,2,1,1,1,479
1622,3,1,342,5,1,1,1,684
1623,3,1,343,5,0,0,1,1392
1624,3,1,344,10,1,1,1,531
1625,3,1,345,5,0,0,1,918
1626,3,1,346,20,1,1,1,616
1627,3,1,347,5,0,0,1,759
1628,3,1,348,32,0,0,1,1077
1629,3,1,349,5,1,1,1,518
1630,3,1,350,1,1,1,1,441
1631,3,1,351,32,1,1,1,661
1632,3,1,352,5,1,1,1,574
1633,3,1,353,5,0,0,1,775
1634,3,1,354,5,0,0,1,716
1635,3,1,355,20,1,1,1,552
1636,3,1,356,10,0,0,1,643
1637,3,1,357,5,1,1,1,480
1638,3,1,358,10,0,0,1,1001
1639,3,1,359,20,0,0,1,666
1640,3,1,360,10,1,1,1,632
1641,3,1,361,5,0,0,1,523
1642,3,1,362,20,0,0,1,766
1643,3,1,363,2,1,1,1,496
1644,3,1,364,32,0,0,1,559
1645,3,1,365,32,0,0,1,1719
1646,3,1,366,5,1,1,1,764
1647,3,1,367,32,0,0,1,510
1648,3,1,368,20,0,0,1,451
1649,3,1,369,2,0,0,1,526
1650,3,1,370,10,1,1,1,481
1651,3,1,371,2,0,0,1,475
1652,3,1,372,1,1,1,1,495
1653,3,1,373,2,1,1,1,610
1654,3,1,374,20,0,0,1,560
1655,3,1,375,20,1,1,1,833
1656,3,1,376,5,1,1,1,613
1657,3,1,377,2,0,0,1,550
1658,3,1,378,5,1,1,1,641
1659,3,1,379,10,0,0,1,654
1660,3,1,380,5,1,1,1,575
1661,3,1,381,10,1,1,1,749
1662,3,1,382,20,1,1,1,943
1663,3,1,383,2,0,0,1,508
1664,3,1,384,10,0,0,1,745
1665,3,1,385,32,0,0,1,663
1666,3,1,386,2,0,0,1,541
1667,3,1,387,5,0,0,1,749
1668,3,1,388,1,1,1,1,479
1669,3,1,389,10,0,0,1,986
1670,3,1,390,20,1,1,1,729
1671,3,1,391,2,0,0,1,513
1672,3,1,392,20,1,1,1,659
1673,3,1,393,2,1,1,1,497
1674,3,1,394,5,0,0,1,560
1675,3,1,395,1,1,1,1,906
1676,3,1,396,32,0,0,1,1061
1677,3,1,397,5,0,0,1,1311
1678,3,1,398,5,0,0,1,742
1679,3,1,399,20,1,1,1,749
1680,3,1,400,32,0,0,1,695
1681,3,1,401,10,1,1,1,597
1682,3,1,402,2,0,0,1,487
1683,3,1,403,32,0,0,1,886
1684,3,1,404,5,1,1,1,519
1685,3,1,405,2,1,1,1,427
1686,3,1,406,5,1,1,1,572
1687,3,1,407,10,1,1,1,623
1688,3,1,408,2,0,0,1,529
1689,3,1,409,2,1,1,1,512
1690,3,1,410,10,0,0,1,613
1691,3,1,411,5,0,0,1,815
1692,3,1,412,2,1,1,1,461
1693,3,1,413,1,0,0,1,526
1694,3,1,414,20,1,1,1,620
1695,3,1,415,20,1,1,1,965
1696,3,1,416,5,1,1,1,605
1697,3,1,417,2,0,0,1,633
1698,3,1,418,10,0,0,1,571
1699,3,1,419,32,1,1,1,1579
1700,3,1,420,10,0,0,1,645
1701,3,1,421,5,0,0,1,548
1702,3,1,422,2,0,0,1,529
1703,3,1,423,1,1,1,1,497
1704,3,1,424,5,1,1,1,600
1705,3,1,425,10,0,0,1,566
1706,3,1,426,20,0,0,1,569
1707,3,1,427,32,1,1,1,1351
1708,3,1,428,2,1,1,1,526
1709,3,1,429,2,0,0,1,470
1710,3,1,430,5,0,0,1,572
1711,3,1,431,20,1,1,1,728
1712,3,1,432,10,1,1,1,875
1713,3,1,433,5,1,1,1,1250
1714,3,1,434,5,0,0,1,487
1715,3,1,435,10,0,0,1,713
1716,3,1,436,2,0,0,1,458
1717,3,1,437,32,1,1,1,582
1718,3,1,438,10,0,0,1,698
1719,3,1,439,2,0,0,1,466
1720,3,1,440,2,0,0,1,554
1721,3,1,441,10,1,1,1,890
1722,3,1,442,32,0,0,1,628
1723,3,1,443,2,1,1,1,487
1724,3,1,444,20,1,1,1,653
1725,3,1,445,20,0,0,1,838
1726,3,1,446,1,1,1,1,514
1727,3,1,447,32,0,0,1,1335
1728,3,1,448,5,0,0,1,544
1729,3,1,449,5,0,0,1,477
1730,3,1,450,32,0,0,1,889
1731,3,1,451,2,1,1,1,966
1732,3,1,452,5,1,1,1,591
1733,3,1,453,32,1,1,1,950
1734,3,1,454,32,1,1,1,477
1735,3,1,455,32,1,1,1,944
1736,3,1,456,10,0,0,1,1023
1737,3,1,457,10,1,1,1,619
1738,3,1,458,20,1,1,1,701
1739,3,1,459,5,1,1,1,559
1740,3,1,460,32,0,0,1,739
1741,3,1,461,2,1,1,1,517
1742,3,1,462,32,0,0,1,1718
1743,3,1,463,32,0,0,1,686
1744,3,1,464,5,0,0,1,569
1745,3,1,465,10,1,1,1,569
1746,3,1,466,2,1,1,1,419
1747,3,1,467,5,1,1,1,700
1748,3,1,468,10,1,1,1,585
1749,3,1,469,5,0,0,1,805
1750,3,1,470,5,0,0,1,551
1751,3,1,471,32,0,0,1,675
1752,3,1,472,2,1,1,1,488
1753,3,1,473,20,1,1,1,625
1754,3,1,474,2,1,1,1,691
1755,3,1,475,20,0,0,1,685
1756,3,1,476,5,1,1,1,636
1757,3,1,477,10,1,1,1,438
1758,3,1,478,32,0,0,1,933
1759,3,1,479,2,0,0,1,571
1760,3,1,480,20,1,1,1,1110
1761,3,1,481,2,1,1,1,453
1762,3,1,482,32,0,0,1,1407
1763,3,1,483,1,1,1,1,574
1764,3,1,484,20,1,1,1,589
1765,3,1,485,32,0,0,1,965
1766,3,1,486,20,0,0,1,906
1767,3,1,487,2,1,1,1,467
1768,3,1,488,20,1,1,1,758
1769,3,1,489,2,0,0,1,567
1770,3,1,490,2,0,0,1,540
1771,3,1,491,10,1,1,1,685
1772,3,1,492,32,1,1,1,1149
1773,3,1,493,20,1,1,1,526
1774,3,1,494,5,1,1,1,661
1775,3,1,495,2,1,1,1,528
1776,3,1,496,1,0,0,1,534
1777,3,1,497,32,0,0,1,806
1778,3,1,498,10,0,0,1,564
1779,3,1,499,5,1,1,1,527
1780,3,1,500,20,1,1,1,514
1781,3,1,501,10,1,1,1,472
1782,3,1,502,1,0,0,1,444
1783,3,1,503,2,1,1,1,468
1784,3,1,504,32,1,1,1,1737
1785,3,1,505,2,0,0,1,468
1786,3,1,506,5,0,0,1,697
1787,3,1,507,20,0,0,1,576
1788,3,1,508,10,1,1,1,594
1789,3,1,509,10,0,0,1,677
1790,3,1,510,32,0,0,1,519
1791,3,1,511,5,1,1,1,642
1792,3,1,512,20,0,0,1,682
1793,3,1,513,32,1,1,1,631
1794,3,1,514,20,1,1,1,537
1795,3,1,515,5,1,1,1,659
1796,3,1,516,2,0,0,1,650
1797,3,1,517,32,0,0,1,1733
1798,3,1,518,10,1,1,1,585
1799,3,1,519,10,0,0,1,532
1800,3,1,520,32,1,1,1,814
1801,3,1,521,5,1,1,1,703
1802,3,1,522,20,0,0,1,761
1803,3,1,523,20,0,0,1,892
1804,3,1,524,2,1,1,1,463
1805,3,1,525,2,0,0,1,424
1806,3,1,526,10,0,0,1,663
1807,3,1,527,10,0,0,1,621
1808,3,1,528,32,0,0,1,728
1809,3,1,529,10,1,1,1,689
1810,3,1,530,20,1,1,1,567
1811,3,1,531,10,1,1,1,682
1812,3,1,532,5,0,0,1,438
1813,3,1,533,32,0,0,1,971
1814,3,1,534,20,1,1,1,642
1815,3,1,535,32,0,0,1,596
1816,3,1,536,1,0,0,1,441
1817,3,1,537,5,0,0,1,780
1818,3,1,538,10,1,1,1,552
1819,3,1,539,10,0,0,1,460
1820,3,1,540,2,1,1,1,534
1821,3,1,541,5,0,0,1,533
1822,3,1,542,10,0,0,1,658
1823,3,1,543,2,1,1,1,456
1824,3,1,544,5,1,1,1,458
1825,3,1,545,1,1,1,1,447
1826,3,1,546,20,1,1,1,515
1827,3,1,547,1,0,0,1,488
1828,3,1,548,5,1,1,1,486
1829,3,1,549,2,1,1,1,484
1830,3,1,550,20,1,1,1,1390
1831,3,1,551,32,1,1,1,583
1832,3,1,552,20,0,0,1,607
1833,3,1,553,32,1,1,1,710
1834,3,1,554,20,1,1,1,542
1835,3,1,555,20,0,0,1,489
1836,3,1,556,10,1,1,1,515
1837,3,1,557,32,0,0,1,655
1838,3,1,558,32,1,1,1,819
1839,3,1,559,5,0,0,1,528
1840,3,1,560,20,0,0,1,669
1841,3,1,561,20,0,0,1,1132
1842,3,1,562,32,1,1,1,586
1843,3,1,563,20,0,0,1,981
1844,3,1,564,5,0,0,1,819
1845,3,1,565,5,1,1,1,572
1846,3,1,566,32,0,0,1,541
1847,3,1,567,32,1,1,1,2099
1848,3,1,568,32,0,0,1,952
1849,3,1,569,2,1,1,0,476
1850,3,1,570,10,0,0,1,875
1851,3,1,571,32,1,1,1,700
1852,3,1,572,32,1,1,1,688
1853,3,1,573,5,1,1,1,594
1854,3,1,574,10,1,1,1,829
1855,3,1,575,32,1,1,1,588
1856,3,1,576,2,0,0,1,879
1857,3,1,577,2,0,0,1,591
1858,3,1,578,10,1,1,1,889
1859,3,1,579,1,1,1,1,469
1860,3,1,580,1,0,0,1,475
1861,3,1,581,2,1,1,1,586
1862,3,1,582,2,1,1,0,735
1863,3,1,583,10,1,1,1,557
1864,3,1,584,10,1,1,1,585
1865,3,1,585,5,1,1,1,543
1866,3,1,586,5,0,0,1,832
1867,3,1,587,20,1,1,1,836
1868,3,1,588,10,1,1,1,570
1869,3,1,589,10,0,0,1,636
1870,3,1,590,10,1,1,1,477
1871,3,1,591,10,0,0,1,514
1872,3,1,592,20,1,1,1,571
1873,3,1,593,2,1,1,1,778
1874,3,1,594,32,1,1,1,665
1875,3,1,595,10,0,0,1,525
1876,3,1,596,2,1,1,1,668
1877,3,1,597,1,1,1,1,520
1878,3,1,598,20,0,0,1,814
1879,3,1,599,1,0,0,1,461
1880,3,1,600,10,0,0,1,541
1881,3,1,601,10,1,1,1,612
1882,3,1,602,10,0,0,1,582
1883,3,1,603,20,1,1,1,601
1884,3,1,604,32,0,0,1,719
1885,3,1,605,20,0,0,1,646
1886,3,1,606,10,1,1,1,884
1887,3,1,607,1,0,0,1,449
1888,3,1,608,5,0,0,1,491
1889,3,1,609,5,0,0,1,571
1890,3,1,610,10,0,0,1,803
1891,3,1,611,20,1,1,1,536
1892,3,1,612,5,1,1,1,453
1893,3,1,613,2,0,0,1,639
1894,3,1,614,5,1,1,1,433
1895,3,1,615,20,0,0,1,855
1896,3,1,616,5,1,1,1,467
1897,3,1,617,32,1,1,1,545
1898,3,1,618,20,0,0,1,511
1899,3,1,619,2,0,0,1,516
1900,3,1,620,5,0,0,1,444
1901,3,1,621,2,0,0,1,478
1902,3,1,622,20,0,0,1,727
1903,3,1,623,32,1,1,1,547
1904,3,1,624,2,0,0,1,495
1905,3,1,625,32,1,1,1,995
1906,3,1,626,2,0,0,1,669
1907,3,1,627,20,1,1,1,998
1908,3,1,628,32,1,1,1,1133
1909,3,1,629,5,1,1,1,498
1910,3,1,630,32,0,0,1,659
1911,3,1,631,32,0,0,1,808
1912,3,1,632,2,0,0,1,625
1913,3,1,633,5,1,1,1,446
1914,3,1,634,10,1,1,1,567
1915,3,1,635,10,0,0,1,909
1916,3,1,636,10,1,1,1,902
1917,3,1,637,32,1,1,1,1089
1918,3,1,638,2,1,1,1,461
1919,3,1,639,10,0,0,1,518
1920,3,1,640,5,1,1,1,785
1921,4,1,1,20,0,0,1,1657
1922,4,1,2,32,1,1,1,1218
1923,4,1,3,2,0,0,1,1136
1924,4,1,4,32,1,1,1,1535
1925,4,1,5,2,1,1,1,799
1926,4,1,6,20,1,1,1,908
1927,4,1,7,20,0,0,1,1355
1928,4,1,8,1,1,1,1,549
1929,4,1,9,5,1,1,1,713
1930,4,1,10,2,0,0,1,1053
1931,4,1,11,20,0,0,1,1437
1932,4,1,12,5,1,1,1,806
1933,4,1,13,20,1,1,1,625
1934,4,1,14,32,1,1,1,1108
1935,4,1,15,5,1,1,1,725
1936,4,1,16,10,1,1,1,1507
1937,4,1,17,32,0,0,1,871
1938,4,1,18,5,1,1,1,619
1939,4,1,19,32,1,1,1,978
1940,4,1,20,5,1,1,1,1039
1941,4,1,21,10,1,1,1,779
1942,4,1,22,2,0,0,1,838
1943,4,1,23,2,1,1,1,761
1944,4,1,24,5,1,1,1,582
1945,4,1,25,5,1,1,1,860
1946,4,1,26,2,1,1,1,689
1947,4,1,27,10,0,0,1,730
1948,4,1,28,2,0,0,1,755
1949,4,1,29,10,0,0,1,1227
1950,4,1,30,5,1,1,1,648
1951,4,1,31,20,1,1,1,711
1952,4,1,32,20,1,1,1,1007
1953,4,1,33,20,1,1,1,812
1954,4,1,34,32,1,1,1,502
1955,4,1,35,5,1,1,1,484
1956,4,1,36,2,1,1,1,557
1957,4,1,37,5,1,1,1,877
1958,4,1,38,5,0,0,1,596
1959,4,1,39,1,1,1,1,483
1960,4,1,40,5,0,0,1,828
1961,4,1,41,20,1,1,1,994
1962,4,1,42,2,0,0,1,690
1963,4,1,43,10,1,1,1,998
1964,4,1,44,20,0,0,1,739
1965,4,1,45,32,0,0,1,1311
1966,4,1,46,10,0,0,1,989
1967,4,1,47,32,1,1,1,904
1968,4,1,48,2,1,1,1,603
1969,4,1,49,5,0,0,1,922
1970,4,1,50,20,0,0,1,1704
1971,4,1,51,1,1,1,1,451
1972,4,1,52,2,0,0,1,750
1973,4,1,53,20,1,1,1,899
1974,4,1,54,32,0,0,1,978
1975,4,1,55,20,1,1,1,673
1976,4,1,56,20,1,1,1,919
1977,4,1,57,5,1,1,1,709
1978,4,1,58,32,0,0,1,755
1979,4,1,59,32,0,0,1,683
1980,4,1,60,5,1,1,1,630
1981,4,1,61,10,0,0,1,950
1982,4,1,62,32,0,0,1,928
1983,4,1,63,10,0,0,1,762
1984,4,1,64,10,0,0,1,763
1985,4,1,65,32,0,0,1,1014
1986,4,1,66,2,1,1,1,803
1987,4,1,67,32,0,0,1,1331
1988,4,1,68,20,1,1,1,864
1989,4,1,69,10,1,1,1,641
1990,4,1,70,2,1,1,1,751
1991,4,1,71,5,0,0,1,929
1992,4,1,72,10,0,0,1,588
1993,4,1,73,2,1,1,1,765
1994,4,1,74,20,1,1,1,904
1995,4,1,75,2,0,0,1,805
1996,4,1,76,1,0,0,1,573
1997,4,1,77,2,1,1,1,897
1998,4,1,78,1,1,1,1,642
1999,4,1,79,2,0,0,1,737
2000,4,1,80,2,0,0,1,660
2001,4,1,81,10,0,0,1,763
2002,4,1,82,32,0,0,1,853
2003,4,1,83,10,0,0,1,680
2004,4,1,84,20,0,0,1,779
2005,4,1,85,10,0,0,1,565
2006,4,1,86,10,1,1,1,857
2007,4,1,87,1,1,1,1,464
2008,4,1,88,5,1,1,1,1276
2009,4,1,89,10,1,1,1,749
2010,4,1,90,20,0,0,1,743
2011,4,1,91,5,1,1,1,638
2012,4,1,92,2,1,1,1,598
2013,4,1,93,2,0,0,1,822
2014,4,1,94,20,1,1,1,1140
2015,4,1,95,20,1,1,1,650
2016,4,1,96,10,0,0,1,1498
2017,4,1,97,20,1,1,1,811
2018,4,1,98,32,0,0,1,1121
2019,4,1,99,20,1,1,1,565
2020,4,1,100,32,1,1,1,1680
2021,4,1,101,2,1,1,1,638
2022,4,1,102,32,0,0,1,727
2023,4,1,103,32,1,1,1,1166
2024,4,1,104,2,1,1,1,846
2025,4,1,105,20,1,1,1,921
2026,4,1,106,5,0,0,1,624
2027,4,1,107,20,0,0,1,923
2028,4,1,108,10,0,0,1,611
2029,4,1,109,32,1,1,1,1056
2030,4,1,110,2,0,0,1,562
2031,4,1,111,5,0,0,1,669
2032,4,1,112,2,1,1,1,502
2033,4,1,113,2,1,1,1,636
2034,4,1,114,20,0,0,1,1341
2035,4,1,115,10,1,1,1,1309
2036,4,1,116,2,1,1,1,547
2037,4,1,117,20,0,0,1,779
2038,4,1,118,2,0,0,1,591
2039,4,1,119,20,0,0,1,602
2040,4,1,120,5,1,1,1,818
2041,4,1,121,5,0,0,1,646
2042,4,1,122,5,0,0,1,731
2043,4,1,123,5,1,1,1,644
2044,4,1,124,5,0,0,1,674
2045,4,1,125,10,0,0,1,985
2046,4,1,126,1,0,0,1,528
2047,4,1,127,2,1,1,1,901
2048,4,1,128,1,1,1,1,688
2049,4,1,129,10,0,0,1,782
2050,4,1,130,5,1,1,1,534
2051,4,1,131,10,0,0,1,673
2052,4,1,132,2,1,1,1,595
2053,4,1,133,32,0,0,1,880
2054,4,1,134,5,0,0,1,795
2055,4,1,135,10,1,1,1,798
2056,4,1,136,10,0,0,1,634
2057,4,1,137,20,0,0,1,650
2058,4,1,138,2,0,0,1,758
2059,4,1,139,10,1,1,1,625
2060,4,1,140,10,0,0,1,933
2061,4,1,141,20,0,0,1,675
2062,4,1,142,2,0,0,1,1102
2063,4,1,143,5,0,0,1,579
2064,4,1,144,1,0,0,1,587
2065,4,1,145,5,1,1,1,879
2066,4,1,146,32,1,1,1,907
2067,4,1,147,10,1,1,1,730
2068,4,1,148,32,1,1,1,1628
2069,4,1,149,10,0,0,1,771
2070,4,1,150,5,0,0,1,631
2071,4,1,151,32,0,0,1,1776
2072,4,1,152,20,1,1,1,2899
2073,4,1,153,5,1,1,1,774
2074,4,1,154,2,0,0,1,777
2075,4,1,155,20,0,0,1,1794
2076,4,1,156,10,0,0,1,636
2077,4,1,157,32,1,1,1,799
2078,4,1,158,5,1,1,1,566
2079,4,1,159,2,1,1,1,694
2080,4,1,160,5,0,0,1,640
2081,4,1,161,10,0,0,1,984
2082,4,1,162,1,1,1,1,691
2083,4,1,163,5,0,0,1,1044
2084,4,1,164,10,0,0,1,1022
2085,4,1,165,2,0,0,1,479
2086,4,1,166,2,1,1,1,495
2087,4,1,167,32,1,1,1,1143
2088,4,1,168,10,1,1,1,942
2089,4,1,169,32,0,0,1,1458
2090,4,1,170,10,1,1,1,602
2091,4,1,171,5,0,0,1,850
2092,4,1,172,5,1,1,1,513
2093,4,1,173,20,0,0,1,553
2094,4,1,174,10,0,0,1,1621
2095,4,1,175,20,1,1,1,632
2096,4,1,176,32,0,0,1,698
2097,4,1,177,1,0,0,1,711
2098,4,1,178,10,0,0,1,826
2099,4,1,179,10,0,0,1,953
2100,4,1,180,2,1,1,1,1584
2101,4,1,181,20,1,1,1,1164
2102,4,1,182,32,1,1,1,921
2103,4,1,183,10,0,0,1,1260
2104,4,1,184,20,1,1,1,740
2105,4,1,185,5,1,1,1,1245
2106,4,1,186,2,1,1,1,578
2107,4,1,187,2,0,0,1,1096
2108,4,1,188,2,0,0,1,718
2109,4,1,189,2,1,1,1,643
2110,4,1,190,5,1,1,1,525
2111,4,1,191,20,1,1,1,905
2112,4,1,192,20,0,0,1,647
2113,4,1,193,5,0,0,1,802
2114,4,1,194,1,0,0,1,461
2115,4,1,195,32,0,0,1,628
2116,4,1,196,5,0,0,1,656
2117,4,1,197,5,0,0,1,1021
2118,4,1,198,20,0,0,1,894
2119,4,1,199,20,0,0,1,678
2120,4,1,200,32,0,0,1,546
2121,4,1,201,5,1,1,1,552
2122,4,1,202,1,0,0,1,590
2123,4,1,203,5,0,0,1,622
2124,4,1,204,5,0,0,1,566
2125,4,1,205,2,1,1,1,1163
2126,4,1,206,2,0,0,1,588
2127,4,1,207,32,0,0,1,1097
2128,4,1,208,5,0,0,1,514
2129,4,1,209,1,1,1,1,437
2130,4,1,210,32,0,0,1,870
2131,4,1,211,2,0,0,1,670
2132,4,1,212,20,0,0,1,960
2133,4,1,213,32,1,1,1,731
2134,4,1,214,5,1,1,1,479
2135,4,1,215,2,1,1,1,1032
2136,4,1,216,2,1,1,1,610
2137,4,1,217,20,0,0,1,857
2138,4,1,218,20,0,0,1,601
2139,4,1,219,2,0,0,1,833
2140,4,1,220,10,0,0,1,738
2141,4,1,221,2,0,0,1,487
2142,4,1,222,10,1,1,1,1316
2143,4,1,223,5,0,0,1,809
2144,4,1,224,2,0,0,1,616
2145,4,1,225,5,1,1,1,1363
2146,4,1,226,2,1,1,1,836
2147,4,1,227,2,1,1,1,650
2148,4,1,228,2,1,1,1,629
2149,4,1,229,5,0,0,1,670
2150,4,1,230,20,1,1,1,768
2151,4,1,231,10,1,1,1,702
2152,4,1,232,32,1,1,1,1054
2153,4,1,233,10,0,0,1,564
2154,4,1,234,5,1,1,1,509
2155,4,1,235,20,1,1,1,617
2156,4,1,236,2,0,0,1,678
2157,4,1,237,10,0,0,1,799
2158,4,1,238,2,1,1,1,1052
2159,4,1,239,20,1,1,1,2313
2160,4,1,240,2,0,0,1,821
2161,4,1,241,32,1,1,1,1159
2162,4,1,242,5,1,1,1,665
2163,4,1,243,32,1,1,1,868
2164,4,1,244,32,1,1,1,985
2165,4,1,245,1,0,0,1,634
2166,4,1,246,2,0,0,1,600
2167,4,1,247,32,0,0,1,1351
2168,4,1,248,5,1,1,1,1038
2169,4,1,249,2,1,1,1,624
2170,4,1,250,10,0,0,1,837
2171,4,1,251,10,1,1,1,633
2172,4,1,252,2,0,0,1,683
2173,4,1,253,32,0,0,1,942
2174,4,1,254,2,1,1,1,754
2175,4,1,255,32,1,1,1,796
2176,4,1,256,32,1,1,1,707
2177,4,1,257,20,1,1,1,1365
2178,4,1,258,5,0,0,1,576
2179,4,1,259,5,1,1,1,577
2180,4,1,260,32,1,1,1,684
2181,4,1,261,10,0,0,1,660
2182,4,1,262,20,1,1,1,565
2183,4,1,263,10,0,0,1,648
2184,4,1,264,20,0,0,1,1442
2185,4,1,265,5,0,0,1,1127
2186,4,1,266,2,0,0,1,742
2187,4,1,267,32,1,1,1,786
2188,4,1,268,5,1,1,1,751
2189,4,1,269,32,1,1,1,1298
2190,4,1,270,20,0,0,1,831
2191,4,1,271,20,1,1,1,782
2192,4,1,272,2,0,0,1,600
2193,4,1,273,5,1,1,1,1008
2194,4,1,274,5,0,0,1,1105
2195,4,1,275,20,0,0,1,909
2196,4,1,276,32,1,1,1,792
2197,4,1,277,20,0,0,1,802
2198,4,1,278,10,0,0,1,1247
2199,4,1,279,20,0,0,1,1029
2200,4,1,280,5,0,0,1,740
2201,4,1,281,32,1,1,1,707
2202,4,1,282,20,0,0,1,1314
2203,4,1,283,5,1,1,1,575
2204,4,1,284,2,1,1,1,690
2205,4,1,285,32,1,1,1,979
2206,4,1,286,10,1,1,1,712
2207,4,1,287,32,0,0,1,715
2208,4,1,288,20,0,0,1,702
2209,4,1,289,32,1,1,1,667
2210,4,1,290,5,0,0,1,490
2211,4,1,291,1,1,1,1,567
2212,4,1,292,10,1,1,1,1462
2213,4,1,293,20,1,1,1,528
2214,4,1,294,5,0,0,1,682
2215,4,1,295,5,0,0,1,686
2216,4,1,296,32,0,0,1,1705
2217,4,1,297,2,0,0,1,653
2218,4,1,298,32,1,1,1,1151
2219,4,1,299,5,0,0,1,618
2220,4,1,300,10,1,1,1,727
2221,4,1,301,5,1,1,1,1601
2222,4,1,302,5,1,1,1,654
2223,4,1,303,10,0,0,1,856
2224,4,1,304,20,1,1,1,976
2225,4,1,305,32,0,0,1,955
2226,4,1,306,32,0,0,1,728
2227,4,1,307,20,0,0,1,608
2228,4,1,308,20,1,1,1,882
2229,4,1,309,20,0,0,1,840
2230,4,1,310,5,1,1,1,1035
2231,4,1,311,1,1,1,1,611
2232,4,1,312,10,1,1,1,730
2233,4,1,313,10,1,1,1,1987
2234,4,1,314,5,0,0,1,751
2235,4,1,315,20,0,0,1,996
2236,4,1,316,2,1,1,1,784
2237,4,1,317,2,0,0,1,729
2238,4,1,318,10,1,1,1,643
2239,4,1,319,32,0,0,1,789
2240,4,1,320,20,1,1,1,1095
2241,4,1,321,1,1,1,1,618
2242,4,1,322,20,1,1,1,1240
2243,4,1,323,10,0,0,1,527
2244,4,1,324,20,0,0,1,901
2245,4,1,325,1,0,0,1,517
2246,4,1,326,2,1,1,1,568
2247,4,1,327,20,1,1,1,525
2248,4,1,328,5,0,0,1,667
2249,4,1,329,5,0,0,1,635
2250,4,1,330,5,1,1,1,1021
2251,4,1,331,10,1,1,1,679
2252,4,1,332,5,0,0,1,616
2253,4,1,333,2,1,1,1,948
2254,4,1,334,32,0,0,1,603
2255,4,1,335,5,0,0,1,1315
2256,4,1,336,1,1,1,1,463
2257,4,1,337,20,1,1,1,713
2258,4,1,338,2,0,0,1,549
2259,4,1,339,32,0,0,1,1082
2260,4,1,340,20,1,1,1,946
2261,4,1,341,10,0,0,1,980
2262,4,1,342,32,0,0,1,554
2263,4,1,343,20,1,1,1,1020
2264,4,1,344,20,1,1,1,584
2265,4,1,345,5,0,0,1,1005
2266,4,1,346,5,0,0,1,1148
2267,4,1,347,20,0,0,1,1300
2268,4,1,348,20,1,1,1,715
2269,4,1,349,5,1,1,1,799
2270,4,1,350,32,0,0,1,612
2271,4,1,351,2,0,0,1,595
2272,4,1,352,1,0,0,1,533
2273,4,1,353,20,1,1,1,1263
2274,4,1,354,5,1,1,1,500
2275,4,1,355,10,1,1,1,567
2276,4,1,356,5,0,0,1,579
2277,4,1,357,2,1,1,1,1013
2278,4,1,358,32,0,0,1,1316
2279,4,1,359,1,0,0,1,460
2280,4,1,360,2,0,0,1,575
2281,4,1,361,10,1,1,1,944
2282,4,1,362,2,1,1,1,715
2283,4,1,363,5,1,1,1,798
2284,4,1,364,32,1,1,1,1813
2285,4,1,365,10,1,1,1,856
2286,4,1,366,32,0,0,1,1290
2287,4,1,367,2,1,1,1,513
2288,4,1,368,20,0,0,1,555
2289,4,1,369,32,1,1,1,998
2290,4,1,370,10,1,1,1,613
2291,4,1,371,32,1,1,1,682
2292,4,1,372,10,1,1,1,522
2293,4,1,373,32,1,1,1,1302
2294,4,1,374,20,0,0,1,1539
2295,4,1,375,32,1,1,1,1801
2296,4,1,376,10,1,1,1,816
2297,4,1,377,20,1,1,1,485
2298,4,1,378,1,1,1,1,495
2299,4,1,379,32,1,1,1,534
2300,4,1,380,20,0,0,1,699
2301,4,1,381,2,0,0,1,612
2302,4,1,382,20,0,0,1,794
2303,4,1,383,20,0,0,1,785
2304,4,1,384,32,1,1,1,566
2305,4,1,385,2,1,1,1,587
2306,4,1,386,1,1,1,1,513
2307,4,1,387,32,1,1,1,633
2308,4,1,388,20,0,0,1,900
2309,4,1,389,5,1,1,1,584
2310,4,1,390,5,1,1,1,1398
2311,4,1,391,2,0,0,1,678
2312,4,1,392,32,1,1,1,1029
2313,4,1,393,5,0,0,1,597
2314,4,1,394,5,0,0,1,528
2315,4,1,395,20,0,0,1,742
2316,4,1,396,2,1,1,1,549
2317,4,1,397,32,0,0,1,1028
2318,4,1,398,5,0,0,1,536
2319,4,1,399,2,1,1,1,721
2320,4,1,400,10,1,1,1,591
2321,4,1,401,10,1,1,1,935
2322,4,1,402,2,1,1,1,453
2323,4,1,403,20,0,0,1,1310
2324,4,1,404,2,1,1,1,545
2325,4,1,405,10,1,1,1,655
2326,4,1,406,32,1,1,1,1061
2327,4,1,407,20,1,1,1,448
2328,4,1,408,5,0,0,1,514
2329,4,1,409,20,1,1,1,665
2330,4,1,410,20,1,1,1,527
2331,4,1,411,5,0,0,1,705
2332,4,1,412,2,0,0,1,655
2333,4,1,413,32,0,0,1,815
2334,4,1,414,10,1,1,1,750
2335,4,1,415,10,1,1,1,776
2336,4,1,416,2,1,1,1,655
2337,4,1,417,5,0,0,1,567
2338,4,1,418,10,1,1,1,483
2339,4,1,419,32,0,0,1,992
2340,4,1,420,10,0,0,1,504
2341,4,1,421,2,1,1,1,496
2342,4,1,422,20,1,1,1,494
2343,4,1,423,2,0,0,1,610
2344,4,1,424,10,0,0,1,517
2345,4,1,425,2,0,0,1,564
2346,4,1,426,5,1,1,1,1186
2347,4,1,427,5,1,1,1,642
2348,4,1,428,5,1,1,1,828
2349,4,1,429,20,1,1,1,1280
2350,4,1,430,10,1,1,1,503
2351,4,1,431,2,0,0,1,454
2352,4,1,432,32,1,1,1,531
2353,4,1,433,2,0,0,1,685
2354,4,1,434,20,1,1,1,1169
2355,4,1,435,5,0,0,1,743
2356,4,1,436,10,0,0,1,992
2357,4,1,437,20,0,0,1,743
2358,4,1,438,2,1,1,1,727
2359,4,1,439,5,1,1,1,718
2360,4,1,440,5,1,1,1,1005
2361,4,1,441,5,0,0,1,783
2362,4,1,442,2,0,0,1,1110
2363,4,1,443,5,0,0,1,702
2364,4,1,444,5,1,1,1,486
2365,4,1,445,10,0,0,1,545
2366,4,1,446,20,0,0,1,574
2367,4,1,447,32,1,1,1,730
2368,4,1,448,10,0,0,1,1383
2369,4,1,449,5,1,1,1,885
2370,4,1,450,10,0,0,1,972
2371,4,1,451,1,0,0,1,451
2372,4,1,452,10,1,1,1,789
2373,4,1,453,32,1,1,1,577
2374,4,1,454,2,0,0,1,690
2375,4,1,455,10,1,1,1,586
2376,4,1,456,32,0,0,1,1061
2377,4,1,457,32,1,1,1,754
2378,4,1,458,20,0,0,1,886
2379,4,1,459,10,1,1,1,646
2380,4,1,460,32,0,0,1,1304
2381,4,1,461,1,1,1,1,439
2382,4,1,462,10,0,0,1,757
2383,4,1,463,1,1,1,1,494
2384,4,1,464,20,0,0,1,1076
2385,4,1,465,5,0,0,1,627
2386,4,1,466,32,0,0,1,1307
2387,4,1,467,5,1,1,1,695
2388,4,1,468,32,0,0,1,614
2389,4,1,469,32,1,1,1,657
2390,4,1,470,1,0,0,1,445
2391,4,1,471,2,0,0,1,431
2392,4,1,472,2,0,0,1,370
2393,4,1,473,2,0,0,1,401
2394,4,1,474,5,1,1,1,756
2395,4,1,475,20,0,0,1,775
2396,4,1,476,10,0,0,1,492
2397,4,1,477,2,1,1,1,857
2398,4,1,478,32,1,1,1,583
2399,4,1,479,32,1,1,1,586
2400,4,1,480,20,1,1,1,455
2401,4,1,481,10,1,1,1,785
2402,4,1,482,1,0,0,1,567
2403,4,1,483,20,1,1,1,535
2404,4,1,484,2,0,0,1,453
2405,4,1,485,32,1,1,1,1683
2406,4,1,486,2,0,0,1,536
2407,4,1,487,5,1,1,1,541
2408,4,1,488,10,1,1,1,405
2409,4,1,489,2,1,1,1,424
2410,4,1,490,1,1,1,1,370
2411,4,1,491,10,1,1,1,472
2412,4,1,492,10,0,0,1,596
2413,4,1,493,20,0,0,1,778
2414,4,1,494,1,0,0,1,447
2415,4,1,495,32,1,1,1,715
2416,4,1,496,32,0,0,1,787
2417,4,1,497,5,1,1,1,563
2418,4,1,498,20,1,1,1,812
2419,4,1,499,20,0,0,1,671
2420,4,1,500,32,1,1,1,652
2421,4,1,501,2,0,0,1,547
2422,4,1,502,32,0,0,1,1079
2423,4,1,503,1,1,1,1,529
2424,4,1,504,10,0,0,1,494
2425,4,1,505,20,0,0,1,1225
2426,4,1,506,5,1,1,1,568
2427,4,1,507,20,1,1,1,566
2428,4,1,508,2,1,1,1,1029
2429,4,1,509,2,1,1,1,852
2430,4,1,510,5,1,1,1,708
2431,4,1,511,32,0,0,1,1069
2432,4,1,512,32,1,1,1,829
2433,4,1,513,32,0,0,1,629
2434,4,1,514,2,1,1,1,566
2435,4,1,515,10,0,0,1,593
2436,4,1,516,32,1,1,1,793
2437,4,1,517,10,0,0,1,890
2438,4,1,518,10,0,0,1,771
2439,4,1,519,5,1,1,1,523
2440,4,1,520,5,0,0,1,1122
2441,4,1,521,10,1,1,1,717
2442,4,1,522,10,1,1,1,664
2443,4,1,523,10,1,1,1,716
2444,4,1,524,20,0,0,1,650
2445,4,1,525,2,1,1,1,469
2446,4,1,526,20,1,1,1,488
2447,4,1,527,2,0,0,1,411
2448,4,1,528,5,0,0,1,519
2449,4,1,529,2,1,1,1,374
2450,4,1,530,10,0,0,1,597
2451,4,1,531,32,1,1,1,1232
2452,4,1,532,20,1,1,1,666
2453,4,1,533,32,0,0,1,617
2454,4,1,534,10,0,0,1,510
2455,4,1,535,32,0,0,1,852
2456,4,1,536,1,0,0,1,468
2457,4,1,537,10,1,1,1,1228
2458,4,1,538,32,1,1,1,1204
2459,4,1,539,2,1,1,1,466
2460,4,1,540,20,1,1,1,588
2461,4,1,541,10,0,0,1,644
2462,4,1,542,5,0,0,1,501
2463,4,1,543,5,1,1,1,406
2464,4,1,544,20,1,1,1,864
2465,4,1,545,2,0,0,1,495
2466,4,1,546,32,0,0,1,1077
2467,4,1,547,2,1,1,1,675
2468,4,1,548,5,0,0,1,620
2469,4,1,549,32,0,0,1,1494
2470,4,1,550,32,1,1,1,976
2471,4,1,551,5,0,0,1,528
2472,4,1,552,1,0,0,1,416
2473,4,1,553,5,0,0,1,685
2474,4,1,554,10,1,1,1,781
2475,4,1,555,20,1,1,1,562
2476,4,1,556,10,1,1,1,877
2477,4,1,557,10,1,1,0,576
2478,4,1,558,2,0,0,1,620
2479,4,1,559,10,1,1,1,1293
2480,4,1,560,20,0,0,1,1155
2481,4,1,561,5,0,0,1,848
2482,4,1,562,10,1,1,1,633
2483,4,1,563,32,0,0,1,985
2484,4,1,564,2,0,0,1,544
2485,4,1,565,20,1,1,1,993
2486,4,1,566,32,1,1,1,779
2487,4,1,567,2,0,0,1,783
2488,4,1,568,10,0,0,1,625
2489,4,1,569,2,1,1,1,1240
2490,4,1,570,32,0,0,1,572
2491,4,1,571,32,1,1,1,560
2492,4,1,572,10,1,1,1,1514
2493,4,1,573,20,0,0,1,505
2494,4,1,574,32,1,1,1,641
2495,4,1,575,10,0,0,1,1063
2496,4,1,576,32,0,0,1,670
2497,4,1,577,1,0,0,1,502
2498,4,1,578,2,0,0,1,969
2499,4,1,579,32,0,0,1,889
2500,4,1,580,2,0,0,1,481
2501,4,1,581,10,0,0,1,546
2502,4,1,582,5,0,0,1,468
2503,4,1,583,1,0,0,1,521
2504,4,1,584,32,0,0,1,761
2505,4,1,585,1,1,1,1,624
2506,4,1,586,2,1,1,1,395
2507,4,1,587,20,0,0,1,1291
2508,4,1,588,32,0,0,1,1052
2509,4,1,589,20,0,0,1,977
2510,4,1,590,10,0,0,1,494
2511,4,1,591,5,1,1,0,603
2512,4,1,592,10,1,1,1,605
2513,4,1,593,2,0,0,1,794
2514,4,1,594,10,1,1,1,1206
2515,4,1,595,10,0,0,1,703
2516,4,1,596,2,0,0,1,609
2517,4,1,597,10,0,0,1,1019
2518,4,1,598,2,1,1,1,475
2519,4,1,599,5,1,1,1,678
2520,4,1,600,10,1,1,1,507
2521,4,1,601,32,0,0,1,1325
2522,4,1,602,32,0,0,1,877
2523,4,1,603,32,0,0,1,1018
2524,4,1,604,20,1,1,1,782
2525,4,1,605,32,1,1,1,599
2526,4,1,606,10,0,0,1,498
2527,4,1,607,2,0,0,1,577
2528,4,1,608,20,1,1,1,681
2529,4,1,609,10,1,1,1,859
2530,4,1,610,20,0,0,1,730
2531,4,1,611,20,1,1,1,969
2532,4,1,612,32,0,0,0,548
2533,4,1,613,10,1,1,1,726
2534,4,1,614,20,0,0,1,490
2535,4,1,615,32,1,1,1,572
2536,4,1,616,10,0,0,1,538
2537,4,1,617,5,0,0,1,828
2538,4,1,618,10,1,1,1,673
2539,4,1,619,5,0,0,1,896
2540,4,1,620,5,0,0,1,512
2541,4,1,621,5,1,1,1,781
2542,4,1,622,2,1,1,1,717
2543,4,1,623,32,0,0,1,1358
2544,4,1,624,10,1,1,1,780
2545,4,1,625,20,0,0,1,816
2546,4,1,626,1,1,1,1,488
2547,4,1,627,2,1,1,1,540
2548,4,1,628,20,0,0,1,633
2549,4,1,629,20,1,1,1,673
2550,4,1,630,32,0,0,1,1142
2551,4,1,631,1,0,0,1,422
2552,4,1,632,32,0,0,1,981
2553,4,1,633,1,0,0,1,478
2554,4,1,634,32,1,1,1,1582
2555,4,1,635,10,0,0,1,558
2556,4,1,636,10,1,1,1,625
2557,4,1,637,20,0,0,1,699
2558,4,1,638,20,0,0,1,968
2559,4,1,639,2,0,0,1,712
2560,4,1,640,10,1,1,1,795
2561,6,1,1,10,0,0,1,962
2562,6,1,2,1,0,0,1,449
2563,6,1,3,20,0,0,1,1400
2564,6,1,4,1,1,1,1,580
2565,6,1,5,20,0,0,1,846
2566,6,1,6,32,0,0,1,982
2567,6,1,7,20,0,0,1,526
2568,6,1,8,32,0,0,1,641
2569,6,1,9,10,1,1,0,537
2570,6,1,10,2,1,1,1,1026
2571,6,1,11,10,1,1,1,834
2572,6,1,12,2,1,1,1,711
2573,6,1,13,5,1,1,1,592
2574,6,1,14,32,1,1,1,881
2575,6,1,15,5,0,0,1,538
2576,6,1,16,5,1,1,1,611
2577,6,1,17,2,0,0,1,657
2578,6,1,18,32,1,1,1,1180
2579,6,1,19,20,1,1,1,817
2580,6,1,20,2,0,0,1,472
2581,6,1,21,2,1,1,1,648
2582,6,1,22,10,1,1,1,697
2583,6,1,23,2,1,1,1,573
2584,6,1,24,32,0,0,1,1081
2585,6,1,25,5,0,0,1,766
2586,6,1,26,20,0,0,1,609
2587,6,1,27,10,1,1,1,1758
2588,6,1,28,10,1,1,1,1048
2589,6,1,29,10,1,1,1,677
2590,6,1,30,5,1,1,1,603
2591,6,1,31,32,0,0,1,1407
2592,6,1,32,20,0,0,1,599
2593,6,1,33,10,1,1,1,620
2594,6,1,34,5,1,1,1,544
2595,6,1,35,20,1,1,1,536
2596,6,1,36,10,0,0,1,642
2597,6,1,37,10,1,1,1,732
2598,6,1,38,20,0,0,1,848
2599,6,1,39,2,0,0,1,592
2600,6,1,40,20,1,1,1,507
2601,6,1,41,20,0,0,1,618
2602,6,1,42,5,1,1,1,511
2603,6,1,43,10,1,1,1,480
2604,6,1,44,20,0,0,1,748
2605,6,1,45,32,0,0,1,759
2606,6,1,46,2,0,0,1,642
2607,6,1,47,5,1,1,1,886
2608,6,1,48,20,1,1,1,519
2609,6,1,49,1,0,0,1,459
2610,6,1,50,5,1,1,1,546
2611,6,1,51,5,1,1,1,504
2612,6,1,52,1,0,0,1,480
2613,6,1,53,2,1,1,1,445
2614,6,1,54,1,1,1,1,400
2615,6,1,55,5,0,0,1,737
2616,6,1,56,10,1,1,1,523
2617,6,1,57,32,1,1,1,622
2618,6,1,58,2,0,0,1,424
2619,6,1,59,32,1,1,1,1107
2620,6,1,60,1,0,0,1,476
2621,6,1,61,5,0,0,1,416
2622,6,1,62,5,0,0,1,596
2623,6,1,63,2,0,0,1,548
2624,6,1,64,20,1,1,1,743
2625,6,1,65,2,1,1,1,405
2626,6,1,66,2,1,1,0,342
2627,6,1,67,2,0,0,1,430
2628,6,1,68,10,1,1,1,888
2629,6,1,69,32,0,0,1,661
2630,6,1,70,10,1,1,1,775
2631,6,1,71,20,0,0,1,582
2632,6,1,72,5,0,0,0,435
2633,6,1,73,10,1,1,1,523
2634,6,1,74,32,1,1,1,877
2635,6,1,75,5,1,1,1,521
2636,6,1,76,5,1,1,1,516
2637,6,1,77,20,0,0,1,1198
2638,6,1,78,2,0,0,1,514
2639,6,1,79,2,0,0,1,453
2640,6,1,80,20,0,0,1,602
2641,6,1,81,5,1,1,1,513
2642,6,1,82,10,0,0,1,498
2643,6,1,83,1,0,0,1,434
2644,6,1,84,32,0,0,1,873
2645,6,1,85,20,0,0,1,1103
2646,6,1,86,1,1,1,1,364
2647,6,1,87,2,1,1,1,462
2648,6,1,88,20,0,0,1,551
2649,6,1,89,2,0,0,1,842
2650,6,1,90,32,0,0,1,585
2651,6,1,91,20,1,1,0,656
2652,6,1,92,5,0,0,1,682
2653,6,1,93,32,1,1,1,756
2654,6,1,94,2,0,0,1,595
2655,6,1,95,5,1,1,1,489
2656,6,1,96,2,1,1,1,568
2657,6,1,97,1,0,0,1,405
2658,6,1,98,20,0,0,1,971
2659,6,1,99,1,1,1,1,714
2660,6,1,100,5,0,0,1,559
2661,6,1,101,5,1,1,1,855
2662,6,1,102,20,1,1,1,808
2663,6,1,103,10,1,1,1,544
2664,6,1,104,32,0,0,1,527
2665,6,1,105,20,0,0,1,957
2666,6,1,106,2,1,1,1,504
2667,6,1,107,10,1,1,1,583
2668,6,1,108,32,1,1,1,686
2669,6,1,109,32,1,1,1,1527
2670,6,1,110,2,1,1,1,471
2671,6,1,111,10,1,1,1,591
2672,6,1,112,20,1,1,1,799
2673,6,1,113,32,0,0,1,639
2674,6,1,114,2,0,0,1,483
2675,6,1,115,20,1,1,1,796
2676,6,1,116,5,0,0,1,398
2677,6,1,117,5,1,1,1,574
2678,6,1,118,5,1,1,1,776
2679,6,1,119,32,1,1,1,763
2680,6,1,120,10,1,1,1,834
2681,6,1,121,2,1,1,1,582
2682,6,1,122,2,0,0,1,433
2683,6,1,123,32,1,1,1,764
2684,6,1,124,2,1,1,1,753
2685,6,1,125,20,1,1,1,849
2686,6,1,126,10,1,1,1,886
2687,6,1,127,2,0,0,1,525
2688,6,1,128,32,1,1,1,924
2689,6,1,129,20,0,0,1,651
2690,6,1,130,10,0,0,1,818
2691,6,1,131,10,1,1,1,619
2692,6,1,132,32,1,1,1,765
2693,6,1,133,5,1,1,1,1626
2694,6,1,134,2,1,1,1,606
2695,6,1,135,5,0,0,1,658
2696,6,1,136,5,1,1,1,741
2697,6,1,137,10,0,0,1,613
2698,6,1,138,32,1,1,1,772
2699,6,1,139,10,1,1,1,473
2700,6,1,140,2,1,1,1,520
2701,6,1,141,10,1,1,1,711
2702,6,1,142,5,0,0,1,706
2703,6,1,143,10,1,1,1,649
2704,6,1,144,5,1,1,1,1021
2705,6,1,145,32,1,1,1,940
2706,6,1,146,1,1,1,1,657
2707,6,1,147,32,0,0,1,583
2708,6,1,148,10,0,0,0,515
2709,6,1,149,5,1,1,1,498
2710,6,1,150,5,0,0,1,755
2711,6,1,151,5,0,0,1,666
2712,6,1,152,10,0,0,1,681
2713,6,1,153,1,0,0,1,396
2714,6,1,154,20,1,1,1,616
2715,6,1,155,32,1,1,1,931
2716,6,1,156,5,0,0,1,593
2717,6,1,157,2,1,1,1,405
2718,6,1,158,5,1,1,1,536
2719,6,1,159,5,0,0,1,567
2720,6,1,160,32,0,0,1,678
2721,6,1,161,20,0,0,1,917
2722,6,1,162,10,0,0,1,476
2723,6,1,163,10,0,0,1,496
2724,6,1,164,10,0,0,1,518
2725,6,1,165,2,0,0,1,405
2726,6,1,166,32,0,0,1,583
2727,6,1,167,32,1,1,1,754
2728,6,1,168,20,1,1,1,474
2729,6,1,169,32,0,0,1,500
2730,6,1,170,10,0,0,1,1451
2731,6,1,171,10,0,0,1,502
2732,6,1,172,32,1,1,1,715
2733,6,1,173,2,1,1,1,557
2734,6,1,174,10,1,1,1,697
2735,6,1,175,32,0,0,1,1139
2736,6,1,176,32,0,0,1,1208
2737,6,1,177,10,1,1,1,805
2738,6,1,178,20,1,1,1,546
2739,6,1,179,1,1,1,1,464
2740,6,1,180,20,1,1,1,456
2741,6,1,181,32,1,1,1,574
2742,6,1,182,32,0,0,1,558
2743,6,1,183,1,0,0,1,450
2744,6,1,184,2,0,0,1,514
2745,6,1,185,2,0,0,1,756
2746,6,1,186,32,1,1,1,616
2747,6,1,187,1,1,1,1,388
2748,6,1,188,2,0,0,1,605
2749,6,1,189,5,0,0,1,608
2750,6,1,190,20,0,0,1,577
2751,6,1,191,32,0,0,1,1378
2752,6,1,192,20,1,1,1,1040
2753,6,1,193,32,1,1,1,625
2754,6,1,194,32,1,1,1,1842
2755,6,1,195,20,1,1,1,833
2756,6,1,196,5,1,1,1,696
2757,6,1,197,20,1,1,1,1061
2758,6,1,198,2,1,1,1,504
2759,6,1,199,20,1,1,1,751
2760,6,1,200,2,0,0,1,550
2761,6,1,201,10,1,1,1,785
2762,6,1,202,10,1,1,1,577
2763,6,1,203,32,1,1,1,607
2764,6,1,204,20,1,1,1,1185
2765,6,1,205,20,0,0,1,837
2766,6,1,206,2,1,1,1,864
2767,6,1,207,32,0,0,1,788
2768,6,1,208,2,1,1,1,660
2769,6,1,209,20,1,1,1,1221
2770,6,1,210,5,1,1,1,662
2771,6,1,211,5,0,0,1,567
2772,6,1,212,5,0,0,1,699
2773,6,1,213,20,0,0,1,660
2774,6,1,214,20,0,0,1,691
2775,6,1,215,10,1,1,1,901
2776,6,1,216,10,0,0,1,702
2777,6,1,217,2,1,1,1,688
2778,6,1,218,5,0,0,1,732
2779,6,1,219,32,0,0,1,783
2780,6,1,220,5,1,1,1,556
2781,6,1,221,10,0,0,1,604
2782,6,1,222,5,0,0,1,605
2783,6,1,223,5,1,1,1,598
2784,6,1,224,20,0,0,1,534
2785,6,1,225,5,0,0,1,636
2786,6,1,226,5,1,1,1,598
2787,6,1,227,10,0,0,1,618
2788,6,1,228,2,1,1,1,509
2789,6,1,229,20,0,0,1,616
2790,6,1,230,2,1,1,1,615
2791,6,1,231,32,1,1,1,504
2792,6,1,232,20,1,1,1,584
2793,6,1,233,32,1,1,1,709
2794,6,1,234,1,0,0,1,430
2795,6,1,235,10,1,1,1,536
2796,6,1,236,32,1,1,1,545
2797,6,1,237,10,0,0,1,575
2798,6,1,238,32,1,1,1,475
2799,6,1,239,32,0,0,1,749
2800,6,1,240,10,1,1,1,482
2801,6,1,241,10,0,0,1,523
2802,6,1,242,32,1,1,1,902
2803,6,1,243,20,0,0,1,668
2804,6,1,244,32,0,0,1,544
2805,6,1,245,20,1,1,1,802
2806,6,1,246,5,1,1,1,622
2807,6,1,247,10,1,1,1,502
2808,6,1,248,20,0,0,1,1216
2809,6,1,249,32,1,1,1,535
2810,6,1,250,20,1,1,1,472
2811,6,1,251,20,0,0,1,539
2812,6,1,252,32,1,1,1,862
2813,6,1,253,2,1,1,1,745
2814,6,1,254,5,1,1,1,476
2815,6,1,255,32,0,0,1,710
2816,6,1,256,2,1,1,1,459
2817,6,1,257,10,0,0,1,1031
2818,6,1,258,2,1,1,1,534
2819,6,1,259,2,0,0,1,528
2820,6,1,260,5,1,1,1,793
2821,6,1,261,32,0,0,1,1825
2822,6,1,262,32,1,1,1,592
2823,6,1,263,5,0,0,1,790
2824,6,1,264,10,0,0,1,707
2825,6,1,265,1,0,0,1,721
2826,6,1,266,20,1,1,1,637
2827,6,1,267,2,0,0,1,608
2828,6,1,268,10,1,1,1,1017
2829,6,1,269,1,0,0,1,683
2830,6,1,270,32,1,1,1,528
2831,6,1,271,20,0,0,1,632
2832,6,1,272,20,1,1,1,714
2833,6,1,273,1,1,1,1,548
2834,6,1,274,20,1,1,1,665
2835,6,1,275,10,0,0,1,619
2836,6,1,276,10,0,0,1,1065
2837,6,1,277,10,1,1,1,479
2838,6,1,278,5,0,0,1,494
2839,6,1,279,1,0,0,1,432
2840,6,1,280,20,1,1,1,484
2841,6,1,281,5,0,0,1,536
2842,6,1,282,5,0,0,1,851
2843,6,1,283,2,0,0,1,385
2844,6,1,284,5,1,1,1,449
2845,6,1,285,10,0,0,1,770
2846,6,1,286,20,0,0,1,727
2847,6,1,287,5,0,0,1,608
2848,6,1,288,5,0,0,1,1076
2849,6,1,289,2,1,1,1,548
2850,6,1,290,10,0,0,1,1569
2851,6,1,291,10,1,1,1,768
2852,6,1,292,5,1,1,1,584
2853,6,1,293,32,0,0,1,1090
2854,6,1,294,2,1,1,1,585
2855,6,1,295,5,0,0,1,532
2856,6,1,296,32,0,0,1,2508
2857,6,1,297,32,0,0,1,516
2858,6,1,298,10,0,0,1,608
2859,6,1,299,2,0,0,1,696
2860,6,1,300,10,0,0,1,546
2861,6,1,301,10,0,0,1,515
2862,6,1,302,2,1,1,1,543
2863,6,1,303,5,0,0,1,606
2864,6,1,304,32,0,0,1,877
2865,6,1,305,10,1,1,1,426
2866,6,1,306,5,0,0,1,490
2867,6,1,307,32,1,1,1,459
2868,6,1,308,32,0,0,1,1370
2869,6,1,309,5,1,1,1,493
2870,6,1,310,32,1,1,1,687
2871,6,1,311,5,0,0,1,515
2872,6,1,312,20,1,1,1,585
2873,6,1,313,32,0,0,1,1021
2874,6,1,314,20,1,1,1,469
2875,6,1,315,20,0,0,1,758
2876,6,1,316,2,1,1,1,650
2877,6,1,317,20,0,0,1,635
2878,6,1,318,5,0,0,1,1512
2879,6,1,319,2,0,0,1,448
2880,6,1,320,2,0,0,1,431
2881,6,1,321,10,1,1,1,702
2882,6,1,322,2,0,0,0,528
2883,6,1,323,5,0,0,1,744
2884,6,1,324,5,0,0,1,651
2885,6,1,325,10,1,1,1,803
2886,6,1,326,10,0,0,1,538
2887,6,1,327,20,0,0,1,461
2888,6,1,328,20,1,1,1,558
2889,6,1,329,20,1,1,1,1318
2890,6,1,330,32,1,1,1,643
2891,6,1,331,5,0,0,1,899
2892,6,1,332,10,1,1,1,629
2893,6,1,333,20,1,1,1,500
2894,6,1,334,10,1,1,1,534
2895,6,1,335,5,0,0,1,412
2896,6,1,336,10,0,0,1,769
2897,6,1,337,2,0,0,1,469
2898,6,1,338,2,1,1,1,486
2899,6,1,339,20,0,0,1,703
2900,6,1,340,1,0,0,1,533
2901,6,1,341,2,1,1,1,467
2902,6,1,342,2,1,1,1,488
2903,6,1,343,1,0,0,1,381
2904,6,1,344,20,0,0,1,496
2905,6,1,345,10,0,0,1,491
2906,6,1,346,2,1,1,1,483
2907,6,1,347,32,0,0,1,978
2908,6,1,348,20,1,1,1,985
2909,6,1,349,32,1,1,1,502
2910,6,1,350,20,1,1,1,660
2911,6,1,351,10,1,1,1,511
2912,6,1,352,32,0,0,1,572
2913,6,1,353,32,0,0,1,811
2914,6,1,354,1,1,1,1,466
2915,6,1,355,2,0,0,1,519
2916,6,1,356,1,1,1,1,890
2917,6,1,357,5,1,1,1,967
2918,6,1,358,10,0,0,1,818
2919,6,1,359,2,0,0,1,548
2920,6,1,360,20,0,0,1,1068
2921,6,1,361,2,0,0,1,518
2922,6,1,362,5,0,0,1,669
2923,6,1,363,10,1,1,1,644
2924,6,1,364,1,0,0,1,428
2925,6,1,365,10,1,1,1,1344
2926,6,1,366,1,0,0,1,593
2927,6,1,367,2,0,0,1,492
2928,6,1,368,5,0,0,1,850
2929,6,1,369,5,0,0,1,641
2930,6,1,370,5,0,0,1,508
2931,6,1,371,10,0,0,1,805
2932,6,1,372,2,1,1,1,498
2933,6,1,373,5,0,0,1,872
2934,6,1,374,5,0,0,1,476
2935,6,1,375,10,0,0,1,588
2936,6,1,376,2,0,0,1,542
2937,6,1,377,32,1,1,1,657
2938,6,1,378,20,0,0,1,682
2939,6,1,379,10,0,0,1,533
2940,6,1,380,5,0,0,1,546
2941,6,1,381,10,0,0,1,425
2942,6,1,382,5,0,0,1,432
2943,6,1,383,2,1,1,1,688
2944,6,1,384,2,1,1,1,498
2945,6,1,385,32,1,1,1,600
2946,6,1,386,2,1,1,1,470
2947,6,1,387,32,1,1,1,1706
2948,6,1,388,2,0,0,1,764
2949,6,1,389,1,1,1,1,439
2950,6,1,390,5,1,1,1,524
2951,6,1,391,32,0,0,1,684
2952,6,1,392,20,1,1,1,551
2953,6,1,393,5,0,0,1,543
2954,6,1,394,10,0,0,1,710
2955,6,1,395,10,0,0,1,538
2956,6,1,396,10,0,0,1,820
2957,6,1,397,2,1,1,1,541
2958,6,1,398,2,1,1,1,533
2959,6,1,399,10,0,0,1,1748
2960,6,1,400,32,1,1,1,661
2961,6,1,401,5,1,1,1,561
2962,6,1,402,2,1,1,1,405
2963,6,1,403,5,0,0,1,399
2964,6,1,404,2,1,1,1,415
2965,6,1,405,1,1,1,1,412
2966,6,1,406,20,1,1,1,689
2967,6,1,407,20,0,0,1,558
2968,6,1,408,10,1,1,1,422
2969,6,1,409,20,0,0,1,843
2970,6,1,410,10,0,0,1,704
2971,6,1,411,20,1,1,1,493
2972,6,1,412,20,0,0,1,1101
2973,6,1,413,2,0,0,1,411
2974,6,1,414,32,1,1,1,614
2975,6,1,415,32,1,1,1,485
2976,6,1,416,1,1,1,1,391
2977,6,1,417,10,1,1,1,459
2978,6,1,418,20,0,0,1,544
2979,6,1,419,5,0,0,1,484
2980,6,1,420,32,1,1,1,1071
2981,6,1,421,1,0,0,1,547
2982,6,1,422,2,0,0,1,374
2983,6,1,423,2,0,0,1,480
2984,6,1,424,32,0,0,1,606
2985,6,1,425,5,1,1,1,656
2986,6,1,426,10,0,0,1,739
2987,6,1,427,32,0,0,1,592
2988,6,1,428,2,0,0,1,504
2989,6,1,429,1,0,0,1,441
2990,6,1,430,32,1,1,1,503
2991,6,1,431,2,0,0,1,465
2992,6,1,432,20,0,0,1,523
2993,6,1,433,5,1,1,1,550
2994,6,1,434,1,1,1,1,452
2995,6,1,435,20,0,0,1,497
2996,6,1,436,10,1,1,1,1199
2997,6,1,437,10,0,0,1,474
2998,6,1,438,2,1,1,1,505
2999,6,1,439,10,0,0,1,575
3000,6,1,440,1,1,1,1,399
3001,6,1,441,5,1,1,0,564
3002,6,1,442,32,1,1,1,603
3003,6,1,443,5,1,1,1,422
3004,6,1,444,10,1,1,1,490
3005,6,1,445,32,1,1,1,1368
3006,6,1,446,2,1,1,1,514
3007,6,1,447,5,1,1,1,1526
3008,6,1,448,5,1,1,1,603
3009,6,1,449,20,0,0,1,712
3010,6,1,450,20,0,0,1,499
3011,6,1,451,1,1,1,1,422
3012,6,1,452,10,0,0,1,521
3013,6,1,453,20,1,1,1,432
3014,6,1,454,20,0,0,1,2196
3015,6,1,455,10,1,1,1,916
3016,6,1,456,20,0,0,1,513
3017,6,1,457,2,0,0,1,820
3018,6,1,458,32,1,1,1,1094
3019,6,1,459,32,0,0,1,637
3020,6,1,460,2,1,1,1,568
3021,6,1,461,10,1,1,1,607
3022,6,1,462,32,1,1,1,522
3023,6,1,463,32,1,1,1,570
3024,6,1,464,5,1,1,1,610
3025,6,1,465,32,0,0,1,710
3026,6,1,466,20,0,0,1,646
3027,6,1,467,10,0,0,1,546
3028,6,1,468,5,1,1,1,422
3029,6,1,469,5,1,1,0,662
3030,6,1,470,10,1,1,1,411
3031,6,1,471,20,1,1,1,609
3032,6,1,472,2,1,1,1,530
3033,6,1,473,32,0,0,1,587
3034,6,1,474,20,1,1,1,592
3035,6,1,475,2,0,0,1,475
3036,6,1,476,20,0,0,1,939
3037,6,1,477,20,1,1,1,492
3038,6,1,478,10,1,1,1,1038
3039,6,1,479,20,0,0,1,628
3040,6,1,480,32,0,0,1,532
3041,6,1,481,5,1,1,1,522
3042,6,1,482,5,1,1,1,512
3043,6,1,483,32,1,1,1,624
3044,6,1,484,2,0,0,1,887
3045,6,1,485,32,0,0,1,486
3046,6,1,486,2,1,1,1,440
3047,6,1,487,20,1,1,1,829
3048,6,1,488,10,1,1,1,608
3049,6,1,489,2,0,0,1,822
3050,6,1,490,2,1,1,1,517
3051,6,1,491,32,1,1,1,1939
3052,6,1,492,20,1,1,1,470
3053,6,1,493,10,1,1,1,597
3054,6,1,494,10,1,1,1,670
3055,6,1,495,2,1,1,1,850
3056,6,1,496,32,0,0,1,593
3057,6,1,497,32,0,0,1,970
3058,6,1,498,1,1,1,1,477
3059,6,1,499,5,1,1,1,481
3060,6,1,500,2,0,0,1,502
3061,6,1,501,32,1,1,1,482
3062,6,1,502,32,0,0,1,934
3063,6,1,503,2,0,0,1,547
3064,6,1,504,32,0,0,1,1797
3065,6,1,505,10,1,1,0,586
3066,6,1,506,10,0,0,1,899
3067,6,1,507,32,0,0,1,834
3068,6,1,508,20,1,1,1,451
3069,6,1,509,20,0,0,1,1201
3070,6,1,510,10,0,0,1,535
3071,6,1,511,2,0,0,1,485
3072,6,1,512,32,1,1,1,1389
3073,6,1,513,20,1,1,1,578
3074,6,1,514,20,0,0,1,751
3075,6,1,515,2,1,1,1,739
3076,6,1,516,5,0,0,1,622
3077,6,1,517,2,0,0,1,444
3078,6,1,518,2,0,0,1,416
3079,6,1,519,5,0,0,1,678
3080,6,1,520,10,0,0,1,1083
3081,6,1,521,10,1,1,1,604
3082,6,1,522,10,1,1,1,863
3083,6,1,523,10,1,1,1,544
3084,6,1,524,2,0,0,1,714
3085,6,1,525,10,0,0,1,653
3086,6,1,526,2,0,0,1,535
3087,6,1,527,2,1,1,1,592
3088,6,1,528,5,0,0,1,670
3089,6,1,529,20,0,0,1,441
3090,6,1,530,5,1,1,1,884
3091,6,1,531,2,0,0,1,1358
3092,6,1,532,32,0,0,1,840
3093,6,1,533,32,1,1,1,630
3094,6,1,534,1,1,1,1,439
3095,6,1,535,2,0,0,1,693
3096,6,1,536,32,0,0,1,1594
3097,6,1,537,20,0,0,1,674
3098,6,1,538,1,0,0,1,375
3099,6,1,539,32,1,1,1,1940
3100,6,1,540,32,0,0,1,1203
3101,6,1,541,20,1,1,1,2239
3102,6,1,542,10,0,0,1,1177
3103,6,1,543,1,0,0,1,525
3104,6,1,544,5,0,0,1,631
3105,6,1,545,2,0,0,1,460
3106,6,1,546,2,0,0,1,479
3107,6,1,547,2,0,0,1,411
3108,6,1,548,5,0,0,1,784
3109,6,1,549,2,1,1,1,497
3110,6,1,550,5,1,1,1,485
3111,6,1,551,20,0,0,1,837
3112,6,1,552,32,0,0,1,701
3113,6,1,553,2,1,1,1,818
3114,6,1,554,2,0,0,1,550
3115,6,1,555,10,1,1,1,492
3116,6,1,556,2,1,1,1,721
3117,6,1,557,20,1,1,1,992
3118,6,1,558,10,0,0,1,531
3119,6,1,559,32,0,0,1,953
3120,6,1,560,5,1,1,1,683
3121,6,1,561,10,1,1,1,523
3122,6,1,562,32,0,0,1,698
3123,6,1,563,10,0,0,1,488
3124,6,1,564,10,1,1,1,828
3125,6,1,565,20,1,1,1,1423
3126,6,1,566,20,0,0,1,734
3127,6,1,567,5,1,1,1,625
3128,6,1,568,5,0,0,1,548
3129,6,1,569,20,1,1,1,1083
3130,6,1,570,20,0,0,1,1811
3131,6,1,571,1,1,1,1,502
3132,6,1,572,5,1,1,1,560
3133,6,1,573,10,0,0,1,1029
3134,6,1,574,5,0,0,1,609
3135,6,1,575,20,0,0,1,617
3136,6,1,576,2,0,0,1,539
3137,6,1,577,5,1,1,1,615
3138,6,1,578,20,1,1,1,532
3139,6,1,579,2,1,1,1,464
3140,6,1,580,5,1,1,1,684
3141,6,1,581,10,0,0,1,1015
3142,6,1,582,32,1,1,1,960
3143,6,1,583,32,0,0,1,842
3144,6,1,584,5,0,0,1,928
3145,6,1,585,32,1,1,1,603
3146,6,1,586,20,1,1,1,826
3147,6,1,587,2,1,1,1,486
3148,6,1,588,5,1,1,1,464
3149,6,1,589,2,0,0,1,477
3150,6,1,590,32,0,0,1,510
3151,6,1,591,5,1,1,1,852
3152,6,1,592,2,1,1,1,462
3153,6,1,593,20,1,1,1,386
3154,6,1,594,32,1,1,0,561
3155,6,1,595,2,1,1,1,416
3156,6,1,596,2,1,1,1,321
3157,6,1,597,10,0,0,1,923
3158,6,1,598,5,1,1,1,716
3159,6,1,599,5,1,1,1,432
3160,6,1,600,20,1,1,1,567
3161,6,1,601,10,0,0,1,734
3162,6,1,602,10,0,0,1,631
3163,6,1,603,32,0,0,1,1551
3164,6,1,604,5,1,1,1,529
3165,6,1,605,5,0,0,1,674
3166,6,1,606,5,1,1,1,652
3167,6,1,607,1,1,1,1,561
3168,6,1,608,20,1,1,1,518
3169,6,1,609,10,1,1,1,512
3170,6,1,610,2,1,1,1,396
3171,6,1,611,20,1,1,1,556
3172,6,1,612,5,1,1,1,584
3173,6,1,613,20,1,1,1,517
3174,6,1,614,5,0,0,1,652
3175,6,1,615,20,1,1,1,593
3176,6,1,616,32,0,0,1,519
3177,6,1,617,10,0,0,1,1085
3178,6,1,618,20,1,1,1,1163
3179,6,1,619,32,0,0,1,893
3180,6,1,620,5,0,0,1,846
3181,6,1,621,20,1,1,1,1112
3182,6,1,622,10,0,0,1,898
3183,6,1,623,32,1,1,1,812
3184,6,1,624,20,0,0,1,720
3185,6,1,625,32,0,0,1,572
3186,6,1,626,2,0,0,1,488
3187,6,1,627,20,0,0,1,516
3188,6,1,628,10,0,0,1,534
3189,6,1,629,20,0,0,1,409
3190,6,1,630,32,0,0,0,561
3191,6,1,631,2,0,0,1,471
3192,6,1,632,32,1,1,1,832
3193,6,1,633,32,1,1,1,499
3194,6,1,634,5,0,0,1,480
3195,6,1,635,5,0,0,1,546
3196,6,1,636,20,1,1,1,847
3197,6,1,637,32,0,0,1,457
3198,6,1,638,2,0,0,1,442
3199,6,1,639,10,0,0,1,808
3200,6,1,640,20,0,0,1,540
3201,7,1,1,10,0,0,1,1413
3202,7,1,2,20,0,0,1,578
3203,7,1,3,10,0,0,1,539
3204,7,1,4,10,0,0,1,1735
3205,7,1,5,2,0,0,1,613
3206,7,1,6,20,0,0,1,1106
3207,7,1,7,20,0,0,1,566
3208,7,1,8,2,1,1,1,544
3209,7,1,9,10,1,1,1,682
3210,7,1,10,1,0,0,1,604
3211,7,1,11,2,0,0,1,1115
3212,7,1,12,32,1,1,1,1523
3213,7,1,13,10,0,0,1,1637
3214,7,1,14,20,0,0,1,1470
3215,7,1,15,5,1,1,1,942
3216,7,1,16,20,1,1,1,1002
3217,7,1,17,1,1,1,1,703
3218,7,1,18,2,1,1,1,506
3219,7,1,19,2,0,0,1,630
3220,7,1,20,32,1,1,1,1112
3221,7,1,21,5,0,0,1,724
3222,7,1,22,32,1,1,1,767
3223,7,1,23,20,0,0,1,907
3224,7,1,24,2,1,1,1,881
3225,7,1,25,2,0,0,0,490
3226,7,1,26,2,0,0,1,599
3227,7,1,27,32,1,1,1,1149
3228,7,1,28,10,1,1,1,1112
3229,7,1,29,1,1,1,1,555
3230,7,1,30,20,0,0,1,866
3231,7,1,31,2,1,1,1,609
3232,7,1,32,2,0,0,1,840
3233,7,1,33,2,1,1,1,509
3234,7,1,34,2,0,0,1,698
3235,7,1,35,20,0,0,1,683
3236,7,1,36,2,0,0,1,538
3237,7,1,37,2,1,1,1,493
3238,7,1,38,32,1,1,1,819
3239,7,1,39,10,1,1,1,600
3240,7,1,40,32,1,1,1,678
3241,7,1,41,2,0,0,1,893
3242,7,1,42,2,0,0,1,695
3243,7,1,43,20,0,0,1,755
3244,7,1,44,20,1,1,1,973
3245,7,1,45,5,0,0,1,698
3246,7,1,46,20,0,0,1,735
3247,7,1,47,20,1,1,1,627
3248,7,1,48,20,1,1,1,690
3249,7,1,49,2,1,1,1,487
3250,7,1,50,20,0,0,1,568
3251,7,1,51,10,1,1,1,967
3252,7,1,52,5,1,1,1,513
3253,7,1,53,20,0,0,1,766
3254,7,1,54,2,0,0,1,796
3255,7,1,55,32,1,1,1,790
3256,7,1,56,32,0,0,1,1543
3257,7,1,57,5,1,1,1,612
3258,7,1,58,32,1,1,1,1374
3259,7,1,59,20,1,1,1,551
3260,7,1,60,5,0,0,1,710
3261,7,1,61,5,0,0,1,587
3262,7,1,62,2,1,1,1,679
3263,7,1,63,5,1,1,1,586
3264,7,1,64,10,1,1,1,598
3265,7,1,65,20,0,0,1,896
3266,7,1,66,20,0,0,1,1163
3267,7,1,67,20,1,1,1,742
3268,7,1,68,5,0,0,1,624
3269,7,1,69,5,1,1,1,599
3270,7,1,70,2,1,1,1,1260
3271,7,1,71,20,1,1,1,551
3272,7,1,72,10,0,0,1,648
3273,7,1,73,1,0,0,1,428
3274,7,1,74,20,0,0,1,621
3275,7,1,75,2,0,0,1,533
3276,7,1,76,10,1,1,1,573
3277,7,1,77,32,1,1,1,786
3278,7,1,78,1,0,0,1,602
3279,7,1,79,20,0,0,1,695
3280,7,1,80,2,0,0,1,1061
3281,7,1,81,10,1,1,1,641
3282,7,1,82,32,0,0,0,626
3283,7,1,83,2,0,0,1,746
3284,7,1,84,5,1,1,1,752
3285,7,1,85,20,1,1,1,1099
3286,7,1,86,10,0,0,1,1533
3287,7,1,87,32,1,1,1,1143
3288,7,1,88,32,1,1,1,1405
3289,7,1,89,20,0,0,1,1132
3290,7,1,90,2,1,1,1,654
3291,7,1,91,10,1,1,1,547
3292,7,1,92,32,1,1,1,750
3293,7,1,93,5,1,1,1,628
3294,7,1,94,10,1,1,1,685
3295,7,1,95,2,0,0,1,908
3296,7,1,96,2,0,0,1,725
3297,7,1,97,32,0,0,1,665
3298,7,1,98,1,1,1,1,602
3299,7,1,99,32,0,0,1,496
3300,7,1,100,1,0,0,1,453
3301,7,1,101,10,0,0,1,888
3302,7,1,102,32,0,0,1,584
3303,7,1,103,5,0,0,1,588
3304,7,1,104,10,1,1,1,591
3305,7,1,105,5,0,0,1,758
3306,7,1,106,10,1,1,1,529
3307,7,1,107,32,1,1,1,594
3308,7,1,108,20,0,0,1,628
3309,7,1,109,20,1,1,1,527
3310,7,1,110,20,1,1,1,518
3311,7,1,111,5,0,0,1,489
3312,7,1,112,2,0,0,1,692
3313,7,1,113,2,0,0,1,452
3314,7,1,114,2,0,0,0,482
3315,7,1,115,1,1,1,1,556
3316,7,1,116,5,0,0,1,1010
3317,7,1,117,1,0,0,1,424
3318,7,1,118,2,0,0,1,593
3319,7,1,119,2,1,1,1,623
3320,7,1,120,10,0,0,1,759
3321,7,1,121,2,1,1,1,577
3322,7,1,122,32,0,0,1,1255
3323,7,1,123,2,1,1,1,1773
3324,7,1,124,5,1,1,1,565
3325,7,1,125,20,0,0,1,892
3326,7,1,126,20,0,0,1,768
3327,7,1,127,2,1,1,1,500
3328,7,1,128,32,1,1,1,646
3329,7,1,129,20,1,1,1,747
3330,7,1,130,10,0,0,1,834
3331,7,1,131,32,0,0,1,1286
3332,7,1,132,32,1,1,1,875
3333,7,1,133,10,1,1,1,581
3334,7,1,134,5,0,0,0,555
3335,7,1,135,2,0,0,1,501
3336,7,1,136,20,1,1,1,622
3337,7,1,137,2,0,0,1,595
3338,7,1,138,20,1,1,1,567
3339,7,1,139,32,1,1,1,1015
3340,7,1,140,5,1,1,1,576
3341,7,1,141,10,0,0,1,951
3342,7,1,142,5,0,0,1,610
3343,7,1,143,2,0,0,1,592
3344,7,1,144,32,1,1,1,917
3345,7,1,145,32,1,1,1,569
3346,7,1,146,5,1,1,1,518
3347,7,1,147,10,1,1,1,1701
3348,7,1,148,20,1,1,1,491
3349,7,1,149,2,1,1,1,693
3350,7,1,150,20,1,1,1,669
3351,7,1,151,2,1,1,1,712
3352,7,1,152,2,0,0,1,532
3353,7,1,153,2,0,0,1,537
3354,7,1,154,2,1,1,1,512
3355,7,1,155,10,1,1,1,830
3356,7,1,156,2,1,1,1,516
3357,7,1,157,1,0,0,0,371
3358,7,1,158,2,0,0,1,511
3359,7,1,159,10,1,1,1,1104
3360,7,1,160,2,1,1,1,412
3361,7,1,161,5,1,1,1,761
3362,7,1,162,2,1,1,1,493
3363,7,1,163,2,0,0,1,753
3364,7,1,164,10,0,0,1,575
3365,7,1,165,1,1,1,1,905
3366,7,1,166,32,0,0,1,833
3367,7,1,167,2,1,1,1,559
3368,7,1,168,20,1,1,1,1458
3369,7,1,169,2,0,0,1,1241
3370,7,1,170,5,0,0,1,527
3371,7,1,171,10,1,1,1,696
3372,7,1,172,1,0,0,1,546
3373,7,1,173,10,0,0,1,719
3374,7,1,174,20,0,0,1,552
3375,7,1,175,20,0,0,1,723
3376,7,1,176,32,1,1,1,717
3377,7,1,177,5,0,0,1,474
3378,7,1,178,32,0,0,1,651
3379,7,1,179,20,1,1,1,633
3380,7,1,180,5,0,0,1,633
3381,7,1,181,32,0,0,1,1194
3382,7,1,182,5,1,1,1,882
3383,7,1,183,5,1,1,1,568
3384,7,1,184,32,0,0,1,566
3385,7,1,185,20,1,1,1,698
3386,7,1,186,32,1,1,1,681
3387,7,1,187,10,0,0,1,618
3388,7,1,188,10,0,0,1,975
3389,7,1,189,1,0,0,1,651
3390,7,1,190,10,0,0,1,1040
3391,7,1,191,1,1,1,1,767
3392,7,1,192,5,1,1,1,651
3393,7,1,193,20,1,1,1,954
3394,7,1,194,2,1,1,1,824
3395,7,1,195,20,0,0,1,630
3396,7,1,196,2,1,1,1,513
3397,7,1,197,5,1,1,1,541
3398,7,1,198,10,1,1,1,797
3399,7,1,199,1,1,1,1,463
3400,7,1,200,10,0,0,1,995
3401,7,1,201,10,0,0,1,1765
3402,7,1,202,10,1,1,1,615
3403,7,1,203,2,1,1,1,900
3404,7,1,204,5,0,0,1,608
3405,7,1,205,10,1,1,1,484
3406,7,1,206,10,1,1,1,782
3407,7,1,207,20,0,0,1,586
3408,7,1,208,32,0,0,1,826
3409,7,1,209,2,0,0,0,532
3410,7,1,210,10,1,1,1,593
3411,7,1,211,20,1,1,1,768
3412,7,1,212,32,0,0,1,1056
3413,7,1,213,20,0,0,1,1317
3414,7,1,214,2,0,0,1,828
3415,7,1,215,1,0,0,1,531
3416,7,1,216,5,1,1,1,685
3417,7,1,217,5,0,0,1,1487
3418,7,1,218,5,0,0,1,1041
3419,7,1,219,2,0,0,1,1034
3420,7,1,220,32,0,0,1,557
3421,7,1,221,5,0,0,1,927
3422,7,1,222,10,1,1,1,843
3423,7,1,223,5,1,1,1,540
3424,7,1,224,20,0,0,1,982
3425,7,1,225,20,0,0,1,608
3426,7,1,226,20,1,1,0,689
3427,7,1,227,32,0,0,1,715
3428,7,1,228,2,0,0,1,758
3429,7,1,229,5,1,1,1,708
3430,7,1,230,2,0,0,1,594
3431,7,1,231,5,0,0,1,712
3432,7,1,232,32,0,0,1,823
3433,7,1,233,20,1,1,1,892
3434,7,1,234,20,1,1,1,632
3435,7,1,235,2,0,0,1,494
3436,7,1,236,5,1,1,1,621
3437,7,1,237,10,1,1,1,663
3438,7,1,238,32,0,0,1,759
3439,7,1,239,10,0,0,1,558
3440,7,1,240,5,0,0,1,625
3441,7,1,241,10,1,1,1,543
3442,7,1,242,32,0,0,1,721
3443,7,1,243,32,0,0,1,947
3444,7,1,244,5,1,1,1,1304
3445,7,1,245,1,1,1,1,805
3446,7,1,246,20,0,0,1,900
3447,7,1,247,20,1,1,1,537
3448,7,1,248,1,1,1,1,516
3449,7,1,249,2,1,1,1,545
3450,7,1,250,2,1,1,1,490
3451,7,1,251,32,0,0,1,1559
3452,7,1,252,2,1,1,1,527
3453,7,1,253,20,1,1,1,1066
3454,7,1,254,10,0,0,1,661
3455,7,1,255,20,0,0,1,725
3456,7,1,256,32,1,1,1,705
3457,7,1,257,10,1,1,1,812
3458,7,1,258,5,1,1,1,1139
3459,7,1,259,2,0,3,0,912
3460,7,1,260,10,1,1,1,1420
3461,7,1,261,10,0,0,1,915
3462,7,1,262,2,0,0,1,728
3463,7,1,263,32,0,0,1,935
3464,7,1,264,2,1,1,1,760
3465,7,1,265,5,1,1,1,938
3466,7,1,266,1,1,1,1,916
3467,7,1,267,20,0,0,1,896
3468,7,1,268,5,1,1,1,622
3469,7,1,269,5,0,0,1,534
3470,7,1,270,10,1,1,1,580
3471,7,1,271,5,1,1,1,502
3472,7,1,272,5,1,1,1,504
3473,7,1,273,5,0,0,1,882
3474,7,1,274,10,0,0,1,688
3475,7,1,275,2,0,0,1,840
3476,7,1,276,1,0,0,1,661
3477,7,1,277,20,0,0,1,583
3478,7,1,278,32,1,1,1,723
3479,7,1,279,1,1,1,1,714
3480,7,1,280,10,0,0,1,491
3481,7,1,281,32,0,0,1,860
3482,7,1,282,32,1,1,1,906
3483,7,1,283,2,0,0,1,851
3484,7,1,284,5,1,1,1,964
3485,7,1,285,5,1,1,1,551
3486,7,1,286,20,0,0,1,950
3487,7,1,287,20,1,1,1,606
3488,7,1,288,2,1,1,1,655
3489,7,1,289,10,1,1,1,451
3490,7,1,290,32,0,0,1,539
3491,7,1,291,10,0,0,0,469
3492,7,1,292,10,1,1,1,633
3493,7,1,293,10,0,0,1,603
3494,7,1,294,10,1,1,1,673
3495,7,1,295,10,1,1,1,983
3496,7,1,296,32,1,1,1,653
3497,7,1,297,20,0,0,1,743
3498,7,1,298,32,0,0,1,620
3499,7,1,299,32,0,0,1,727
3500,7,1,300,20,0,0,1,538
3501,7,1,301,5,1,1,1,513
3502,7,1,302,5,0,0,1,497
3503,7,1,303,32,1,1,1,475
3504,7,1,304,10,1,1,1,491
3505,7,1,305,5,1,1,1,769
3506,7,1,306,20,1,1,1,854
3507,7,1,307,20,0,0,1,611
3508,7,1,308,5,1,1,1,518
3509,7,1,309,2,1,1,1,587
3510,7,1,310,32,0,0,1,1255
3511,7,1,311,10,0,0,1,692
3512,7,1,312,20,1,1,1,1189
3513,7,1,313,2,1,1,1,660
3514,7,1,314,2,0,0,1,751
3515,7,1,315,1,1,1,1,474
3516,7,1,316,5,1,1,1,393
3517,7,1,317,5,0,0,1,641
3518,7,1,318,32,0,0,1,1019
3519,7,1,319,5,0,0,1,590
3520,7,1,320,10,1,1,1,595
3521,7,1,321,2,0,0,1,565
3522,7,1,322,32,0,0,1,790
3523,7,1,323,2,1,1,1,599
3524,7,1,324,1,0,0,1,431
3525,7,1,325,20,1,1,1,799
3526,7,1,326,2,0,0,1,565
3527,7,1,327,2,1,1,1,425
3528,7,1,328,2,1,1,1,463
3529,7,1,329,5,1,1,1,1041
3530,7,1,330,2,0,0,1,610
3531,7,1,331,5,1,1,1,860
3532,7,1,332,20,0,0,1,664
3533,7,1,333,10,0,0,1,564
3534,7,1,334,32,1,1,1,760
3535,7,1,335,1,0,0,1,444
3536,7,1,336,2,1,1,1,491
3537,7,1,337,10,0,0,1,650
3538,7,1,338,5,0,0,1,522
3539,7,1,339,20,0,0,1,572
3540,7,1,340,10,1,1,1,991
3541,7,1,341,1,1,1,1,500
3542,7,1,342,10,0,0,1,617
3543,7,1,343,20,1,1,1,618
3544,7,1,344,32,1,1,1,1450
3545,7,1,345,20,0,0,1,1820
3546,7,1,346,5,1,1,1,627
3547,7,1,347,2,1,1,1,631
3548,7,1,348,20,1,1,1,829
3549,7,1,349,2,1,1,1,558
3550,7,1,350,5,1,1,1,469
3551,7,1,351,10,0,0,1,606
3552,7,1,352,2,0,0,1,390
3553,7,1,353,2,1,1,1,491
3554,7,1,354,20,0,0,1,1181
3555,7,1,355,10,0,0,1,652
3556,7,1,356,5,1,1,1,500
3557,7,1,357,2,1,1,1,720
3558,7,1,358,32,0,0,1,1589
3559,7,1,359,2,0,0,1,449
3560,7,1,360,10,1,1,1,654
3561,7,1,361,5,0,0,0,525
3562,7,1,362,5,1,1,1,460
3563,7,1,363,5,0,0,1,515
3564,7,1,364,32,1,1,1,1032
3565,7,1,365,5,1,1,1,510
3566,7,1,366,20,1,1,0,600
3567,7,1,367,32,1,1,1,653
3568,7,1,368,32,1,1,1,616
3569,7,1,369,2,1,1,1,546
3570,7,1,370,20,1,1,1,1178
3571,7,1,371,32,0,0,1,1171
3572,7,1,372,10,1,1,1,736
3573,7,1,373,1,0,0,0,1049
3574,7,1,374,10,0,0,1,1372
3575,7,1,375,20,0,0,1,688
3576,7,1,376,10,0,0,1,1120
3577,7,1,377,32,1,1,1,1131
3578,7,1,378,20,1,1,1,724
3579,7,1,379,32,1,1,1,928
3580,7,1,380,10,1,1,1,518
3581,7,1,381,2,1,1,1,529
3582,7,1,382,10,0,0,1,967
3583,7,1,383,20,0,0,1,1377
3584,7,1,384,32,0,0,1,625
3585,7,1,385,10,0,0,1,535
3586,7,1,386,20,0,0,1,1195
3587,7,1,387,2,0,0,1,516
3588,7,1,388,20,1,1,1,1573
3589,7,1,389,32,0,0,1,1099
3590,7,1,390,5,0,0,1,475
3591,7,1,391,2,1,1,1,548
3592,7,1,392,10,1,1,1,632
3593,7,1,393,5,0,0,1,534
3594,7,1,394,5,0,0,1,1042
3595,7,1,395,32,1,1,1,877
3596,7,1,396,2,1,1,1,458
3597,7,1,397,5,0,0,1,668
3598,7,1,398,32,0,0,1,713
3599,7,1,399,5,0,0,1,596
3600,7,1,400,10,0,0,1,640
3601,7,1,401,32,0,0,1,741
3602,7,1,402,32,0,0,1,585
3603,7,1,403,5,1,1,1,791
3604,7,1,404,10,1,1,1,546
3605,7,1,405,32,1,1,1,597
3606,7,1,406,10,0,0,1,1390
3607,7,1,407,32,0,0,1,694
3608,7,1,408,2,1,1,1,467
3609,7,1,409,5,1,1,1,578
3610,7,1,410,5,0,0,1,589
3611,7,1,411,32,0,0,1,1050
3612,7,1,412,5,0,0,1,631
3613,7,1,413,5,0,0,1,469
3614,7,1,414,32,0,0,1,481
3615,7,1,415,5,0,0,1,363
3616,7,1,416,5,1,1,1,607
3617,7,1,417,5,1,1,1,1122
3618,7,1,418,32,0,0,1,623
3619,7,1,419,2,1,1,1,578
3620,7,1,420,32,0,0,1,1403
3621,7,1,421,1,0,0,1,811
3622,7,1,422,20,1,1,1,1039
3623,7,1,423,2,0,0,1,901
3624,7,1,424,20,0,0,1,916
3625,7,1,425,20,0,0,1,556
3626,7,1,426,32,1,1,1,597
3627,7,1,427,5,0,0,1,770
3628,7,1,428,10,1,1,1,723
3629,7,1,429,10,0,0,1,1581
3630,7,1,430,20,0,0,1,571
3631,7,1,431,2,1,1,1,491
3632,7,1,432,32,0,0,1,660
3633,7,1,433,5,1,1,1,1126
3634,7,1,434,5,0,0,1,1109
3635,7,1,435,32,1,1,1,552
3636,7,1,436,32,0,0,1,806
3637,7,1,437,20,0,0,1,607
3638,7,1,438,10,0,0,1,855
3639,7,1,439,32,0,0,1,831
3640,7,1,440,1,0,0,1,1241
3641,7,1,441,32,0,0,1,2951
3642,7,1,442,20,1,1,1,987
3643,7,1,443,32,0,0,1,1324
3644,7,1,444,5,1,1,0,862
3645,7,1,445,5,0,0,1,805
3646,7,1,446,20,1,1,1,668
3647,7,1,447,5,0,0,1,781
3648,7,1,448,5,1,1,1,688
3649,7,1,449,10,0,0,1,1092
3650,7,1,450,2,0,0,1,1070
3651,7,1,451,5,0,0,1,527
3652,7,1,452,10,0,0,1,423
3653,7,1,453,5,1,1,1,645
3654,7,1,454,5,0,0,1,493
3655,7,1,455,32,1,1,1,1082
3656,7,1,456,2,1,1,1,1196
3657,7,1,457,20,1,1,1,599
3658,7,1,458,10,1,1,1,526
3659,7,1,459,5,1,1,1,511
3660,7,1,460,20,0,0,1,826
3661,7,1,461,32,1,1,1,510
3662,7,1,462,5,1,1,1,652
3663,7,1,463,1,1,1,1,833
3664,7,1,464,20,0,0,1,1426
3665,7,1,465,5,0,0,1,664
3666,7,1,466,5,0,0,1,511
3667,7,1,467,10,0,0,1,561
3668,7,1,468,20,1,1,1,1384
3669,7,1,469,10,0,0,1,649
3670,7,1,470,20,1,1,1,1029
3671,7,1,471,32,0,0,1,1043
3672,7,1,472,5,1,1,1,553
3673,7,1,473,20,1,1,1,631
3674,7,1,474,2,0,0,1,859
3675,7,1,475,2,0,0,1,772
3676,7,1,476,10,1,1,1,628
3677,7,1,477,32,0,0,1,1324
3678,7,1,478,1,0,0,1,1060
3679,7,1,479,5,1,1,1,735
3680,7,1,480,5,0,0,1,1245
3681,7,1,481,32,1,1,1,1919
3682,7,1,482,10,0,0,1,1390
3683,7,1,483,32,0,0,1,988
3684,7,1,484,10,1,1,1,959
3685,7,1,485,10,0,0,1,908
3686,7,1,486,20,0,0,1,473
3687,7,1,487,2,0,0,1,369
3688,7,1,488,10,0,0,1,365
3689,7,1,489,5,0,0,1,326
3690,7,1,490,20,0,0,1,448
3691,7,1,491,2,0,0,1,323
3692,7,1,492,32,1,1,1,649
3693,7,1,493,20,1,1,1,1480
3694,7,1,494,5,0,0,1,504
3695,7,1,495,20,0,0,1,529
3696,7,1,496,10,1,1,1,856
3697,7,1,497,5,0,0,1,689
3698,7,1,498,10,0,0,1,1030
3699,7,1,499,20,0,0,1,923
3700,7,1,500,20,0,0,1,619
3701,7,1,501,20,1,1,1,1351
3702,7,1,502,20,1,1,1,563
3703,7,1,503,20,0,0,1,540
3704,7,1,504,20,1,1,1,549
3705,7,1,505,20,0,0,1,466
3706,7,1,506,2,1,1,1,569
3707,7,1,507,1,0,0,1,444
3708,7,1,508,32,0,0,1,381
3709,7,1,509,20,1,1,1,638
3710,7,1,510,5,1,1,1,638
3711,7,1,511,10,0,0,1,1064
3712,7,1,512,10,1,1,1,865
3713,7,1,513,5,1,1,1,553
3714,7,1,514,32,1,1,1,928
3715,7,1,515,32,1,1,1,577
3716,7,1,516,2,1,1,1,491
3717,7,1,517,20,1,1,1,587
3718,7,1,518,10,1,1,1,620
3719,7,1,519,32,0,0,1,555
3720,7,1,520,5,0,0,1,606
3721,7,1,521,10,0,0,0,724
3722,7,1,522,2,0,0,1,727
3723,7,1,523,2,0,0,1,509
3724,7,1,524,20,1,1,0,478
3725,7,1,525,2,0,0,1,449
3726,7,1,526,10,0,0,1,442
3727,7,1,527,10,1,1,1,671
3728,7,1,528,20,1,1,1,893
3729,7,1,529,2,1,1,1,529
3730,7,1,530,20,0,0,1,1234
3731,7,1,531,32,0,0,1,539
3732,7,1,532,32,1,1,1,760
3733,7,1,533,32,1,1,1,1138
3734,7,1,534,20,0,0,1,585
3735,7,1,535,20,1,1,1,594
3736,7,1,536,2,1,1,1,781
3737,7,1,537,32,0,0,1,676
3738,7,1,538,10,0,0,1,1325
3739,7,1,539,10,1,1,1,877
3740,7,1,540,10,1,1,1,708
3741,7,1,541,20,1,1,1,1025
3742,7,1,542,5,0,0,1,1303
3743,7,1,543,2,1,1,1,677
3744,7,1,544,5,1,1,1,567
3745,7,1,545,20,1,1,1,627
3746,7,1,546,20,1,1,1,781
3747,7,1,547,32,0,0,1,562
3748,7,1,548,32,1,1,1,517
3749,7,1,549,32,1,1,1,1263
3750,7,1,550,5,0,0,1,596
3751,7,1,551,10,1,1,1,1193
3752,7,1,552,2,1,1,1,1107
3753,7,1,553,1,1,1,1,846
3754,7,1,554,32,1,1,1,602
3755,7,1,555,2,0,0,1,1076
3756,7,1,556,2,1,1,1,650
3757,7,1,557,2,1,1,1,458
3758,7,1,558,5,0,0,1,600
3759,7,1,559,20,1,1,1,609
3760,7,1,560,32,0,0,1,621
3761,7,1,561,5,0,0,1,795
3762,7,1,562,5,0,0,0,1230
3763,7,1,563,10,0,0,1,2335
3764,7,1,564,20,0,0,1,663
3765,7,1,565,10,0,0,1,953
3766,7,1,566,5,1,1,1,955
3767,7,1,567,32,1,1,1,1407
3768,7,1,568,32,1,1,1,978
3769,7,1,569,10,1,1,1,522
3770,7,1,570,5,0,0,1,640
3771,7,1,571,20,0,0,1,639
3772,7,1,572,1,1,1,1,800
3773,7,1,573,5,0,0,1,1858
3774,7,1,574,2,1,1,1,543
3775,7,1,575,10,1,1,1,1934
3776,7,1,576,2,1,1,1,935
3777,7,1,577,5,1,1,1,571
3778,7,1,578,2,0,0,0,425
3779,7,1,579,1,0,0,1,1639
3780,7,1,580,2,0,0,1,941
3781,7,1,581,1,1,1,1,668
3782,7,1,582,32,1,1,1,676
3783,7,1,583,20,1,1,1,721
3784,7,1,584,32,1,1,1,576
3785,7,1,585,10,1,1,1,666
3786,7,1,586,10,0,0,1,911
3787,7,1,587,5,1,1,1,1565
3788,7,1,588,2,1,1,1,570
3789,7,1,589,10,1,1,1,1083
3790,7,1,590,20,0,0,1,1629
3791,7,1,591,1,1,1,1,1703
3792,7,1,592,10,0,0,1,853
3793,7,1,593,32,1,1,1,660
3794,7,1,594,20,1,1,1,814
3795,7,1,595,2,0,0,1,788
3796,7,1,596,20,1,1,1,1199
3797,7,1,597,32,1,1,1,2001
3798,7,1,598,32,1,1,1,870
3799,7,1,599,10,0,0,1,1898
3800,7,1,600,5,0,0,1,1583
3801,7,1,601,32,0,0,1,3475
3802,7,1,602,10,0,0,1,726
3803,7,1,603,5,0,0,1,595
3804,7,1,604,2,0,0,1,620
3805,7,1,605,32,0,0,1,1225
3806,7,1,606,32,0,0,1,855
3807,7,1,607,10,1,1,0,346
3808,7,1,608,10,1,1,1,509
3809,7,1,609,2,0,0,1,505
3810,7,1,610,20,0,0,1,466
3811,7,1,611,32,0,0,1,628
3812,7,1,612,32,1,1,1,700
3813,7,1,613,32,1,1,1,547
3814,7,1,614,10,0,0,1,508
3815,7,1,615,5,0,0,1,700
3816,7,1,616,1,1,1,1,527
3817,7,1,617,20,1,1,1,496
3818,7,1,618,5,1,1,1,453
3819,7,1,619,10,1,1,1,552
3820,7,1,620,10,0,0,1,708
3821,7,1,621,1,0,0,1,366
3822,7,1,622,10,1,1,1,662
3823,7,1,623,32,1,1,1,661
3824,7,1,624,10,0,0,1,562
3825,7,1,625,32,1,1,1,832
3826,7,1,626,5,1,1,1,562
3827,7,1,627,2,1,3,0,737
3828,7,1,628,1,1,1,1,670
3829,7,1,629,5,1,1,1,886
3830,7,1,630,1,0,0,1,605
3831,7,1,631,2,1,1,1,688
3832,7,1,632,32,0,0,1,897
3833,7,1,633,10,1,1,1,1011
3834,7,1,634,32,1,1,1,676
3835,7,1,635,10,0,0,0,447
3836,7,1,636,32,0,0,1,1125
3837,7,1,637,10,1,1,1,1100
3838,7,1,638,32,1,1,1,521
3839,7,1,639,5,1,1,1,516
3840,7,1,640,20,1,1,1,542
3841,8,1,1,2,0,0,1,731
3842,8,1,2,32,1,1,1,1003
3843,8,1,3,2,1,1,1,894
3844,8,1,4,2,0,0,1,1042
3845,8,1,5,32,0,0,1,764
3846,8,1,6,5,1,1,1,605
3847,8,1,7,32,1,1,1,1109
3848,8,1,8,20,0,0,1,507
3849,8,1,9,1,1,1,1,435
3850,8,1,10,20,1,1,1,994
3851,8,1,11,5,0,0,1,658
3852,8,1,12,20,0,0,1,1204
3853,8,1,13,32,1,1,1,817
3854,8,1,14,5,1,1,1,1221
3855,8,1,15,5,1,1,1,587
3856,8,1,16,2,0,0,1,722
3857,8,1,17,32,1,1,1,747
3858,8,1,18,10,0,0,1,426
3859,8,1,19,10,0,0,1,688
3860,8,1,20,32,0,0,1,1755
3861,8,1,21,5,1,1,1,487
3862,8,1,22,2,0,0,1,392
3863,8,1,23,10,1,1,1,688
3864,8,1,24,32,1,1,1,1498
3865,8,1,25,20,0,0,1,1098
3866,8,1,26,20,0,0,1,643
3867,8,1,27,20,1,1,1,870
3868,8,1,28,32,1,1,1,849
3869,8,1,29,32,1,1,1,532
3870,8,1,30,10,0,0,1,677
3871,8,1,31,20,0,0,1,608
3872,8,1,32,2,1,1,1,539
3873,8,1,33,1,1,1,1,560
3874,8,1,34,10,1,1,1,654
3875,8,1,35,10,1,1,0,808
3876,8,1,36,1,1,1,1,451
3877,8,1,37,10,0,0,1,919
3878,8,1,38,32,0,0,1,717
3879,8,1,39,10,1,1,1,986
3880,8,1,40,32,1,1,1,846
3881,8,1,41,5,0,0,1,628
3882,8,1,42,32,1,1,1,553
3883,8,1,43,5,1,1,1,904
3884,8,1,44,2,1,1,1,586
3885,8,1,45,5,1,1,1,1147
3886,8,1,46,32,1,1,1,1266
3887,8,1,47,10,0,0,1,807
3888,8,1,48,2,0,0,1,1104
3889,8,1,49,32,0,0,1,891
3890,8,1,50,20,1,1,1,559
3891,8,1,51,5,1,1,1,570
3892,8,1,52,1,0,0,1,405
3893,8,1,53,10,0,0,1,589
3894,8,1,54,10,0,0,1,515
3895,8,1,55,10,1,1,1,815
3896,8,1,56,32,0,0,1,555
3897,8,1,57,2,1,1,1,814
3898,8,1,58,5,0,0,1,663
3899,8,1,59,32,0,0,1,1154
3900,8,1,60,20,1,1,1,789
3901,8,1,61,2,0,0,1,916
3902,8,1,62,20,1,1,1,538
3903,8,1,63,5,0,0,1,855
3904,8,1,64,5,0,0,1,427
3905,8,1,65,20,0,0,1,1042
3906,8,1,66,10,1,1,1,1510
3907,8,1,67,20,0,0,1,1042
3908,8,1,68,2,0,0,1,517
3909,8,1,69,2,1,1,1,517
3910,8,1,70,10,0,0,1,553
3911,8,1,71,10,0,0,1,505
3912,8,1,72,32,1,1,1,576
3913,8,1,73,2,0,0,1,640
3914,8,1,74,5,0,0,1,710
3915,8,1,75,5,1,1,1,970
3916,8,1,76,20,0,0,1,720
3917,8,1,77,10,1,1,1,677
3918,8,1,78,5,1,1,1,730
3919,8,1,79,2,0,0,1,688
3920,8,1,80,5,1,1,1,566
3921,8,1,81,10,1,1,1,683
3922,8,1,82,2,1,1,1,897
3923,8,1,83,20,0,0,1,624
3924,8,1,84,32,0,0,1,1475
3925,8,1,85,32,0,0,1,926
3926,8,1,86,2,0,0,1,639
3927,8,1,87,32,0,0,1,2756
3928,8,1,88,5,0,0,1,645
3929,8,1,89,5,0,0,1,581
3930,8,1,90,32,1,1,1,860
3931,8,1,91,10,0,0,1,743
3932,8,1,92,10,0,0,1,1033
3933,8,1,93,10,1,1,1,673
3934,8,1,94,2,0,0,1,613
3935,8,1,95,20,0,0,1,573
3936,8,1,96,1,1,1,1,489
3937,8,1,97,32,0,0,1,1092
3938,8,1,98,5,1,1,1,584
3939,8,1,99,20,0,0,1,1160
3940,8,1,100,2,0,0,1,546
3941,8,1,101,2,1,1,1,429
3942,8,1,102,2,0,0,1,409
3943,8,1,103,20,1,1,1,528
3944,8,1,104,5,1,1,1,497
3945,8,1,105,2,0,0,1,703
3946,8,1,106,20,1,1,1,520
3947,8,1,107,5,0,0,1,765
3948,8,1,108,32,0,0,1,1372
3949,8,1,109,32,0,0,1,729
3950,8,1,110,5,1,1,1,537
3951,8,1,111,20,0,0,1,664
3952,8,1,112,2,0,0,1,558
3953,8,1,113,32,1,1,1,1590
3954,8,1,114,10,0,0,1,735
3955,8,1,115,5,1,1,1,1372
3956,8,1,116,5,1,1,1,732
3957,8,1,117,5,0,0,1,876
3958,8,1,118,20,0,0,1,678
3959,8,1,119,5,0,0,1,722
