trial_id,Subject,block_n,Trial,set_size,correctResponse,resp,acc,RT
1,1,1,1,10,0,0,1,552
2,1,1,2,10,1,1,1,607
3,1,1,3,5,0,0,1,556
4,1,1,4,1,0,0,1,379
5,1,1,5,5,0,0,1,391
6,1,1,6,20,1,1,1,468
7,1,1,7,10,0,0,1,467
8,1,1,8,10,0,0,1,467
9,1,1,9,32,0,0,1,796
10,1,1,10,10,0,0,1,578
11,1,1,11,20,1,1,1,522
12,1,1,12,2,1,1,1,390
13,1,1,13,32,0,0,1,443
14,1,1,14,32,0,0,1,727
15,1,1,15,10,0,0,1,655
16,1,1,16,2,1,1,1,837
17,1,1,17,32,0,0,1,546
18,1,1,18,5,0,0,1,664
19,1,1,19,20,0,0,1,779
20,1,1,20,10,1,1,1,398
21,1,1,21,32,0,0,1,656
22,1,1,22,20,0,0,1,421
23,1,1,23,1,0,0,1,378
24,1,1,24,10,1,1,1,616
25,1,1,25,5,0,0,1,756
26,1,1,26,5,1,1,1,685
27,1,1,27,5,1,1,1,530
28,1,1,28,32,1,1,1,462
29,1,1,29,2,0,0,1,712
30,1,1,30,10,0,0,1,473
31,1,1,31,1,1,1,1,369
32,1,1,32,1,0,0,1,480
33,1,1,33,32,1,1,1,1116
34,1,1,34,5,0,0,1,419
35,1,1,35,5,1,1,1,717
36,1,1,36,1,0,0,1,373
37,1,1,37,5,0,0,1,434
38,1,1,38,32,0,0,1,1133
39,1,1,39,2,1,1,1,543
40,1,1,40,5,0,0,1,629
41,1,1,41,2,0,0,1,672
42,1,1,42,32,0,0,1,514
43,1,1,43,20,0,0,1,446
44,1,1,44,2,1,1,1,516
45,1,1,45,1,1,1,1,375
46,1,1,46,32,1,1,1,516
47,1,1,47,32,1,1,1,870
48,1,1,48,32,0,0,1,506
49,1,1,49,20,1,1,1,449
50,1,1,50,32,1,1,1,465
51,1,1,51,10,1,1,1,462
52,1,1,52,10,0,0,1,518
53,1,1,53,5,1,1,1,410
54,1,1,54,5,0,0,1,385
55,1,1,55,1,1,1,1,549
56,1,1,56,20,0,0,1,516
57,1,1,57,32,1,1,1,494
58,1,1,58,10,1,1,1,383
59,1,1,59,2,0,0,1,605
60,1,1,60,10,0,0,1,569
61,1,1,61,2,0,0,1,359
62,1,1,62,5,1,1,1,716
63,1,1,63,20,1,1,1,487
64,1,1,64,32,0,0,1,405
65,1,1,65,2,1,1,1,433
66,1,1,66,5,1,1,1,660
67,1,1,67,5,0,0,1,425
68,1,1,68,20,0,0,1,394
69,1,1,69,5,1,1,1,507
70,1,1,70,5,0,0,1,677
71,1,1,71,10,1,1,1,729
72,1,1,72,32,0,0,1,670
73,1,1,73,5,1,1,1,511
74,1,1,74,32,1,1,1,462
75,1,1,75,20,0,0,1,373
76,1,1,76,5,0,0,1,374
77,1,1,77,2,1,1,1,438
78,1,1,78,2,0,0,1,441
79,1,1,79,10,1,1,1,622
80,1,1,80,10,1,1,1,664
81,1,1,81,32,1,1,1,581
82,1,1,82,32,0,0,1,629
83,1,1,83,2,1,1,1,509
84,1,1,84,10,0,0,1,821
85,1,1,85,32,1,1,1,695
86,1,1,86,5,0,0,1,531
87,1,1,87,20,1,1,1,598
88,1,1,88,20,0,0,1,553
89,1,1,89,10,0,0,1,807
90,1,1,90,20,1,1,1,593
91,1,1,91,10,1,1,1,479
92,1,1,92,10,1,1,1,603
93,1,1,93,32,1,1,1,549
94,1,1,94,20,0,0,1,457
95,1,1,95,32,1,1,1,611
96,1,1,96,5,0,0,1,473
97,1,1,97,2,0,0,1,531
98,1,1,98,5,1,1,1,671
99,1,1,99,32,0,0,1,641
100,1,1,100,2,1,1,1,367
101,1,1,101,10,1,1,1,563
102,1,1,102,5,1,1,1,523
103,1,1,103,2,1,1,1,431
104,1,1,104,2,0,0,1,390
105,1,1,105,32,1,1,1,477
106,1,1,106,32,0,0,1,476
107,1,1,107,2,1,1,1,476
108,1,1,108,2,1,1,1,526
109,1,1,109,2,0,0,1,588
110,1,1,110,32,1,1,1,413
111,1,1,111,32,1,1,1,507
112,1,1,112,32,1,1,1,411
113,1,1,113,5,0,0,1,688
114,1,1,114,2,0,0,1,347
115,1,1,115,32,1,1,1,1013
116,1,1,116,10,0,0,1,457
117,1,1,117,5,0,0,1,424
118,1,1,118,10,1,1,1,388
119,1,1,119,5,1,1,1,557
120,1,1,120,5,0,0,1,489
121,1,1,121,32,0,0,1,497
122,1,1,122,2,1,1,1,621
123,1,1,123,2,0,0,1,557
124,1,1,124,10,0,0,1,548
125,1,1,125,20,0,0,1,579
126,1,1,126,2,0,0,1,649
127,1,1,127,32,0,0,1,592
128,1,1,128,5,1,1,1,488
129,1,1,129,20,1,1,1,702
130,1,1,130,20,1,1,1,595
131,1,1,131,5,0,0,1,505
132,1,1,132,20,1,1,1,511
133,1,1,133,10,1,1,1,465
134,1,1,134,20,0,0,1,552
135,1,1,135,10,0,0,1,547
136,1,1,136,20,1,1,1,1069
137,1,1,137,10,1,1,1,1519
138,1,1,138,2,1,1,1,449
139,1,1,139,10,0,0,1,829
140,1,1,140,20,1,1,1,426
141,1,1,141,5,1,1,1,450
142,1,1,142,10,1,1,1,685
143,1,1,143,2,1,1,1,404
144,1,1,144,1,0,0,1,424
145,1,1,145,20,1,1,1,671
146,1,1,146,32,0,0,1,572
147,1,1,147,5,1,1,1,619
148,1,1,148,20,1,1,1,612
149,1,1,149,1,0,0,1,433
150,1,1,150,2,0,0,1,441
151,1,1,151,1,1,1,1,410
152,1,1,152,20,0,0,1,997
153,1,1,153,2,0,0,1,434
154,1,1,154,2,0,0,1,882
155,1,1,155,10,1,1,1,507
156,1,1,156,32,0,0,1,732
157,1,1,157,5,0,0,1,1165
158,1,1,158,20,1,1,1,749
159,1,1,159,32,1,1,1,755
160,1,1,160,5,1,1,1,610
161,1,1,161,1,1,1,1,586
162,1,1,162,10,1,1,1,482
163,1,1,163,32,1,1,1,644
164,1,1,164,32,1,1,1,646
165,1,1,165,5,1,1,1,718
166,1,1,166,2,1,1,1,404
167,1,1,167,2,1,1,1,397
168,1,1,168,1,0,0,1,398
169,1,1,169,32,1,1,1,446
170,1,1,170,20,1,1,1,700
171,1,1,171,10,1,1,1,640
172,1,1,172,10,0,0,1,530
173,1,1,173,5,0,0,1,645
174,1,1,174,10,1,1,1,615
175,1,1,175,2,1,1,1,540
176,1,1,176,32,1,1,1,516
177,1,1,177,2,1,1,1,1025
178,1,1,178,10,1,1,1,499
179,1,1,179,2,1,1,1,527
180,1,1,180,32,1,1,1,472
181,1,1,181,10,0,0,1,935
182,1,1,182,20,1,1,1,416
183,1,1,183,20,1,1,1,793
184,1,1,184,1,0,0,1,725
185,1,1,185,2,1,1,1,414
186,1,1,186,2,0,0,1,466
187,1,1,187,20,1,1,1,451
188,1,1,188,20,1,1,1,519
189,1,1,189,20,1,1,1,575
190,1,1,190,5,1,1,1,1270
191,1,1,191,10,0,0,1,539
192,1,1,192,10,1,1,1,806
193,1,1,193,5,1,1,1,1582
194,1,1,194,20,0,0,1,2175
195,1,1,195,5,0,0,1,1141
196,1,1,196,2,0,0,1,431
197,1,1,197,5,0,0,1,502
198,1,1,198,1,0,0,1,445
199,1,1,199,20,1,1,1,399
200,1,1,200,32,1,1,1,724
201,1,1,201,2,0,0,1,514
202,1,1,202,1,1,1,1,370
203,1,1,203,5,1,1,1,433
204,1,1,204,10,1,1,1,499
205,1,1,205,32,0,0,1,464
206,1,1,206,1,0,0,1,403
207,1,1,207,10,1,1,1,580
208,1,1,208,2,0,0,1,358
209,1,1,209,2,1,1,1,459
210,1,1,210,2,0,0,1,629
211,1,1,211,10,1,1,1,544
212,1,1,212,10,1,1,1,470
213,1,1,213,32,1,1,1,458
214,1,1,214,10,1,1,1,446
215,1,1,215,5,1,1,1,420
216,1,1,216,5,0,0,1,771
217,1,1,217,1,0,0,1,388
218,1,1,218,10,0,0,1,489
219,1,1,219,5,1,1,1,449
220,1,1,220,2,1,1,1,481
221,1,1,221,5,1,1,1,438
222,1,1,222,32,1,1,1,507
223,1,1,223,20,1,1,1,445
224,1,1,224,32,1,1,1,471
225,1,1,225,2,0,0,1,606
226,1,1,226,2,1,1,1,484
227,1,1,227,2,0,0,1,390
228,1,1,228,20,0,0,1,379
229,1,1,229,2,0,0,1,457
230,1,1,230,32,1,1,1,521
231,1,1,231,5,1,1,1,915
232,1,1,232,32,0,0,1,721
233,1,1,233,2,1,1,1,677
234,1,1,234,10,1,1,1,628
235,1,1,235,20,0,0,1,1052
236,1,1,236,20,1,1,1,807
237,1,1,237,10,1,1,1,457
238,1,1,238,20,1,1,1,443
239,1,1,239,32,0,0,1,875
240,1,1,240,20,0,0,1,565
241,1,1,241,1,1,1,1,367
242,1,1,242,1,1,1,1,384
243,1,1,243,10,1,1,0,406
244,1,1,244,32,0,0,1,989
245,1,1,245,10,0,0,1,518
246,1,1,246,5,1,1,1,634
247,1,1,247,20,0,0,1,495
248,1,1,248,5,1,1,1,601
249,1,1,249,10,1,1,1,404
250,1,1,250,5,0,0,1,584
251,1,1,251,32,0,0,1,966
252,1,1,252,10,0,0,1,497
253,1,1,253,2,0,0,1,548
254,1,1,254,20,0,0,1,564
255,1,1,255,20,1,1,1,592
256,1,1,256,10,1,1,1,458
257,1,1,257,5,1,1,1,740
258,1,1,258,32,1,1,1,544
259,1,1,259,2,0,0,1,455
260,1,1,260,10,0,0,1,1004
261,1,1,261,20,0,0,1,813
262,1,1,262,20,1,1,1,423
263,1,1,263,32,0,0,1,610
264,1,1,264,32,0,0,1,461
265,1,1,265,10,1,1,1,826
266,1,1,266,1,0,0,1,542
267,1,1,267,32,0,0,1,607
268,1,1,268,20,0,0,1,446
269,1,1,269,5,0,0,1,542
270,1,1,270,20,0,0,1,616
271,1,1,271,5,1,1,1,390
272,1,1,272,20,1,1,1,403
273,1,1,273,20,1,1,1,426
274,1,1,274,32,1,1,1,463
275,1,1,275,1,0,0,1,349
276,1,1,276,32,1,1,1,794
277,1,1,277,32,1,1,1,467
278,1,1,278,32,1,1,1,644
279,1,1,279,20,1,1,1,873
280,1,1,280,1,1,1,1,424
281,1,1,281,32,0,0,1,605
282,1,1,282,20,1,1,1,428
283,1,1,283,2,1,1,1,418
284,1,1,284,10,1,1,1,382
285,1,1,285,20,1,1,1,585
286,1,1,286,2,1,1,1,646
287,1,1,287,20,1,1,1,524
288,1,1,288,5,0,0,1,675
289,1,1,289,32,1,1,1,423
290,1,1,290,5,0,0,1,589
291,1,1,291,10,0,0,1,743
292,1,1,292,10,1,1,1,509
293,1,1,293,5,0,0,1,827
294,1,1,294,2,1,1,1,421
295,1,1,295,20,0,0,1,498
296,1,1,296,32,1,1,1,594
297,1,1,297,32,1,1,1,669
298,1,1,298,32,0,0,1,504
299,1,1,299,5,0,0,1,489
300,1,1,300,32,0,0,1,650
301,1,1,301,20,0,0,1,687
302,1,1,302,20,0,0,1,594
303,1,1,303,5,0,0,1,497
304,1,1,304,10,1,1,1,498
305,1,1,305,1,0,0,1,530
306,1,1,306,1,0,0,1,384
307,1,1,307,5,0,0,1,504
308,1,1,308,10,0,0,1,431
309,1,1,309,2,1,1,1,491
310,1,1,310,10,0,0,1,520
311,1,1,311,5,0,0,1,612
312,1,1,312,10,1,1,1,480
313,1,1,313,2,1,1,1,360
314,1,1,314,5,1,1,1,390
315,1,1,315,2,1,1,1,334
316,1,1,316,20,0,0,1,427
317,1,1,317,20,1,1,1,470
318,1,1,318,2,1,1,1,368
319,1,1,319,20,1,1,1,432
320,1,1,320,32,0,0,1,479
321,1,1,321,20,1,1,1,887
322,1,1,322,10,0,0,1,1192
323,1,1,323,20,0,0,1,1019
324,1,1,324,5,0,0,1,542
325,1,1,325,20,0,0,1,420
326,1,1,326,5,1,1,1,447
327,1,1,327,20,0,0,1,522
328,1,1,328,2,0,0,1,500
329,1,1,329,2,0,0,1,445
330,1,1,330,5,1,1,1,479
331,1,1,331,10,0,0,1,476
332,1,1,332,5,1,1,1,363
333,1,1,333,32,0,0,1,381
334,1,1,334,32,0,0,1,697
335,1,1,335,2,0,0,1,433
336,1,1,336,32,1,1,1,545
337,1,1,337,5,0,0,1,473
338,1,1,338,2,1,1,1,460
339,1,1,339,10,1,1,1,489
340,1,1,340,2,1,1,1,470
341,1,1,341,20,1,1,1,573
342,1,1,342,5,0,0,1,486
343,1,1,343,5,0,0,1,480
344,1,1,344,10,0,0,1,765
345,1,1,345,32,0,0,1,652
346,1,1,346,32,1,1,1,527
347,1,1,347,5,1,1,1,646
348,1,1,348,10,0,0,1,505
349,1,1,349,5,1,1,1,604
350,1,1,350,10,0,0,1,517
351,1,1,351,10,0,0,1,476
352,1,1,352,20,1,1,1,450
353,1,1,353,1,1,1,1,366
354,1,1,354,5,1,1,1,474
355,1,1,355,2,0,0,1,837
356,1,1,356,10,0,0,1,564
357,1,1,357,10,1,1,1,1207
358,1,1,358,5,0,0,1,1087
359,1,1,359,10,1,1,1,543
360,1,1,360,2,1,1,1,787
361,1,1,361,5,1,1,1,1149
362,1,1,362,5,0,0,1,583
363,1,1,363,10,0,0,1,538
364,1,1,364,5,0,0,1,439
365,1,1,365,10,0,0,1,527
366,1,1,366,5,0,0,1,657
367,1,1,367,20,0,0,1,524
368,1,1,368,10,0,0,1,633
369,1,1,369,1,1,1,1,382
370,1,1,370,20,1,1,1,637
371,1,1,371,10,1,1,1,405
372,1,1,372,2,1,1,1,608
373,1,1,373,10,0,0,0,474
374,1,1,374,32,1,1,1,464
375,1,1,375,20,1,1,1,602
376,1,1,376,20,0,0,1,473
377,1,1,377,5,1,1,1,560
378,1,1,378,10,0,0,1,537
379,1,1,379,32,1,1,1,519
380,1,1,380,10,1,1,1,607
381,1,1,381,5,1,1,1,664
382,1,1,382,10,1,1,1,582
383,1,1,383,32,1,1,1,412
384,1,1,384,20,1,1,1,716
385,1,1,385,10,0,0,1,437
386,1,1,386,2,0,0,1,615
387,1,1,387,32,0,0,1,441
388,1,1,388,5,1,1,1,469
389,1,1,389,5,1,1,1,634
390,1,1,390,32,0,0,1,677
391,1,1,391,1,1,1,1,387
392,1,1,392,5,0,0,1,544
393,1,1,393,5,0,0,1,538
394,1,1,394,32,0,0,1,750
395,1,1,395,20,1,1,1,470
396,1,1,396,2,0,0,1,410
397,1,1,397,20,0,0,1,1153
398,1,1,398,10,0,0,1,526
399,1,1,399,10,0,0,1,488
400,1,1,400,2,1,1,1,524
401,1,1,401,2,1,1,1,553
402,1,1,402,20,0,0,1,512
403,1,1,403,1,0,0,1,458
404,1,1,404,32,1,1,1,432
405,1,1,405,2,1,1,1,431
406,1,1,406,5,1,1,1,347
407,1,1,407,5,0,0,1,486
408,1,1,408,20,0,0,1,502
409,1,1,409,20,0,0,1,467
410,1,1,410,5,1,1,1,596
411,1,1,411,1,0,0,1,386
412,1,1,412,10,0,0,1,540
413,1,1,413,10,1,1,1,639
414,1,1,414,2,1,1,1,531
415,1,1,415,2,0,0,1,529
416,1,1,416,5,0,0,1,489
417,1,1,417,32,0,0,1,509
418,1,1,418,20,1,1,1,505
419,1,1,419,32,0,0,1,579
420,1,1,420,10,0,0,1,430
421,1,1,421,10,0,0,1,755
422,1,1,422,20,0,0,1,495
423,1,1,423,20,0,0,1,513
424,1,1,424,2,1,1,1,503
425,1,1,425,32,0,0,1,407
426,1,1,426,10,1,1,1,815
427,1,1,427,32,0,0,1,604
428,1,1,428,10,0,0,1,739
429,1,1,429,2,0,0,1,420
430,1,1,430,2,0,0,1,480
431,1,1,431,10,1,1,1,513
432,1,1,432,2,0,0,1,426
433,1,1,433,20,0,0,1,441
434,1,1,434,5,0,0,1,407
435,1,1,435,2,1,1,1,509
436,1,1,436,10,1,1,1,438
437,1,1,437,1,0,0,1,395
438,1,1,438,10,1,1,1,481
439,1,1,439,2,0,0,1,379
440,1,1,440,5,0,0,1,434
441,1,1,441,32,0,0,1,517
442,1,1,442,32,0,0,1,471
443,1,1,443,2,1,1,1,742
444,1,1,444,20,0,0,1,453
445,1,1,445,2,0,0,1,438
446,1,1,446,32,1,1,1,539
447,1,1,447,2,1,1,1,404
448,1,1,448,5,1,1,1,466
449,1,1,449,2,0,0,1,390
450,1,1,450,20,0,0,1,717
451,1,1,451,2,0,0,1,470
452,1,1,452,2,0,0,1,411
453,1,1,453,10,0,0,1,419
454,1,1,454,5,0,0,1,409
455,1,1,455,2,0,0,1,377
456,1,1,456,10,1,1,1,397
457,1,1,457,5,0,0,1,555
458,1,1,458,1,1,1,1,503
459,1,1,459,32,0,0,1,769
460,1,1,460,32,1,1,1,906
461,1,1,461,10,1,1,1,513
462,1,1,462,10,1,1,1,536
463,1,1,463,10,1,1,1,531
464,1,1,464,5,1,1,1,468
465,1,1,465,32,1,1,1,455
466,1,1,466,2,0,0,1,727
467,1,1,467,32,1,1,1,695
468,1,1,468,10,0,0,1,554
469,1,1,469,2,0,0,1,475
470,1,1,470,20,1,1,1,514
471,1,1,471,32,1,1,1,1037
472,1,1,472,10,1,1,1,392
473,1,1,473,32,0,0,1,478
474,1,1,474,32,0,0,1,513
475,1,1,475,20,1,1,1,486
476,1,1,476,32,0,0,1,442
477,1,1,477,20,0,0,1,607
478,1,1,478,5,0,0,1,437
479,1,1,479,5,0,0,1,548
480,1,1,480,20,1,1,1,390
481,1,1,481,20,0,0,1,456
482,1,1,482,20,1,1,1,384
483,1,1,483,20,0,0,1,472
484,1,1,484,32,0,0,1,480
485,1,1,485,20,0,0,1,742
486,1,1,486,5,1,1,1,474
487,1,1,487,1,1,1,1,456
488,1,1,488,2,0,0,1,528
489,1,1,489,32,1,1,1,465
490,1,1,490,20,0,0,1,1045
491,1,1,491,5,0,0,1,529
492,1,1,492,20,0,0,1,644
493,1,1,493,20,1,1,1,369
494,1,1,494,20,1,1,1,519
495,1,1,495,10,0,0,1,449
496,1,1,496,5,1,1,1,423
497,1,1,497,10,0,0,1,353
498,1,1,498,5,0,0,1,659
499,1,1,499,20,1,1,1,694
500,1,1,500,2,0,0,1,618
501,1,1,501,32,1,1,1,1594
502,1,1,502,32,0,0,1,669
503,1,1,503,5,0,0,1,357
504,1,1,504,32,1,1,1,1067
505,1,1,505,2,0,0,1,446
506,1,1,506,32,0,0,1,491
507,1,1,507,1,1,1,1,400
508,1,1,508,10,0,0,1,819
509,1,1,509,32,0,0,1,447
510,1,1,510,20,0,0,1,412
511,1,1,511,32,1,1,1,575
512,1,1,512,2,0,0,1,405
513,1,1,513,20,1,1,1,499
514,1,1,514,10,0,0,1,432
515,1,1,515,32,1,1,1,740
516,1,1,516,10,0,0,1,366
517,1,1,517,5,0,0,1,471
518,1,1,518,32,1,1,1,547
519,1,1,519,2,0,0,1,402
520,1,1,520,10,1,1,1,499
521,1,1,521,20,0,0,1,610
522,1,1,522,2,1,1,1,488
523,1,1,523,20,0,0,1,481
524,1,1,524,32,0,0,1,460
525,1,1,525,2,1,1,1,392
526,1,1,526,10,0,0,1,679
527,1,1,527,20,0,0,1,488
528,1,1,528,1,1,1,1,440
529,1,1,529,2,0,0,1,394
530,1,1,530,5,1,1,1,425
531,1,1,531,20,0,0,1,455
532,1,1,532,2,0,0,1,523
533,1,1,533,10,0,0,1,368
534,1,1,534,5,1,1,1,466
535,1,1,535,10,1,1,1,384
536,1,1,536,2,1,1,1,332
537,1,1,537,20,1,1,1,620
538,1,1,538,10,0,0,1,373
539,1,1,539,32,1,1,1,601
540,1,1,540,5,0,0,1,332
541,1,1,541,5,0,0,1,343
542,1,1,542,5,0,0,1,330
543,1,1,543,10,0,0,1,450
544,1,1,544,5,1,1,1,369
545,1,1,545,2,1,1,1,407
546,1,1,546,20,1,1,1,430
547,1,1,547,20,1,1,1,470
548,1,1,548,5,0,0,1,444
549,1,1,549,32,1,1,1,476
550,1,1,550,2,1,1,1,645
551,1,1,551,2,1,1,1,384
552,1,1,552,2,0,0,1,484
553,1,1,553,32,0,0,1,432
554,1,1,554,10,1,1,1,354
555,1,1,555,5,1,1,1,510
556,1,1,556,20,0,0,1,461
557,1,1,557,2,1,1,1,475
558,1,1,558,32,0,0,1,678
559,1,1,559,20,0,0,1,802
560,1,1,560,32,0,0,1,413
561,1,1,561,20,0,0,1,457
562,1,1,562,2,0,0,1,407
563,1,1,563,32,0,0,1,476
564,1,1,564,32,0,0,1,461
565,1,1,565,2,1,1,1,443
566,1,1,566,2,0,0,1,469
567,1,1,567,10,1,1,1,520
568,1,1,568,10,0,0,1,392
569,1,1,569,20,1,1,1,692
570,1,1,570,10,1,1,1,531
571,1,1,571,10,1,1,1,804
572,1,1,572,2,1,1,1,420
573,1,1,573,20,1,1,1,453
574,1,1,574,32,0,0,1,499
575,1,1,575,5,1,1,1,567
576,1,1,576,20,1,1,1,475
577,1,1,577,2,0,0,1,487
578,1,1,578,5,0,0,1,737
579,1,1,579,5,1,1,1,548
580,1,1,580,32,1,1,1,863
581,1,1,581,20,0,0,1,556
582,1,1,582,2,0,0,1,557
583,1,1,583,2,0,0,1,769
584,1,1,584,10,0,0,1,571
585,1,1,585,20,1,1,1,904
586,1,1,586,5,1,1,1,984
587,1,1,587,5,1,1,1,568
588,1,1,588,32,1,1,1,1576
589,1,1,589,2,1,1,1,737
590,1,1,590,2,1,1,1,434
591,1,1,591,2,1,1,1,527
592,1,1,592,32,1,1,1,456
593,1,1,593,20,1,1,1,531
594,1,1,594,20,1,1,1,402
595,1,1,595,2,1,1,1,608
596,1,1,596,2,0,0,1,400
597,1,1,597,5,1,1,1,489
598,1,1,598,32,0,0,1,526
599,1,1,599,5,1,1,1,383
600,1,1,600,5,1,1,1,643
601,1,1,601,32,0,0,1,566
602,1,1,602,5,0,0,1,653
603,1,1,603,1,1,1,1,464
604,1,1,604,20,0,0,1,568
605,1,1,605,5,1,1,1,579
606,1,1,606,2,1,1,1,491
607,1,1,607,2,0,0,1,617
608,1,1,608,2,1,1,1,520
609,1,1,609,32,0,0,1,728
610,1,1,610,2,1,1,1,774
611,1,1,611,10,1,1,1,502
612,1,1,612,20,0,0,1,708
613,1,1,613,2,0,0,1,407
614,1,1,614,32,1,1,1,782
615,1,1,615,20,1,1,1,553
616,1,1,616,32,1,1,1,538
617,1,1,617,10,0,0,1,720
618,1,1,618,10,0,0,1,583
619,1,1,619,2,0,0,1,451
620,1,1,620,2,0,0,1,373
621,1,1,621,5,1,1,1,544
622,1,1,622,1,1,1,1,365
623,1,1,623,32,0,0,1,420
624,1,1,624,10,1,1,1,437
625,1,1,625,32,1,1,1,466
626,1,1,626,20,0,0,1,451
627,1,1,627,20,0,0,1,617
628,1,1,628,1,1,1,1,411
629,1,1,629,10,0,0,1,649
630,1,1,630,20,0,0,1,508
631,1,1,631,1,0,0,1,397
632,1,1,632,5,1,1,1,526
633,1,1,633,5,1,1,1,335
634,1,1,634,2,1,1,1,607
635,1,1,635,1,0,0,1,533
636,1,1,636,20,0,0,1,884
637,1,1,637,20,0,0,1,517
638,1,1,638,1,1,1,1,707
639,1,1,639,5,0,0,1,474
640,1,1,640,10,0,0,1,477
641,2,1,1,5,0,3,0,2434
642,2,1,2,32,1,1,0,2021
643,2,1,3,20,0,0,0,1280
644,2,1,4,20,1,1,1,781
645,2,1,5,2,1,1,0,1352
646,2,1,6,2,1,1,1,850
647,2,1,7,10,0,0,1,1810
648,2,1,8,20,1,3,0,1140
649,2,1,9,2,0,3,0,1412
650,2,1,10,10,1,1,0,3225
651,2,1,11,20,0,0,0,1790
652,2,1,12,20,1,1,1,1617
653,2,1,13,5,1,1,1,832
654,2,1,14,2,0,0,1,1007
655,2,1,15,20,1,1,1,691
656,2,1,16,20,1,1,1,648
657,2,1,17,20,1,1,1,662
658,2,1,18,32,1,1,1,719
659,2,1,19,10,1,1,1,1531
660,2,1,20,32,0,0,1,712
661,2,1,21,32,0,0,1,1121
662,2,1,22,32,0,0,1,2583
663,2,1,23,5,1,1,1,1102
664,2,1,24,1,0,0,1,1108
665,2,1,25,32,1,1,1,749
666,2,1,26,32,1,1,1,966
667,2,1,27,32,1,1,1,1251
668,2,1,28,1,0,0,1,1720
669,2,1,29,32,1,1,1,1351
670,2,1,30,32,0,0,1,944
671,2,1,31,2,0,0,1,1242
672,2,1,32,32,1,1,1,983
673,2,1,33,10,0,0,1,681
674,2,1,34,20,0,0,0,2616
675,2,1,35,20,1,1,1,1827
676,2,1,36,2,0,0,1,1554
677,2,1,37,32,1,1,1,2593
678,2,1,38,10,0,0,1,1460
679,2,1,39,2,0,0,1,684
680,2,1,40,20,1,1,1,1647
681,2,1,41,10,0,0,1,843
682,2,1,42,32,1,1,1,1036
683,2,1,43,20,0,0,1,949
684,2,1,44,2,1,1,1,1234
685,2,1,45,1,0,0,1,1430
686,2,1,46,5,0,0,1,1061
687,2,1,47,32,0,0,1,1577
688,2,1,48,20,0,0,1,993
689,2,1,49,10,1,1,1,892
690,2,1,50,32,0,0,1,1488
691,2,1,51,5,0,0,1,628
692,2,1,52,10,1,1,1,628
693,2,1,53,20,1,1,1,769
694,2,1,54,2,1,1,1,694
695,2,1,55,5,0,0,1,662
696,2,1,56,20,1,1,1,909
697,2,1,57,5,0,0,1,641
698,2,1,58,5,0,0,1,1640
699,2,1,59,10,1,1,1,840
700,2,1,60,2,1,1,1,2592
701,2,1,61,2,1,1,1,768
702,2,1,62,10,1,1,1,940
703,2,1,63,2,1,1,1,2797
704,2,1,64,1,0,0,1,1032
705,2,1,65,32,0,0,1,1042
706,2,1,66,2,1,1,1,1185
707,2,1,67,2,0,0,1,1390
708,2,1,68,32,0,0,1,1442
709,2,1,69,10,0,0,1,1320
710,2,1,70,5,0,0,1,2165
711,2,1,71,1,1,1,1,1019
712,2,1,72,20,0,0,1,919
713,2,1,73,10,1,1,1,1700
714,2,1,74,1,1,1,1,1539
715,2,1,75,32,0,0,1,895
716,2,1,76,2,0,0,1,800
717,2,1,77,20,0,0,1,1333
718,2,1,78,2,0,0,1,1728
719,2,1,79,1,0,0,1,572
720,2,1,80,5,0,0,1,1078
721,2,1,81,5,0,3,0,1390
722,2,1,82,5,1,1,1,1368
723,2,1,83,2,1,1,1,923
724,2,1,84,20,1,1,1,1373
725,2,1,85,5,0,0,1,926
726,2,1,86,2,1,1,1,2095
727,2,1,87,2,0,0,1,620
728,2,1,88,1,1,1,1,1008
729,2,1,89,10,0,0,1,745
730,2,1,90,2,1,1,1,1453
731,2,1,91,20,1,1,1,852
732,2,1,92,2,0,0,1,727
733,2,1,93,5,0,0,1,589
734,2,1,94,5,1,1,1,677
735,2,1,95,32,0,0,1,890
736,2,1,96,2,1,1,1,528
737,2,1,97,10,0,0,1,946
738,2,1,98,10,1,1,1,742
739,2,1,99,10,1,1,1,783
740,2,1,100,32,0,0,1,1390
741,2,1,101,10,1,1,1,2422
742,2,1,102,20,1,1,1,854
743,2,1,103,10,1,1,1,595
744,2,1,104,2,0,0,1,1069
745,2,1,105,1,0,0,1,702
746,2,1,106,5,1,1,1,1807
747,2,1,107,5,1,1,1,1140
748,2,1,108,10,0,0,1,801
749,2,1,109,20,1,1,1,1127
750,2,1,110,5,0,0,1,1161
751,2,1,111,2,0,0,1,975
752,2,1,112,32,0,0,1,1289
753,2,1,113,5,1,1,1,2066
754,2,1,114,10,0,0,1,973
755,2,1,115,5,0,0,1,1043
756,2,1,116,10,0,0,1,775
757,2,1,117,20,0,0,1,585
758,2,1,118,2,0,0,1,718
759,2,1,119,10,1,1,1,2032
760,2,1,120,2,1,1,1,934
761,2,1,121,20,0,0,1,707
762,2,1,122,5,1,1,1,981
763,2,1,123,32,1,1,1,638
764,2,1,124,20,1,1,1,605
765,2,1,125,20,1,1,1,1151
766,2,1,126,1,0,0,1,591
767,2,1,127,32,1,1,1,781
768,2,1,128,20,0,0,1,1003
769,2,1,129,2,1,1,1,739
770,2,1,130,5,1,1,1,915
771,2,1,131,32,1,1,1,834
772,2,1,132,32,1,1,1,743
773,2,1,133,5,1,1,1,1133
774,2,1,134,2,1,1,1,1262
775,2,1,135,2,0,0,1,734
776,2,1,136,2,1,1,1,879
777,2,1,137,1,0,0,1,519
778,2,1,138,10,1,1,1,784
779,2,1,139,10,0,0,1,1128
780,2,1,140,2,0,0,1,670
781,2,1,141,32,0,0,1,879
782,2,1,142,5,0,0,1,1030
783,2,1,143,2,0,0,1,886
784,2,1,144,10,1,1,1,1085
785,2,1,145,1,1,3,0,4990
786,2,1,146,32,0,0,1,1169
787,2,1,147,2,1,1,1,1110
788,2,1,148,32,1,1,1,901
789,2,1,149,10,1,1,1,817
790,2,1,150,5,0,0,1,646
791,2,1,151,20,0,0,1,825
792,2,1,152,32,0,0,1,653
793,2,1,153,20,1,1,1,767
794,2,1,154,2,1,1,1,795
795,2,1,155,20,0,0,1,491
796,2,1,156,10,0,0,1,856
797,2,1,157,1,1,1,1,745
798,2,1,158,5,1,1,1,922
799,2,1,159,20,1,1,1,704
800,2,1,160,20,0,0,1,747
801,2,1,161,20,1,1,1,1332
802,2,1,162,5,1,1,1,1408
803,2,1,163,2,1,1,1,815
804,2,1,164,10,1,1,1,650
805,2,1,165,32,1,1,1,1016
806,2,1,166,10,1,1,1,927
807,2,1,167,10,0,0,1,578
808,2,1,168,1,0,0,1,472
809,2,1,169,20,1,1,1,696
810,2,1,170,32,0,0,1,1156
811,2,1,171,5,0,0,1,581
812,2,1,172,32,1,1,1,1880
813,2,1,173,10,1,1,1,1394
814,2,1,174,1,1,1,1,429
815,2,1,175,10,0,0,1,736
816,2,1,176,5,1,1,1,741
817,2,1,177,20,0,0,1,969
818,2,1,178,2,0,0,1,714
819,2,1,179,2,1,1,1,825
820,2,1,180,10,1,1,1,1134
821,2,1,181,32,0,0,1,736
822,2,1,182,5,0,0,1,845
823,2,1,183,10,0,0,1,688
824,2,1,184,10,0,0,1,875
825,2,1,185,5,1,1,1,777
826,2,1,186,32,0,0,1,1267
827,2,1,187,20,1,1,1,834
828,2,1,188,20,0,0,1,923
829,2,1,189,32,0,0,1,723
830,2,1,190,5,0,0,1,1179
831,2,1,191,20,0,0,1,945
832,2,1,192,5,1,1,1,674
833,2,1,193,10,1,1,1,1129
834,2,1,194,5,1,1,1,1500
835,2,1,195,5,0,0,1,781
836,2,1,196,5,1,1,1,576
837,2,1,197,32,1,1,1,801
838,2,1,198,2,1,1,1,837
839,2,1,199,5,0,0,1,796
840,2,1,200,20,1,1,1,1083
841,2,1,201,32,1,1,1,776
842,2,1,202,1,1,1,1,592
843,2,1,203,20,1,1,1,699
844,2,1,204,32,1,1,1,619
845,2,1,205,10,1,1,1,563
846,2,1,206,5,1,1,1,853
847,2,1,207,2,1,1,1,476
848,2,1,208,1,0,0,1,700
849,2,1,209,32,1,1,1,929
850,2,1,210,32,0,0,1,623
851,2,1,211,32,0,0,1,475
852,2,1,212,5,0,0,1,603
853,2,1,213,32,1,1,1,783
854,2,1,214,10,1,1,1,489
855,2,1,215,10,0,0,1,638
856,2,1,216,20,0,0,1,490
857,2,1,217,32,0,0,1,526
858,2,1,218,10,0,0,1,1593
859,2,1,219,10,0,0,1,1270
860,2,1,220,32,0,0,1,664
861,2,1,221,32,0,0,1,608
862,2,1,222,10,0,0,1,463
863,2,1,223,2,1,1,1,732
864,2,1,224,2,1,1,1,689
865,2,1,225,20,0,0,1,671
866,2,1,226,20,1,1,1,1062
867,2,1,227,10,1,1,1,1071
868,2,1,228,5,1,1,1,703
869,2,1,229,10,1,1,1,1086
870,2,1,230,2,0,0,1,699
871,2,1,231,20,0,0,1,636
872,2,1,232,2,1,1,1,611
873,2,1,233,5,0,0,1,510
874,2,1,234,2,1,1,1,1492
875,2,1,235,20,0,0,1,630
876,2,1,236,32,1,1,1,834
877,2,1,237,5,1,1,1,964
878,2,1,238,10,0,0,1,744
879,2,1,239,32,0,0,1,595
880,2,1,240,32,1,1,1,849
881,2,1,241,32,0,0,1,1215
882,2,1,242,1,0,0,1,430
883,2,1,243,10,0,0,1,477
884,2,1,244,20,0,0,1,656
885,2,1,245,5,0,0,1,1329
886,2,1,246,5,0,0,1,563
887,2,1,247,5,1,1,1,665
888,2,1,248,2,1,1,1,957
889,2,1,249,5,1,1,1,844
890,2,1,250,5,1,1,1,651
891,2,1,251,20,0,0,1,629
892,2,1,252,10,1,1,1,547
893,2,1,253,2,0,0,1,612
894,2,1,254,10,0,0,1,767
895,2,1,255,5,0,0,1,1031
896,2,1,256,32,0,0,1,1048
897,2,1,257,1,1,1,1,575
898,2,1,258,1,0,0,1,443
899,2,1,259,32,1,1,1,790
900,2,1,260,10,1,1,1,672
901,2,1,261,10,0,0,1,575
902,2,1,262,20,1,1,1,1006
903,2,1,263,5,1,1,1,1685
904,2,1,264,32,0,0,1,590
905,2,1,265,10,0,0,1,682
906,2,1,266,20,0,0,1,1231
907,2,1,267,20,0,0,1,575
908,2,1,268,10,1,1,1,773
909,2,1,269,5,1,1,1,646
910,2,1,270,32,0,0,1,727
911,2,1,271,32,1,1,1,669
912,2,1,272,2,1,1,1,465
913,2,1,273,32,0,0,1,665
914,2,1,274,20,1,1,1,725
915,2,1,275,10,0,0,1,2440
916,2,1,276,2,1,1,1,680
917,2,1,277,2,0,0,1,1022
918,2,1,278,32,0,0,1,899
919,2,1,279,2,1,1,1,619
920,2,1,280,5,0,0,1,704
921,2,1,281,1,1,1,0,715
922,2,1,282,20,0,0,1,744
923,2,1,283,20,1,1,1,834
924,2,1,284,10,1,1,1,846
925,2,1,285,2,0,0,1,745
926,2,1,286,1,0,0,1,677
927,2,1,287,2,0,0,1,1074
928,2,1,288,2,1,1,1,882
929,2,1,289,1,1,1,1,518
930,2,1,290,10,1,1,1,721
931,2,1,291,1,1,1,1,504
932,2,1,292,2,0,0,1,675
933,2,1,293,2,0,0,1,593
934,2,1,294,10,0,0,1,928
935,2,1,295,2,1,1,1,1241
936,2,1,296,2,0,0,1,550
937,2,1,297,5,1,1,1,1119
938,2,1,298,10,1,1,1,1180
939,2,1,299,5,0,0,1,533
940,2,1,300,20,0,0,1,565
941,2,1,301,2,1,1,1,1566
942,2,1,302,20,1,1,1,1070
943,2,1,303,10,0,0,1,1083
944,2,1,304,5,1,1,1,550
945,2,1,305,32,0,0,1,928
946,2,1,306,20,0,0,1,659
947,2,1,307,32,0,0,1,2889
948,2,1,308,32,1,1,1,2018
949,2,1,309,10,1,3,0,4991
950,2,1,310,2,0,0,1,647
951,2,1,311,32,0,0,1,1549
952,2,1,312,20,0,0,1,1269
953,2,1,313,32,0,0,1,608
954,2,1,314,20,0,0,1,613
955,2,1,315,32,1,1,1,910
956,2,1,316,32,0,0,1,823
957,2,1,317,32,1,1,1,655
958,2,1,318,32,0,0,1,734
959,2,1,319,10,1,1,1,831
960,2,1,320,10,0,0,1,694
961,2,1,321,1,1,1,1,766
962,2,1,322,2,0,0,1,944
963,2,1,323,20,0,0,1,673
964,2,1,324,32,1,1,1,818
965,2,1,325,20,1,1,1,864
966,2,1,326,5,1,1,1,825
967,2,1,327,2,0,0,0,625
968,2,1,328,2,0,0,1,380
969,2,1,329,5,0,0,1,690
970,2,1,330,32,1,1,1,831
971,2,1,331,32,0,0,1,905
972,2,1,332,32,1,1,1,1159
973,2,1,333,32,1,1,1,4042
974,2,1,334,20,1,1,1,643
975,2,1,335,1,1,1,1,949
976,2,1,336,10,0,0,1,1135
977,2,1,337,2,0,0,1,575
978,2,1,338,2,0,0,1,700
979,2,1,339,10,0,0,1,723
980,2,1,340,10,0,0,1,564
981,2,1,341,32,1,1,1,1709
982,2,1,342,32,1,1,1,550
983,2,1,343,10,1,1,1,1562
984,2,1,344,20,1,1,1,1088
985,2,1,345,10,0,0,1,839
986,2,1,346,32,1,1,1,975
987,2,1,347,20,1,1,1,1078
988,2,1,348,2,1,1,1,641
989,2,1,349,1,0,0,1,502
990,2,1,350,2,0,0,1,672
991,2,1,351,20,1,1,1,1357
992,2,1,352,2,1,1,1,822
993,2,1,353,32,0,0,1,585
994,2,1,354,32,1,1,1,690
995,2,1,355,20,0,0,1,491
996,2,1,356,2,1,1,1,1359
997,2,1,357,20,1,1,1,704
998,2,1,358,20,0,0,1,915
999,2,1,359,5,1,1,1,814
1000,2,1,360,5,1,1,1,576
1001,2,1,361,2,0,0,1,1096
1002,2,1,362,5,0,0,1,1497
1003,2,1,363,20,1,1,1,1943
1004,2,1,364,5,1,1,1,1479
1005,2,1,365,2,1,1,1,1075
1006,2,1,366,2,1,1,1,603
1007,2,1,367,1,1,1,1,582
1008,2,1,368,5,0,0,1,1201
1009,2,1,369,10,0,0,1,641
1010,2,1,370,20,1,1,1,1063
1011,2,1,371,2,0,0,1,1694
1012,2,1,372,10,1,1,1,967
1013,2,1,373,2,0,0,1,977
1014,2,1,374,2,1,1,1,499
1015,2,1,375,20,1,1,1,1312
1016,2,1,376,32,0,0,1,827
1017,2,1,377,20,0,0,1,852
1018,2,1,378,5,1,1,1,1963
1019,2,1,379,10,0,0,1,640
1020,2,1,380,20,0,0,1,854
1021,2,1,381,10,1,1,1,1048
1022,2,1,382,2,1,1,1,676
1023,2,1,383,20,1,1,1,795
1024,2,1,384,10,0,0,1,696
1025,2,1,385,20,1,1,1,1745
1026,2,1,386,32,0,0,1,513
1027,2,1,387,20,1,1,1,659
1028,2,1,388,5,0,0,1,661
1029,2,1,389,10,0,0,1,1348
1030,2,1,390,2,0,0,1,728
1031,2,1,391,20,1,1,1,2625
1032,2,1,392,10,0,0,1,1874
1033,2,1,393,5,1,1,1,629
1034,2,1,394,2,1,1,1,886
1035,2,1,395,2,1,1,1,1621
1036,2,1,396,32,1,1,1,525
1037,2,1,397,10,1,1,1,775
1038,2,1,398,1,0,0,1,1143
1039,2,1,399,5,0,0,1,639
1040,2,1,400,20,0,0,1,1011
1041,2,1,401,5,0,0,1,768
1042,2,1,402,20,0,0,1,935
1043,2,1,403,2,1,1,1,759
1044,2,1,404,5,0,0,1,613
1045,2,1,405,32,1,1,1,1569
1046,2,1,406,1,0,0,1,730
1047,2,1,407,10,0,0,1,664
1048,2,1,408,5,1,1,1,716
1049,2,1,409,5,0,0,1,629
1050,2,1,410,2,1,1,1,584
1051,2,1,411,32,0,0,1,929
1052,2,1,412,10,0,0,1,648
1053,2,1,413,32,1,1,1,1222
1054,2,1,414,20,0,0,1,4824
1055,2,1,415,10,1,1,1,2779
1056,2,1,416,20,1,1,1,1775
1057,2,1,417,1,1,1,1,2465
1058,2,1,418,32,1,1,1,617
1059,2,1,419,5,1,1,1,918
1060,2,1,420,20,1,1,1,988
1061,2,1,421,2,0,0,1,746
1062,2,1,422,32,0,0,1,823
1063,2,1,423,5,0,0,1,595
1064,2,1,424,5,1,1,1,553
1065,2,1,425,5,0,0,1,812
1066,2,1,426,10,1,1,1,692
1067,2,1,427,32,1,1,1,650
1068,2,1,428,20,1,1,1,551
1069,2,1,429,32,1,1,1,1117
1070,2,1,430,5,1,1,1,1499
1071,2,1,431,20,0,0,1,1012
1072,2,1,432,2,1,1,1,598
1073,2,1,433,2,0,0,1,989
1074,2,1,434,2,1,1,1,652
1075,2,1,435,2,0,0,1,437
1076,2,1,436,1,0,0,1,1053
1077,2,1,437,10,0,0,1,1005
1078,2,1,438,2,1,1,1,930
1079,2,1,439,32,1,1,1,983
1080,2,1,440,10,1,1,1,888
1081,2,1,441,5,0,0,1,916
1082,2,1,442,32,0,0,1,675
1083,2,1,443,10,1,1,1,972
1084,2,1,444,32,0,0,1,594
1085,2,1,445,20,1,1,1,2479
1086,2,1,446,10,1,1,1,887
1087,2,1,447,10,0,0,1,596
1088,2,1,448,5,0,0,1,535
1089,2,1,449,10,1,1,1,1064
1090,2,1,450,32,1,1,1,1880
1091,2,1,451,2,0,0,1,594
1092,2,1,452,20,0,0,1,684
1093,2,1,453,2,0,0,1,562
1094,2,1,454,2,1,1,1,622
1095,2,1,455,1,1,1,1,465
1096,2,1,456,1,0,0,1,566
1097,2,1,457,10,0,0,1,980
1098,2,1,458,32,0,0,1,1791
1099,2,1,459,10,1,1,1,1096
1100,2,1,460,32,1,1,1,1891
1101,2,1,461,5,0,0,1,649
1102,2,1,462,20,0,0,1,1641
1103,2,1,463,32,0,0,1,702
1104,2,1,464,10,0,0,1,1145
1105,2,1,465,32,0,0,1,566
1106,2,1,466,10,1,1,1,680
1107,2,1,467,5,1,1,1,423
1108,2,1,468,10,0,0,1,685
1109,2,1,469,5,1,1,1,1271
1110,2,1,470,32,1,1,1,695
1111,2,1,471,2,0,0,1,1486
1112,2,1,472,5,1,1,1,589
1113,2,1,473,10,1,1,1,630
1114,2,1,474,5,1,1,1,719
1115,2,1,475,20,1,1,1,830
1116,2,1,476,2,1,1,1,548
1117,2,1,477,5,0,0,1,1320
1118,2,1,478,32,1,1,0,632
1119,2,1,479,2,0,0,1,486
1120,2,1,480,5,0,0,1,907
1121,2,1,481,2,0,0,1,3783
1122,2,1,482,10,1,1,1,731
1123,2,1,483,20,0,0,1,617
1124,2,1,484,32,1,1,1,629
1125,2,1,485,20,1,1,1,542
1126,2,1,486,32,1,1,1,1019
1127,2,1,487,2,0,0,1,538
1128,2,1,488,10,1,1,1,1018
1129,2,1,489,2,0,0,1,606
1130,2,1,490,10,1,1,1,1365
1131,2,1,491,10,1,1,1,1188
1132,2,1,492,20,1,1,1,896
1133,2,1,493,32,1,1,1,606
1134,2,1,494,1,1,1,1,479
1135,2,1,495,5,0,0,1,524
1136,2,1,496,20,1,1,1,1825
1137,2,1,497,5,1,1,1,607
1138,2,1,498,10,1,1,1,607
1139,2,1,499,32,0,0,1,591
1140,2,1,500,20,0,0,1,705
1141,2,1,501,5,1,1,1,510
1142,2,1,502,2,0,0,1,537
1143,2,1,503,20,0,0,1,638
1144,2,1,504,32,0,0,1,473
1145,2,1,505,5,0,3,0,786
1146,2,1,506,2,0,0,1,746
1147,2,1,507,10,0,0,1,550
1148,2,1,508,2,0,0,1,541
1149,2,1,509,20,1,1,1,1041
1150,2,1,510,32,0,0,1,1058
1151,2,1,511,10,1,1,1,654
1152,2,1,512,10,0,0,1,756
1153,2,1,513,5,0,0,1,583
1154,2,1,514,32,1,1,1,555
1155,2,1,515,10,1,1,1,741
1156,2,1,516,20,0,0,1,549
1157,2,1,517,10,1,1,1,566
1158,2,1,518,5,1,1,1,760
1159,2,1,519,20,0,0,1,704
1160,2,1,520,32,1,1,1,657
1161,2,1,521,5,0,0,1,962
1162,2,1,522,10,0,0,1,814
1163,2,1,523,10,1,1,1,592
1164,2,1,524,20,0,0,1,1056
1165,2,1,525,20,1,1,1,889
1166,2,1,526,20,1,1,1,682
1167,2,1,527,5,0,0,1,426
1168,2,1,528,10,0,0,1,448
1169,2,1,529,5,1,1,1,630
1170,2,1,530,20,0,0,1,996
1171,2,1,531,20,0,0,1,589
1172,2,1,532,2,1,1,1,936
1173,2,1,533,32,1,1,1,1194
1174,2,1,534,2,1,1,1,708
1175,2,1,535,2,1,1,1,403
1176,2,1,536,2,1,1,1,510
1177,2,1,537,32,0,0,1,1214
1178,2,1,538,1,1,1,1,1224
1179,2,1,539,20,0,0,1,1250
1180,2,1,540,20,0,0,1,917
1181,2,1,541,2,0,0,1,1379
1182,2,1,542,32,0,0,1,1136
1183,2,1,543,5,0,0,1,1281
1184,2,1,544,10,0,0,1,485
1185,2,1,545,32,0,0,1,1291
1186,2,1,546,32,0,0,1,491
1187,2,1,547,32,1,1,1,1300
1188,2,1,548,20,1,1,1,872
1189,2,1,549,2,0,0,1,682
1190,2,1,550,10,0,0,1,786
1191,2,1,551,10,1,3,0,1029
1192,2,1,552,10,0,0,1,540
1193,2,1,553,10,0,0,1,600
1194,2,1,554,5,0,0,1,560
1195,2,1,555,5,0,0,1,712
1196,2,1,556,2,0,0,1,664
1197,2,1,557,20,0,0,1,582
1198,2,1,558,1,1,1,1,958
1199,2,1,559,32,0,0,1,921
1200,2,1,560,20,1,1,1,873
1201,2,1,561,5,1,1,1,499
1202,2,1,562,10,0,0,1,412
1203,2,1,563,20,0,0,1,558
1204,2,1,564,5,1,1,1,409
1205,2,1,565,5,1,1,1,613
1206,2,1,566,5,0,0,1,569
1207,2,1,567,20,0,0,1,885
1208,2,1,568,32,0,0,1,744
1209,2,1,569,10,1,1,1,666
1210,2,1,570,20,0,0,1,683
1211,2,1,571,20,1,1,1,941
1212,2,1,572,5,1,1,1,994
1213,2,1,573,2,1,1,1,831
1214,2,1,574,32,1,1,1,748
1215,2,1,575,32,0,0,1,1822
1216,2,1,576,2,1,1,1,827
1217,2,1,577,10,0,0,1,1134
1218,2,1,578,1,1,1,1,1398
1219,2,1,579,5,1,1,1,911
1220,2,1,580,2,0,0,1,888
1221,2,1,581,10,0,0,1,818
1222,2,1,582,20,1,1,1,1045
1223,2,1,583,20,1,1,1,760
1224,2,1,584,20,1,1,1,804
1225,2,1,585,5,1,1,1,681
1226,2,1,586,10,1,1,1,705
1227,2,1,587,32,1,1,1,604
1228,2,1,588,32,1,1,1,728
1229,2,1,589,20,0,0,1,594
1230,2,1,590,2,1,1,1,786
1231,2,1,591,1,0,0,1,473
1232,2,1,592,10,1,1,1,763
1233,2,1,593,5,0,0,1,715
1234,2,1,594,5,0,0,1,720
1235,2,1,595,2,0,0,1,2327
1236,2,1,596,2,0,0,1,1375
1237,2,1,597,2,1,1,1,783
1238,2,1,598,5,1,1,1,912
1239,2,1,599,20,0,0,1,4375
1240,2,1,600,2,1,1,1,435
1241,2,1,601,5,0,0,1,877
1242,2,1,602,2,0,0,1,519
1243,2,1,603,20,0,0,1,721
1244,2,1,604,5,1,1,1,697
1245,2,1,605,32,0,0,1,511
1246,2,1,606,5,1,1,1,610
1247,2,1,607,32,1,1,1,1074
1248,2,1,608,10,0,0,1,1137
1249,2,1,609,32,1,1,1,825
1250,2,1,610,5,1,1,1,495
1251,2,1,611,20,0,0,1,465
1252,2,1,612,10,1,1,1,483
1253,2,1,613,10,0,0,1,861
1254,2,1,614,10,0,0,1,652
1255,2,1,615,20,1,1,0,546
1256,2,1,616,5,1,1,1,441
1257,2,1,617,2,1,1,1,609
1258,2,1,618,5,0,0,1,1312
1259,2,1,619,5,1,1,1,1148
1260,2,1,620,5,0,0,1,578
1261,2,1,621,2,1,1,1,716
1262,2,1,622,5,1,1,1,749
1263,2,1,623,20,0,0,1,711
1264,2,1,624,5,0,0,1,503
1265,2,1,625,2,0,0,1,433
1266,2,1,626,20,1,1,1,665
1267,2,1,627,10,1,1,1,504
1268,2,1,628,5,0,0,1,897
1269,2,1,629,5,0,0,1,693
1270,2,1,630,20,0,0,1,1232
1271,2,1,631,2,0,0,1,582
1272,2,1,632,10,0,0,1,806
1273,2,1,633,5,0,0,1,660
1274,2,1,634,1,0,0,1,517
1275,2,1,635,32,0,0,1,948
1276,2,1,636,2,0,0,1,535
1277,2,1,637,2,0,0,1,476
1278,2,1,638,5,1,1,1,814
1279,2,1,639,32,1,1,1,670
1280,2,1,640,5,1,1,1,912
1281,3,1,1,5,0,0,1,407
1282,3,1,2,5,1,1,1,394
1283,3,1,3,10,0,0,1,599
1284,3,1,4,2,0,0,1,352
1285,3,1,5,10,1,1,1,430
1286,3,1,6,20,0,0,1,533
1287,3,1,7,1,0,0,1,603
1288,3,1,8,10,1,1,1,499
1289,3,1,9,2,1,1,0,425
1290,3,1,10,1,1,1,1,546
1291,3,1,11,20,1,1,0,582
1292,3,1,12,20,1,1,1,683
1293,3,1,13,1,0,0,1,454
1294,3,1,14,20,1,1,1,422
1295,3,1,15,5,0,0,1,458
1296,3,1,16,5,0,0,1,556
1297,3,1,17,10,0,0,1,525
1298,3,1,18,5,1,1,1,398
1299,3,1,19,32,1,1,1,400
1300,3,1,20,2,0,0,1,451
1301,3,1,21,2,0,0,1,363
1302,3,1,22,10,0,0,0,418
1303,3,1,23,20,1,1,1,644
1304,3,1,24,2,0,0,1,592
1305,3,1,25,5,1,1,1,515
1306,3,1,26,2,1,1,1,401
1307,3,1,27,1,1,1,1,366
1308,3,1,28,5,1,1,1,444
1309,3,1,29,32,1,1,1,485
1310,3,1,30,5,1,1,1,364
1311,3,1,31,2,0,0,1,622
1312,3,1,32,10,0,0,1,542
1313,3,1,33,20,1,1,1,606
1314,3,1,34,20,0,0,1,572
1315,3,1,35,5,1,1,1,461
1316,3,1,36,10,0,0,1,524
1317,3,1,37,32,0,0,1,534
1318,3,1,38,5,1,1,1,465
1319,3,1,39,2,1,1,1,518
1320,3,1,40,20,0,0,1,543
1321,3,1,41,2,1,1,1,399
1322,3,1,42,10,0,0,1,457
1323,3,1,43,32,1,1,1,547
1324,3,1,44,5,0,0,1,627
1325,3,1,45,20,1,1,1,483
1326,3,1,46,2,1,1,1,411
1327,3,1,47,2,0,0,1,473
1328,3,1,48,5,0,0,1,529
1329,3,1,49,10,1,1,1,712
1330,3,1,50,32,0,0,1,562
1331,3,1,51,5,1,1,1,485
1332,3,1,52,5,1,1,1,397
1333,3,1,53,20,0,0,1,493
1334,3,1,54,2,1,1,0,359
1335,3,1,55,20,0,0,1,675
1336,3,1,56,20,0,0,1,496
1337,3,1,57,2,1,1,1,428
1338,3,1,58,10,0,0,1,461
1339,3,1,59,2,1,1,1,380
1340,3,1,60,5,0,0,1,408
1341,3,1,61,2,0,0,1,399
1342,3,1,62,32,1,1,1,561
1343,3,1,63,10,1,1,1,483
1344,3,1,64,5,0,0,1,419
1345,3,1,65,32,0,0,1,574
1346,3,1,66,5,1,1,1,412
1347,3,1,67,32,0,0,1,626
1348,3,1,68,10,1,1,1,455
1349,3,1,69,5,0,0,1,812
1350,3,1,70,32,1,1,1,565
1351,3,1,71,10,0,0,1,563
1352,3,1,72,10,1,1,1,447
1353,3,1,73,20,1,1,1,439
1354,3,1,74,32,0,0,1,376
1355,3,1,75,32,1,1,1,465
1356,3,1,76,10,1,1,1,546
1357,3,1,77,20,0,0,1,426
1358,3,1,78,2,1,1,1,479
1359,3,1,79,20,1,1,1,398
1360,3,1,80,2,1,1,1,489
1361,3,1,81,10,0,0,1,587
1362,3,1,82,1,0,0,1,357
1363,3,1,83,1,0,0,1,397
1364,3,1,84,1,0,0,1,470
1365,3,1,85,2,0,0,1,426
1366,3,1,86,2,0,0,1,319
1367,3,1,87,2,0,0,0,438
1368,3,1,88,2,0,0,1,479
1369,3,1,89,10,0,0,1,561
1370,3,1,90,32,0,0,1,551
1371,3,1,91,32,1,1,1,429
1372,3,1,92,5,0,0,1,531
1373,3,1,93,20,0,0,1,553
1374,3,1,94,32,0,0,1,510
1375,3,1,95,1,0,0,1,416
1376,3,1,96,5,1,1,1,668
1377,3,1,97,20,1,1,1,414
1378,3,1,98,10,1,1,1,550
1379,3,1,99,10,0,0,1,635
1380,3,1,100,10,1,1,1,498
1381,3,1,101,5,0,0,1,511
1382,3,1,102,1,1,1,1,385
1383,3,1,103,20,0,0,1,887
1384,3,1,104,2,1,1,1,383
1385,3,1,105,20,1,1,1,604
1386,3,1,106,20,1,1,1,454
1387,3,1,107,20,1,1,1,478
1388,3,1,108,2,0,0,1,474
1389,3,1,109,5,1,1,1,588
1390,3,1,110,1,0,0,1,447
1391,3,1,111,2,0,0,1,478
1392,3,1,112,5,1,1,1,495
1393,3,1,113,2,0,0,1,386
1394,3,1,114,32,0,0,1,599
1395,3,1,115,20,1,1,1,695
1396,3,1,116,32,0,0,1,530
1397,3,1,117,10,0,0,1,566
1398,3,1,118,10,1,1,1,380
1399,3,1,119,2,1,1,1,397
1400,3,1,120,32,1,1,1,395
1401,3,1,121,5,0,0,0,466
1402,3,1,122,1,1,1,1,350
1403,3,1,123,20,0,0,1,483
1404,3,1,124,20,0,0,1,553
1405,3,1,125,20,1,1,1,431
1406,3,1,126,2,0,0,1,548
1407,3,1,127,10,1,1,1,401
1408,3,1,128,32,1,1,1,450
1409,3,1,129,32,0,0,1,417
1410,3,1,130,5,0,0,1,743
1411,3,1,131,1,0,0,1,359
1412,3,1,132,2,1,1,1,608
1413,3,1,133,5,1,1,1,407
1414,3,1,134,2,0,0,1,341
1415,3,1,135,20,1,1,1,509
1416,3,1,136,32,0,0,1,438
1417,3,1,137,10,1,1,1,360
1418,3,1,138,1,0,0,1,402
1419,3,1,139,32,1,1,1,455
1420,3,1,140,5,0,0,1,517
1421,3,1,141,5,0,0,1,547
1422,3,1,142,5,1,1,0,486
1423,3,1,143,20,1,1,1,489
1424,3,1,144,20,1,1,1,493
1425,3,1,145,20,0,0,1,472
1426,3,1,146,10,1,1,1,650
1427,3,1,147,10,0,0,1,540
1428,3,1,148,5,0,0,1,531
1429,3,1,149,1,1,1,1,390
1430,3,1,150,32,1,1,1,487
1431,3,1,151,10,0,0,1,478
1432,3,1,152,2,0,0,1,445
1433,3,1,153,20,1,1,1,420
1434,3,1,154,32,1,1,1,609
1435,3,1,155,10,0,0,1,400
1436,3,1,156,2,0,0,1,381
1437,3,1,157,2,1,1,1,548
1438,3,1,158,20,1,1,1,472
1439,3,1,159,5,0,0,1,504
1440,3,1,160,1,0,0,1,411
1441,3,1,161,32,1,1,1,805
1442,3,1,162,2,1,1,1,390
1443,3,1,163,2,1,1,1,350
1444,3,1,164,32,1,1,1,408
1445,3,1,165,2,1,1,0,369
1446,3,1,166,1,0,0,1,376
1447,3,1,167,32,0,0,1,581
1448,3,1,168,20,1,1,1,476
1449,3,1,169,5,1,1,1,651
1450,3,1,170,32,0,0,1,542
1451,3,1,171,2,0,0,1,479
1452,3,1,172,20,0,0,1,426
1453,3,1,173,20,0,0,1,507
1454,3,1,174,20,0,0,1,576
1455,3,1,175,5,0,0,1,450
1456,3,1,176,5,1,1,1,432
1457,3,1,177,32,0,0,1,557
1458,3,1,178,10,0,0,1,544
1459,3,1,179,20,1,1,1,461
1460,3,1,180,32,1,1,1,520
1461,3,1,181,20,0,0,0,381
1462,3,1,182,10,1,1,1,476
1463,3,1,183,20,1,1,1,476
1464,3,1,184,5,1,1,1,585
1465,3,1,185,2,0,0,1,458
1466,3,1,186,32,1,1,1,562
1467,3,1,187,10,1,1,1,357
1468,3,1,188,32,0,0,1,420
1469,3,1,189,5,0,0,1,380
1470,3,1,190,32,1,1,1,733
1471,3,1,191,2,0,0,0,414
1472,3,1,192,1,1,1,1,928
1473,3,1,193,32,0,0,1,575
1474,3,1,194,10,1,1,1,432
1475,3,1,195,5,1,1,1,582
1476,3,1,196,5,0,0,1,517
1477,3,1,197,10,0,0,1,369
1478,3,1,198,5,1,1,1,375
1479,3,1,199,2,1,1,1,409
1480,3,1,200,20,0,0,1,430
1481,3,1,201,5,0,0,1,529
1482,3,1,202,5,1,1,1,485
1483,3,1,203,10,0,0,1,456
1484,3,1,204,32,1,1,1,528
1485,3,1,205,1,1,1,1,424
1486,3,1,206,32,0,0,1,487
1487,3,1,207,5,1,1,1,462
1488,3,1,208,10,0,0,1,403
1489,3,1,209,10,1,1,1,424
1490,3,1,210,32,1,1,1,474
1491,3,1,211,5,1,1,1,587
1492,3,1,212,32,0,0,1,579
1493,3,1,213,5,0,0,1,406
1494,3,1,214,5,1,1,1,510
1495,3,1,215,10,1,1,1,391
1496,3,1,216,10,1,1,1,426
1497,3,1,217,32,1,1,1,467
1498,3,1,218,5,1,1,1,687
1499,3,1,219,20,1,1,1,376
1500,3,1,220,5,0,0,1,465
1501,3,1,221,2,0,0,1,605
1502,3,1,222,2,1,1,1,380
1503,3,1,223,2,0,0,1,425
1504,3,1,224,10,0,0,1,462
1505,3,1,225,20,1,1,0,414
1506,3,1,226,5,1,1,1,511
1507,3,1,227,5,0,0,1,576
1508,3,1,228,10,0,0,1,547
1509,3,1,229,20,0,0,1,685
1510,3,1,230,32,1,1,1,367
1511,3,1,231,5,0,0,1,576
1512,3,1,232,10,0,0,1,471
1513,3,1,233,5,1,1,1,394
1514,3,1,234,10,1,1,1,821
1515,3,1,235,10,1,1,1,444
1516,3,1,236,20,1,1,1,442
1517,3,1,237,2,1,1,1,374
1518,3,1,238,20,0,0,1,432
1519,3,1,239,20,0,0,1,531
1520,3,1,240,32,1,1,1,409
1521,3,1,241,32,1,1,1,436
1522,3,1,242,32,0,0,1,623
1523,3,1,243,10,0,0,1,483
1524,3,1,244,1,1,1,1,457
1525,3,1,245,2,0,0,1,412
1526,3,1,246,20,1,1,1,563
1527,3,1,247,5,1,1,1,369
1528,3,1,248,2,0,0,1,360
1529,3,1,249,32,0,0,1,466
1530,3,1,250,32,0,0,1,519
1531,3,1,251,32,0,0,0,362
1532,3,1,252,10,0,0,1,469
1533,3,1,253,10,1,1,1,483
1534,3,1,254,5,1,1,1,447
1535,3,1,255,20,0,0,1,656
1536,3,1,256,20,1,1,1,470
1537,3,1,257,1,1,1,1,345
1538,3,1,258,10,0,0,1,574
1539,3,1,259,32,1,1,1,621
1540,3,1,260,2,1,1,1,370
1541,3,1,261,32,0,0,1,555
1542,3,1,262,5,1,1,1,527
1543,3,1,263,32,0,0,1,545
1544,3,1,264,20,0,0,1,562
1545,3,1,265,10,0,0,1,530
1546,3,1,266,5,0,0,1,454
1547,3,1,267,32,0,0,1,536
1548,3,1,268,20,1,1,1,461
1549,3,1,269,32,0,0,1,440
1550,3,1,270,32,1,1,1,670
1551,3,1,271,32,0,0,1,534
1552,3,1,272,32,1,1,1,508
1553,3,1,273,20,1,1,1,620
1554,3,1,274,2,1,1,1,471
1555,3,1,275,32,0,0,0,517
1556,3,1,276,5,1,1,1,714
1557,3,1,277,32,0,0,1,611
1558,3,1,278,2,0,0,1,547
1559,3,1,279,20,0,0,1,550
1560,3,1,280,32,0,0,1,550
1561,3,1,281,10,0,0,1,544
1562,3,1,282,5,1,1,1,390
1563,3,1,283,2,1,1,1,417
1564,3,1,284,10,0,0,1,444
1565,3,1,285,2,0,0,1,458
1566,3,1,286,2,1,1,1,505
1567,3,1,287,10,1,1,1,439
1568,3,1,288,20,0,0,1,371
1569,3,1,289,5,0,0,1,425
1570,3,1,290,2,1,1,0,405
1571,3,1,291,5,0,0,1,539
1572,3,1,292,5,0,0,1,416
1573,3,1,293,5,0,0,1,568
1574,3,1,294,20,0,0,1,550
1575,3,1,295,2,1,1,1,384
1576,3,1,296,10,0,0,1,456
1577,3,1,297,32,1,1,1,398
1578,3,1,298,10,1,1,1,530
1579,3,1,299,32,0,0,1,632
1580,3,1,300,1,0,0,1,427
1581,3,1,301,10,1,1,1,404
1582,3,1,302,32,0,0,1,536
1583,3,1,303,5,1,1,1,489
1584,3,1,304,10,1,1,1,496
1585,3,1,305,32,0,0,1,562
1586,3,1,306,1,1,1,1,357
1587,3,1,307,10,0,0,1,396
1588,3,1,308,2,0,0,1,386
1589,3,1,309,32,0,0,1,554
1590,3,1,310,10,1,1,1,477
1591,3,1,311,20,1,1,1,531
1592,3,1,312,32,0,0,1,457
1593,3,1,313,32,0,0,0,428
1594,3,1,314,2,1,1,1,388
1595,3,1,315,5,0,0,1,436
1596,3,1,316,2,0,0,1,403
1597,3,1,317,5,0,0,1,424
1598,3,1,318,5,0,0,1,471
1599,3,1,319,5,1,1,1,595
1600,3,1,320,5,0,0,1,415
1601,3,1,321,32,0,0,1,577
1602,3,1,322,20,1,1,1,448
1603,3,1,323,20,0,0,1,542
1604,3,1,324,20,1,1,1,423
1605,3,1,325,5,1,1,1,448
1606,3,1,326,10,1,1,1,413
1607,3,1,327,2,0,0,1,414
1608,3,1,328,1,0,0,1,506
1609,3,1,329,32,1,1,1,451
1610,3,1,330,5,1,1,1,370
1611,3,1,331,20,0,0,1,594
1612,3,1,332,10,1,1,1,706
1613,3,1,333,20,0,0,1,496
1614,3,1,334,32,1,1,1,566
1615,3,1,335,5,1,1,1,545
1616,3,1,336,20,1,1,1,520
1617,3,1,337,32,1,1,1,530
1618,3,1,338,2,0,0,1,819
1619,3,1,339,5,0,0,1,628
1620,3,1,340,20,0,0,1,437
1621,3,1,341,5,0,0,1,529
1622,3,1,342,10,1,1,1,513
1623,3,1,343,5,1,1,1,516
1624,3,1,344,10,1,1,1,776
1625,3,1,345,5,0,0,1,441
1626,3,1,346,10,0,0,1,407
1627,3,1,347,5,0,0,1,506
1628,3,1,348,2,1,1,0,415
1629,3,1,349,5,0,0,1,539
1630,3,1,350,10,1,1,1,565
1631,3,1,351,20,0,0,1,541
1632,3,1,352,20,1,1,1,454
1633,3,1,353,10,0,0,1,491
1634,3,1,354,5,1,1,1,554
1635,3,1,355,32,0,0,1,464
1636,3,1,356,1,1,1,1,425
1637,3,1,357,10,0,0,1,811
1638,3,1,358,1,1,1,0,386
1639,3,1,359,20,1,1,1,546
1640,3,1,360,2,0,0,1,416
1641,3,1,361,10,0,0,1,470
1642,3,1,362,32,1,1,1,532
1643,3,1,363,2,0,0,1,415
1644,3,1,364,32,1,1,1,411
1645,3,1,365,5,1,1,1,516
1646,3,1,366,10,0,0,1,513
1647,3,1,367,10,0,0,1,414
1648,3,1,368,10,1,1,1,735
1649,3,1,369,5,1,1,1,467
1650,3,1,370,2,0,0,1,402
1651,3,1,371,32,0,0,1,740
1652,3,1,372,20,1,1,1,440
1653,3,1,373,2,1,1,1,447
1654,3,1,374,32,0,0,1,536
1655,3,1,375,10,1,1,1,409
1656,3,1,376,10,1,1,1,562
1657,3,1,377,10,0,0,0,575
1658,3,1,378,1,0,0,1,599
1659,3,1,379,2,0,0,1,728
1660,3,1,380,1,1,1,1,490
1661,3,1,381,32,1,1,1,546
1662,3,1,382,20,1,1,1,420
1663,3,1,383,32,1,1,1,527
1664,3,1,384,10,0,0,1,461
1665,3,1,385,10,1,1,1,681
1666,3,1,386,2,0,0,1,479
1667,3,1,387,2,0,0,1,438
1668,3,1,388,32,0,0,1,752
1669,3,1,389,10,0,0,1,413
1670,3,1,390,10,0,0,1,487
1671,3,1,391,5,0,0,1,392
1672,3,1,392,32,1,1,1,461
1673,3,1,393,32,1,1,1,425
1674,3,1,394,10,1,1,1,486
1675,3,1,395,2,1,1,0,434
1676,3,1,396,2,1,1,1,449
1677,3,1,397,5,1,1,1,580
1678,3,1,398,10,0,0,1,511
1679,3,1,399,2,0,0,1,405
1680,3,1,400,20,0,0,1,544
1681,3,1,401,1,1,1,1,517
1682,3,1,402,32,0,0,1,514
1683,3,1,403,2,1,1,1,372
1684,3,1,404,10,0,0,1,377
1685,3,1,405,5,0,0,1,527
1686,3,1,406,32,1,1,1,553
1687,3,1,407,5,0,0,1,407
1688,3,1,408,2,0,0,1,533
1689,3,1,409,5,0,0,1,338
1690,3,1,410,32,1,1,1,579
1691,3,1,411,1,1,1,1,403
1692,3,1,412,5,1,1,1,430
1693,3,1,413,5,0,0,1,571
1694,3,1,414,2,1,1,1,351
1695,3,1,415,2,1,1,1,388
1696,3,1,416,10,1,1,1,489
1697,3,1,417,2,0,0,1,417
1698,3,1,418,2,1,1,1,554
1699,3,1,419,10,1,1,1,369
1700,3,1,420,2,1,1,1,389
1701,3,1,421,32,1,1,1,403
1702,3,1,422,5,0,0,1,410
1703,3,1,423,10,1,1,1,387
1704,3,1,424,20,0,0,1,494
1705,3,1,425,2,0,0,1,485
1706,3,1,426,10,1,1,1,435
1707,3,1,427,2,1,1,1,479
1708,3,1,428,10,1,1,1,456
1709,3,1,429,10,1,1,1,580
1710,3,1,430,20,0,0,1,465
1711,3,1,431,5,1,1,1,582
1712,3,1,432,20,1,1,1,492
1713,3,1,433,32,0,0,1,435
1714,3,1,434,32,0,0,0,420
1715,3,1,435,2,0,0,1,580
1716,3,1,436,1,0,0,1,371
1717,3,1,437,10,0,0,1,456
1718,3,1,438,32,1,1,1,442
1719,3,1,439,5,1,1,1,402
1720,3,1,440,10,1,1,1,453
1721,3,1,441,10,1,1,1,404
1722,3,1,442,5,1,1,1,492
1723,3,1,443,2,1,1,1,427
1724,3,1,444,32,0,0,1,604
1725,3,1,445,32,0,0,1,480
1726,3,1,446,10,0,0,1,455
1727,3,1,447,2,1,1,1,401
1728,3,1,448,20,0,0,1,614
1729,3,1,449,20,1,1,1,541
1730,3,1,450,1,1,1,1,380
1731,3,1,451,32,0,0,1,468
1732,3,1,452,20,1,1,1,767
1733,3,1,453,2,0,0,1,376
1734,3,1,454,20,0,0,1,524
1735,3,1,455,10,0,0,1,618
1736,3,1,456,1,1,1,1,396
1737,3,1,457,32,1,1,1,683
1738,3,1,458,5,1,1,1,372
1739,3,1,459,2,1,1,1,392
1740,3,1,460,20,1,1,1,471
1741,3,1,461,20,0,0,1,555
1742,3,1,462,32,1,1,1,468
1743,3,1,463,5,1,1,1,470
1744,3,1,464,2,1,1,1,402
1745,3,1,465,10,0,0,1,460
1746,3,1,466,2,1,1,1,456
1747,3,1,467,32,0,0,1,495
1748,3,1,468,5,0,0,1,641
1749,3,1,469,10,0,0,1,520
1750,3,1,470,2,0,0,1,452
1751,3,1,471,10,1,1,1,478
1752,3,1,472,32,0,0,1,485
1753,3,1,473,20,0,0,1,498
1754,3,1,474,5,0,0,1,478
1755,3,1,475,20,1,1,0,399
1756,3,1,476,10,0,0,1,636
1757,3,1,477,32,1,1,1,465
1758,3,1,478,32,1,1,1,694
1759,3,1,479,2,0,0,1,431
1760,3,1,480,2,0,0,1,451
1761,3,1,481,5,1,1,1,466
1762,3,1,482,1,0,0,1,377
1763,3,1,483,10,1,1,1,571
1764,3,1,484,20,1,1,1,382
1765,3,1,485,2,1,1,1,391
1766,3,1,486,20,1,1,1,602
1767,3,1,487,20,1,1,1,493
1768,3,1,488,5,1,1,1,332
1769,3,1,489,10,1,1,1,576
1770,3,1,490,2,0,0,1,573
1771,3,1,491,2,1,1,1,373
1772,3,1,492,20,0,0,1,499
1773,3,1,493,32,0,0,1,936
1774,3,1,494,2,0,0,1,520
1775,3,1,495,5,0,0,1,515
1776,3,1,496,20,1,1,1,561
1777,3,1,497,20,1,1,1,469
1778,3,1,498,20,1,1,1,1077
1779,3,1,499,32,1,1,1,582
1780,3,1,500,20,0,0,1,483
1781,3,1,501,20,1,1,1,500
1782,3,1,502,2,1,1,1,430
1783,3,1,503,5,0,0,1,470
1784,3,1,504,2,0,0,1,647
1785,3,1,505,10,1,1,1,402
1786,3,1,506,5,0,0,0,450
1787,3,1,507,10,0,0,1,649
1788,3,1,508,10,0,0,1,498
1789,3,1,509,20,0,0,1,425
1790,3,1,510,20,0,0,1,493
1791,3,1,511,2,1,1,0,397
1792,3,1,512,2,0,0,1,419
1793,3,1,513,32,0,0,1,745
1794,3,1,514,2,1,1,1,377
1795,3,1,515,32,1,1,1,444
1796,3,1,516,2,1,1,1,454
1797,3,1,517,20,0,0,1,437
1798,3,1,518,32,0,0,1,449
1799,3,1,519,32,1,1,1,667
1800,3,1,520,32,1,1,1,440
1801,3,1,521,5,0,0,1,587
1802,3,1,522,5,0,0,1,433
1803,3,1,523,10,1,1,0,455
1804,3,1,524,5,0,0,1,440
1805,3,1,525,20,0,0,1,509
1806,3,1,526,20,0,0,1,541
1807,3,1,527,5,0,0,1,428
1808,3,1,528,10,1,1,1,555
1809,3,1,529,20,0,0,1,497
1810,3,1,530,10,0,0,1,588
1811,3,1,531,10,1,1,1,449
1812,3,1,532,2,0,0,1,479
1813,3,1,533,2,1,1,1,368
1814,3,1,534,1,0,0,1,434
1815,3,1,535,20,1,1,1,765
1816,3,1,536,2,1,1,1,463
1817,3,1,537,2,1,1,1,437
1818,3,1,538,20,1,1,1,419
1819,3,1,539,5,1,1,1,574
1820,3,1,540,1,1,1,1,418
1821,3,1,541,20,0,0,1,701
1822,3,1,542,5,0,0,1,423
1823,3,1,543,5,1,1,1,415
1824,3,1,544,10,1,1,1,564
1825,3,1,545,5,1,1,1,412
1826,3,1,546,20,1,1,1,580
1827,3,1,547,32,1,1,1,399
1828,3,1,548,32,1,1,1,439
1829,3,1,549,10,0,0,1,631
1830,3,1,550,20,0,0,1,494
1831,3,1,551,32,0,0,1,457
1832,3,1,552,2,1,1,1,395
1833,3,1,553,32,0,0,1,483
1834,3,1,554,2,1,1,1,468
1835,3,1,555,2,0,0,1,451
1836,3,1,556,5,0,0,1,471
1837,3,1,557,32,1,1,1,486
1838,3,1,558,20,0,0,1,447
1839,3,1,559,2,1,1,1,398
1840,3,1,560,20,1,1,1,422
1841,3,1,561,2,1,1,1,689
1842,3,1,562,20,0,0,1,549
1843,3,1,563,32,1,1,1,439
1844,3,1,564,10,0,0,1,409
1845,3,1,565,20,0,0,0,335
1846,3,1,566,20,0,0,1,550
1847,3,1,567,10,1,1,1,401
1848,3,1,568,2,0,0,1,416
1849,3,1,569,10,1,1,1,473
1850,3,1,570,5,0,0,1,381
1851,3,1,571,5,1,1,1,386
1852,3,1,572,5,1,1,1,374
1853,3,1,573,10,0,0,1,504
1854,3,1,574,20,1,1,1,447
1855,3,1,575,20,0,0,1,464
1856,3,1,576,1,0,0,1,494
1857,3,1,577,10,0,0,1,486
1858,3,1,578,2,1,1,1,449
1859,3,1,579,10,1,1,1,466
1860,3,1,580,5,1,1,0,405
1861,3,1,581,32,1,1,1,487
1862,3,1,582,5,0,0,1,495
1863,3,1,583,32,1,1,1,542
1864,3,1,584,2,0,0,1,613
1865,3,1,585,32,0,0,1,628
1866,3,1,586,32,1,1,1,758
1867,3,1,587,5,0,0,1,438
1868,3,1,588,5,1,1,1,438
1869,3,1,589,2,1,1,1,444
1870,3,1,590,20,0,0,1,544
1871,3,1,591,20,0,0,1,393
1872,3,1,592,1,1,1,1,421
1873,3,1,593,20,0,0,1,639
1874,3,1,594,5,1,1,1,419
1875,3,1,595,32,1,1,1,538
1876,3,1,596,20,0,0,1,465
1877,3,1,597,32,1,1,1,461
1878,3,1,598,20,1,1,1,415
1879,3,1,599,2,1,1,1,419
1880,3,1,600,32,1,1,1,426
1881,3,1,601,20,1,1,1,740
1882,3,1,602,10,1,1,1,485
1883,3,1,603,10,1,1,1,427
1884,3,1,604,5,0,0,1,487
1885,3,1,605,10,0,0,1,506
1886,3,1,606,2,1,1,1,563
1887,3,1,607,20,1,1,1,437
1888,3,1,608,10,1,1,1,478
1889,3,1,609,10,0,0,1,557
1890,3,1,610,1,0,0,1,427
1891,3,1,611,10,1,1,1,448
1892,3,1,612,2,0,0,1,387
1893,3,1,613,32,0,0,1,518
1894,3,1,614,10,0,0,1,530
1895,3,1,615,2,0,0,1,439
1896,3,1,616,5,1,1,1,708
1897,3,1,617,2,1,1,1,409
1898,3,1,618,20,1,1,1,405
1899,3,1,619,20,1,1,1,399
1900,3,1,620,20,0,0,1,540
1901,3,1,621,32,0,0,1,394
1902,3,1,622,2,0,0,1,518
1903,3,1,623,10,0,0,1,369
1904,3,1,624,2,0,0,1,536
1905,3,1,625,20,1,1,1,519
1906,3,1,626,20,0,0,1,529
1907,3,1,627,2,0,0,1,508
1908,3,1,628,32,0,0,1,461
1909,3,1,629,32,0,0,1,422
1910,3,1,630,32,1,1,1,724
1911,3,1,631,2,0,0,0,389
1912,3,1,632,5,0,0,1,405
1913,3,1,633,32,1,1,1,451
1914,3,1,634,32,0,0,1,555
1915,3,1,635,20,0,0,0,457
1916,3,1,636,5,1,1,1,605
1917,3,1,637,10,0,0,1,506
1918,3,1,638,1,1,1,1,393
1919,3,1,639,1,0,0,1,401
1920,3,1,640,20,0,0,1,471
1921,4,1,1,5,0,0,1,821
1922,4,1,2,2,0,0,1,577
1923,4,1,3,10,1,1,1,681
1924,4,1,4,10,1,1,1,519
1925,4,1,5,32,1,1,1,911
1926,4,1,6,10,1,1,1,928
1927,4,1,7,20,0,0,1,663
1928,4,1,8,10,0,0,1,633
1929,4,1,9,32,0,0,1,577
1930,4,1,10,2,1,1,1,727
1931,4,1,11,20,1,1,1,609
1932,4,1,12,20,0,0,1,588
1933,4,1,13,20,0,0,1,611
1934,4,1,14,1,1,1,1,629
1935,4,1,15,32,0,0,1,553
1936,4,1,16,2,0,0,1,755
1937,4,1,17,1,0,0,1,525
1938,4,1,18,5,0,0,1,639
1939,4,1,19,5,1,1,1,598
1940,4,1,20,10,0,0,1,481
1941,4,1,21,32,1,1,1,642
1942,4,1,22,5,0,0,1,434
1943,4,1,23,5,1,1,1,615
1944,4,1,24,2,0,0,1,418
1945,4,1,25,5,0,0,1,543
1946,4,1,26,20,1,1,1,962
1947,4,1,27,5,1,1,1,711
1948,4,1,28,2,1,1,1,541
1949,4,1,29,2,1,1,1,513
1950,4,1,30,10,1,1,1,538
1951,4,1,31,2,1,1,1,507
1952,4,1,32,20,1,1,1,1023
1953,4,1,33,1,0,0,1,492
1954,4,1,34,32,1,1,1,546
1955,4,1,35,10,1,1,1,619
1956,4,1,36,1,0,0,1,450
1957,4,1,37,5,0,0,1,533
1958,4,1,38,10,1,1,1,486
1959,4,1,39,32,0,0,1,881
1960,4,1,40,20,1,1,1,995
1961,4,1,41,20,1,1,1,684
1962,4,1,42,5,1,1,1,534
1963,4,1,43,32,1,1,1,501
1964,4,1,44,32,0,0,1,613
1965,4,1,45,10,0,0,1,498
1966,4,1,46,2,1,1,1,749
1967,4,1,47,32,1,1,1,768
1968,4,1,48,20,1,1,1,680
1969,4,1,49,10,1,1,1,465
1970,4,1,50,20,0,0,1,569
1971,4,1,51,5,1,1,1,350
1972,4,1,52,10,0,0,1,676
1973,4,1,53,5,0,0,1,456
1974,4,1,54,10,0,0,1,574
1975,4,1,55,10,0,0,1,485
1976,4,1,56,2,0,0,1,476
1977,4,1,57,32,0,0,1,702
1978,4,1,58,20,1,1,1,579
1979,4,1,59,5,1,1,1,491
1980,4,1,60,20,0,0,1,489
1981,4,1,61,32,1,1,1,1494
1982,4,1,62,10,0,0,1,778
1983,4,1,63,20,0,0,1,458
1984,4,1,64,32,0,0,1,629
1985,4,1,65,32,0,0,1,648
1986,4,1,66,5,1,1,1,654
1987,4,1,67,32,1,1,1,2223
1988,4,1,68,5,1,1,1,534
1989,4,1,69,20,1,1,1,523
1990,4,1,70,32,0,0,1,428
1991,4,1,71,32,1,1,1,1191
1992,4,1,72,20,0,0,1,668
1993,4,1,73,10,1,1,1,569
1994,4,1,74,20,1,1,1,690
1995,4,1,75,10,1,1,1,558
1996,4,1,76,10,0,0,1,529
1997,4,1,77,5,1,1,1,540
1998,4,1,78,32,1,1,1,859
1999,4,1,79,5,0,0,1,646
2000,4,1,80,10,1,1,1,565
2001,4,1,81,10,1,1,1,791
2002,4,1,82,10,0,0,1,567
2003,4,1,83,5,0,0,1,437
2004,4,1,84,32,1,1,1,606
2005,4,1,85,2,0,0,1,544
2006,4,1,86,20,0,0,1,523
2007,4,1,87,32,0,0,1,500
2008,4,1,88,2,1,1,1,437
2009,4,1,89,2,1,1,1,410
2010,4,1,90,32,1,1,1,460
2011,4,1,91,1,0,0,1,449
2012,4,1,92,32,0,0,1,619
2013,4,1,93,2,0,0,1,689
2014,4,1,94,32,1,1,1,597
2015,4,1,95,32,0,0,1,995
2016,4,1,96,10,0,0,1,384
2017,4,1,97,5,0,0,1,1124
2018,4,1,98,10,0,0,1,574
2019,4,1,99,2,0,0,1,466
2020,4,1,100,2,0,0,1,484
2021,4,1,101,10,1,1,1,422
2022,4,1,102,20,1,1,1,526
2023,4,1,103,5,0,0,1,485
2024,4,1,104,32,0,0,1,592
2025,4,1,105,20,0,0,1,577
2026,4,1,106,5,0,0,1,483
2027,4,1,107,5,0,0,1,774
2028,4,1,108,32,1,1,1,564
2029,4,1,109,20,0,0,1,512
2030,4,1,110,2,1,1,1,482
2031,4,1,111,10,1,1,1,543
2032,4,1,112,20,1,1,1,597
2033,4,1,113,5,0,0,1,459
2034,4,1,114,20,1,1,1,456
2035,4,1,115,5,1,1,1,776
2036,4,1,116,10,0,0,1,589
2037,4,1,117,1,0,0,1,512
2038,4,1,118,32,1,1,1,1559
2039,4,1,119,20,1,1,1,869
2040,4,1,120,1,1,1,1,600
2041,4,1,121,2,0,0,1,536
2042,4,1,122,20,0,0,1,566
2043,4,1,123,2,0,0,1,465
2044,4,1,124,2,1,1,1,663
2045,4,1,125,5,1,1,1,703
2046,4,1,126,20,1,1,1,812
2047,4,1,127,5,0,0,1,607
2048,4,1,128,1,1,1,1,423
2049,4,1,129,5,0,0,1,518
2050,4,1,130,5,1,1,1,451
2051,4,1,131,10,1,1,1,454
2052,4,1,132,20,0,0,1,453
2053,4,1,133,2,0,0,1,618
2054,4,1,134,2,0,0,1,457
2055,4,1,135,32,1,1,1,481
2056,4,1,136,10,1,1,1,571
2057,4,1,137,20,0,0,1,650
2058,4,1,138,32,0,0,1,505
2059,4,1,139,2,0,0,1,576
2060,4,1,140,10,1,1,1,462
2061,4,1,141,5,1,1,1,687
2062,4,1,142,5,1,1,1,736
2063,4,1,143,10,0,0,1,655
2064,4,1,144,20,0,0,1,1851
2065,4,1,145,5,0,0,1,449
2066,4,1,146,5,1,1,1,465
2067,4,1,147,20,1,1,1,826
2068,4,1,148,5,0,0,1,609
2069,4,1,149,2,1,1,1,546
2070,4,1,150,20,0,0,1,639
2071,4,1,151,1,1,1,1,587
2072,4,1,152,5,1,1,1,469
2073,4,1,153,10,1,1,1,560
2074,4,1,154,2,0,0,1,431
2075,4,1,155,2,0,0,1,495
2076,4,1,156,2,0,0,1,458
2077,4,1,157,2,0,0,1,497
2078,4,1,158,10,1,1,1,610
2079,4,1,159,10,0,0,1,511
2080,4,1,160,32,0,0,1,722
2081,4,1,161,20,1,1,1,856
2082,4,1,162,2,1,1,1,445
2083,4,1,163,10,0,0,1,661
2084,4,1,164,20,1,1,1,451
2085,4,1,165,32,1,1,1,516
2086,4,1,166,32,1,1,1,820
2087,4,1,167,32,1,1,1,515
2088,4,1,168,1,1,1,1,502
2089,4,1,169,2,0,0,1,512
2090,4,1,170,2,1,1,1,767
2091,4,1,171,10,0,0,1,476
2092,4,1,172,10,0,0,1,458
2093,4,1,173,10,1,1,1,834
2094,4,1,174,2,0,0,1,506
2095,4,1,175,32,1,1,1,607
2096,4,1,176,10,0,0,1,597
2097,4,1,177,20,0,0,1,440
2098,4,1,178,32,0,0,1,431
2099,4,1,179,5,1,1,1,448
2100,4,1,180,10,0,0,1,391
2101,4,1,181,5,1,1,1,551
2102,4,1,182,2,1,1,1,621
2103,4,1,183,10,0,0,1,535
2104,4,1,184,5,1,1,1,543
2105,4,1,185,5,1,1,1,451
2106,4,1,186,5,0,0,1,489
2107,4,1,187,5,0,0,1,505
2108,4,1,188,20,0,0,1,464
2109,4,1,189,5,0,0,1,471
2110,4,1,190,5,1,1,1,439
2111,4,1,191,2,1,1,1,439
2112,4,1,192,32,0,0,1,962
2113,4,1,193,20,1,1,1,1078
2114,4,1,194,5,1,1,1,799
2115,4,1,195,32,0,0,1,498
2116,4,1,196,10,0,0,1,609
2117,4,1,197,1,0,0,1,471
2118,4,1,198,10,1,1,1,1730
2119,4,1,199,10,0,0,1,579
2120,4,1,200,32,0,0,1,506
2121,4,1,201,2,0,0,1,692
2122,4,1,202,2,0,0,1,406
2123,4,1,203,10,1,1,1,761
2124,4,1,204,32,1,1,1,498
2125,4,1,205,5,0,0,1,465
2126,4,1,206,10,1,1,1,680
2127,4,1,207,2,0,0,1,602
2128,4,1,208,20,1,1,1,614
2129,4,1,209,32,0,0,1,520
2130,4,1,210,10,0,0,1,564
2131,4,1,211,1,1,1,1,459
2132,4,1,212,10,0,0,1,622
2133,4,1,213,20,1,1,1,484
2134,4,1,214,32,1,1,1,577
2135,4,1,215,1,0,0,1,648
2136,4,1,216,32,0,0,1,1981
2137,4,1,217,20,0,0,1,1223
2138,4,1,218,1,1,1,1,520
2139,4,1,219,2,0,0,1,625
2140,4,1,220,20,0,0,1,718
2141,4,1,221,5,0,0,1,505
2142,4,1,222,2,1,1,1,555
2143,4,1,223,2,0,0,1,508
2144,4,1,224,2,1,1,1,402
2145,4,1,225,2,1,1,1,559
2146,4,1,226,2,1,1,1,651
2147,4,1,227,20,0,0,1,544
2148,4,1,228,5,1,1,1,602
2149,4,1,229,32,1,1,1,995
2150,4,1,230,1,0,0,1,499
2151,4,1,231,20,0,0,1,481
2152,4,1,232,20,0,0,1,524
2153,4,1,233,2,1,1,1,484
2154,4,1,234,5,0,0,1,786
2155,4,1,235,10,1,1,1,709
2156,4,1,236,20,1,1,1,1192
2157,4,1,237,20,1,1,1,620
2158,4,1,238,5,1,1,1,684
2159,4,1,239,32,1,1,1,550
2160,4,1,240,5,0,0,1,579
2161,4,1,241,1,1,1,1,649
2162,4,1,242,32,0,0,1,535
2163,4,1,243,20,1,1,1,450
2164,4,1,244,5,1,1,1,858
2165,4,1,245,32,0,0,1,663
2166,4,1,246,2,0,0,1,721
2167,4,1,247,20,1,1,1,561
2168,4,1,248,2,0,0,1,640
2169,4,1,249,20,0,0,1,542
2170,4,1,250,2,1,1,1,646
2171,4,1,251,10,1,1,1,624
2172,4,1,252,1,0,0,1,714
2173,4,1,253,5,0,0,1,428
2174,4,1,254,2,1,1,1,472
2175,4,1,255,5,0,0,1,515
2176,4,1,256,32,0,0,1,493
2177,4,1,257,5,1,1,1,632
2178,4,1,258,32,1,1,1,774
2179,4,1,259,1,0,0,1,458
2180,4,1,260,32,0,0,1,606
2181,4,1,261,10,0,0,1,687
2182,4,1,262,10,0,0,1,651
2183,4,1,263,5,0,0,1,848
2184,4,1,264,5,1,1,1,444
2185,4,1,265,2,0,0,1,560
2186,4,1,266,20,1,1,1,586
2187,4,1,267,2,1,1,1,426
2188,4,1,268,20,1,1,1,625
2189,4,1,269,32,0,0,1,1507
2190,4,1,270,2,0,0,1,601
2191,4,1,271,32,1,1,1,743
2192,4,1,272,2,1,1,1,453
2193,4,1,273,10,1,1,1,650
2194,4,1,274,10,1,1,1,629
2195,4,1,275,10,0,0,1,520
2196,4,1,276,10,1,1,1,569
2197,4,1,277,1,1,1,1,536
2198,4,1,278,20,0,0,1,432
2199,4,1,279,20,0,0,1,540
2200,4,1,280,10,0,0,1,649
2201,4,1,281,5,1,1,1,619
2202,4,1,282,20,1,1,1,774
2203,4,1,283,2,1,1,1,449
2204,4,1,284,32,0,0,1,928
2205,4,1,285,1,0,0,1,503
2206,4,1,286,10,1,1,1,454
2207,4,1,287,32,1,1,1,805
2208,4,1,288,10,0,0,1,915
2209,4,1,289,20,1,1,1,661
2210,4,1,290,5,1,1,1,839
2211,4,1,291,32,0,0,1,2326
2212,4,1,292,10,0,0,1,790
2213,4,1,293,10,1,1,1,503
2214,4,1,294,10,1,1,1,434
2215,4,1,295,2,1,1,1,522
2216,4,1,296,20,1,1,1,738
2217,4,1,297,10,0,0,1,485
2218,4,1,298,20,1,1,1,641
2219,4,1,299,20,1,1,1,873
2220,4,1,300,2,0,0,1,465
2221,4,1,301,5,0,0,1,913
2222,4,1,302,2,0,0,1,621
2223,4,1,303,20,1,1,1,459
2224,4,1,304,20,0,0,1,887
2225,4,1,305,2,0,0,1,409
2226,4,1,306,5,1,1,1,546
2227,4,1,307,20,1,1,1,442
2228,4,1,308,5,0,0,1,530
2229,4,1,309,5,0,0,1,505
2230,4,1,310,2,1,1,1,514
2231,4,1,311,10,1,1,1,551
2232,4,1,312,32,1,1,1,517
2233,4,1,313,5,0,0,1,743
2234,4,1,314,32,1,1,1,720
2235,4,1,315,20,1,1,1,477
2236,4,1,316,32,0,0,1,659
2237,4,1,317,10,0,0,1,850
2238,4,1,318,2,0,0,1,547
2239,4,1,319,32,0,0,1,654
2240,4,1,320,20,0,0,1,480
2241,4,1,321,1,1,1,1,569
2242,4,1,322,32,1,1,1,1150
2243,4,1,323,32,1,1,1,687
2244,4,1,324,5,0,0,1,655
2245,4,1,325,10,0,0,1,696
2246,4,1,326,1,1,1,1,418
2247,4,1,327,5,0,0,1,403
2248,4,1,328,10,1,1,1,496
2249,4,1,329,5,1,1,1,528
2250,4,1,330,32,1,1,1,544
2251,4,1,331,2,0,0,1,508
2252,4,1,332,10,0,0,1,782
2253,4,1,333,20,0,0,1,456
2254,4,1,334,20,0,0,1,835
2255,4,1,335,32,0,0,1,563
2256,4,1,336,10,0,0,1,650
2257,4,1,337,32,0,0,1,453
2258,4,1,338,20,1,1,1,653
2259,4,1,339,10,0,0,1,476
2260,4,1,340,20,0,0,1,485
2261,4,1,341,2,1,1,1,469
2262,4,1,342,2,1,1,1,437
2263,4,1,343,32,1,1,1,565
2264,4,1,344,5,1,1,1,456
2265,4,1,345,20,0,0,1,528
2266,4,1,346,10,0,0,1,572
2267,4,1,347,5,1,1,1,800
2268,4,1,348,20,0,0,1,989
2269,4,1,349,10,0,0,1,424
2270,4,1,350,5,0,0,1,510
2271,4,1,351,20,1,1,1,581
2272,4,1,352,32,1,1,1,529
2273,4,1,353,2,0,0,1,874
2274,4,1,354,32,0,0,1,583
2275,4,1,355,10,0,0,1,450
2276,4,1,356,10,1,1,1,542
2277,4,1,357,20,0,0,1,502
2278,4,1,358,20,1,1,1,598
2279,4,1,359,5,1,1,1,457
2280,4,1,360,2,1,1,1,466
2281,4,1,361,20,0,0,1,799
2282,4,1,362,10,0,0,1,478
2283,4,1,363,1,0,0,1,351
2284,4,1,364,32,1,1,1,609
2285,4,1,365,1,1,1,1,522
2286,4,1,366,10,1,1,1,1306
2287,4,1,367,5,0,0,1,514
2288,4,1,368,5,0,0,1,561
2289,4,1,369,10,0,0,1,782
2290,4,1,370,5,0,0,1,526
2291,4,1,371,1,1,1,1,394
2292,4,1,372,2,0,0,1,483
2293,4,1,373,2,1,1,1,621
2294,4,1,374,32,1,1,1,534
2295,4,1,375,2,1,1,1,452
2296,4,1,376,32,1,1,1,889
2297,4,1,377,20,0,0,1,989
2298,4,1,378,1,0,0,1,473
2299,4,1,379,20,0,0,1,477
2300,4,1,380,20,1,1,1,536
2301,4,1,381,20,1,1,1,454
2302,4,1,382,32,0,0,1,524
2303,4,1,383,32,0,0,1,708
2304,4,1,384,32,0,0,1,505
2305,4,1,385,20,1,1,1,1211
2306,4,1,386,2,0,0,1,543
2307,4,1,387,2,1,1,1,449
2308,4,1,388,2,0,0,1,522
2309,4,1,389,2,1,1,1,423
2310,4,1,390,5,1,1,1,679
2311,4,1,391,32,0,0,1,452
2312,4,1,392,10,1,1,1,482
2313,4,1,393,5,0,0,1,682
2314,4,1,394,32,1,1,1,501
2315,4,1,395,2,1,1,1,457
2316,4,1,396,2,1,1,1,501
2317,4,1,397,2,1,1,1,605
2318,4,1,398,1,0,0,1,403
2319,4,1,399,10,0,0,1,460
2320,4,1,400,20,1,1,1,421
2321,4,1,401,10,1,1,1,585
2322,4,1,402,32,1,1,1,504
2323,4,1,403,2,1,1,1,427
2324,4,1,404,1,1,1,1,503
2325,4,1,405,2,0,0,1,463
2326,4,1,406,20,0,0,1,433
2327,4,1,407,5,0,0,1,531
2328,4,1,408,20,1,1,1,460
2329,4,1,409,1,1,1,1,610
2330,4,1,410,2,0,0,1,916
2331,4,1,411,20,0,0,1,561
2332,4,1,412,5,0,0,1,849
2333,4,1,413,20,0,0,1,657
2334,4,1,414,2,0,0,1,512
2335,4,1,415,32,0,0,1,692
2336,4,1,416,32,1,1,1,501
2337,4,1,417,32,1,1,1,508
2338,4,1,418,5,0,0,1,386
2339,4,1,419,20,1,1,1,577
2340,4,1,420,5,0,0,1,621
2341,4,1,421,32,0,0,1,650
2342,4,1,422,10,0,0,1,1256
2343,4,1,423,20,1,1,1,494
2344,4,1,424,1,0,0,1,442
2345,4,1,425,2,0,0,1,518
2346,4,1,426,2,0,0,1,413
2347,4,1,427,5,1,1,1,409
2348,4,1,428,2,1,1,1,435
2349,4,1,429,5,1,1,1,392
2350,4,1,430,2,1,1,1,400
2351,4,1,431,20,0,0,1,653
2352,4,1,432,32,0,0,1,903
2353,4,1,433,2,1,1,1,520
2354,4,1,434,2,1,1,1,437
2355,4,1,435,32,0,0,1,880
2356,4,1,436,2,0,0,1,591
2357,4,1,437,2,0,0,1,622
2358,4,1,438,20,0,0,1,521
2359,4,1,439,32,1,1,1,618
2360,4,1,440,32,0,0,1,547
2361,4,1,441,20,1,1,1,510
2362,4,1,442,32,1,1,1,566
2363,4,1,443,10,1,1,1,469
2364,4,1,444,20,0,0,1,929
2365,4,1,445,2,1,1,1,401
2366,4,1,446,32,0,0,1,486
2367,4,1,447,5,1,1,1,576
2368,4,1,448,5,1,1,1,470
2369,4,1,449,32,1,1,1,610
2370,4,1,450,5,0,0,1,449
2371,4,1,451,5,0,0,1,525
2372,4,1,452,10,0,0,1,491
2373,4,1,453,2,1,1,1,650
2374,4,1,454,5,0,0,1,409
2375,4,1,455,32,1,1,1,510
2376,4,1,456,2,1,1,1,572
2377,4,1,457,5,1,1,1,692
2378,4,1,458,32,0,0,1,502
2379,4,1,459,20,1,1,1,619
2380,4,1,460,5,1,1,1,558
2381,4,1,461,32,0,0,1,553
2382,4,1,462,5,0,0,1,617
2383,4,1,463,2,1,1,1,498
2384,4,1,464,5,1,1,1,465
2385,4,1,465,10,0,0,1,530
2386,4,1,466,5,1,1,1,640
2387,4,1,467,20,1,1,1,449
2388,4,1,468,20,0,0,0,410
2389,4,1,469,2,1,1,1,520
2390,4,1,470,10,1,1,1,441
2391,4,1,471,2,0,0,1,659
2392,4,1,472,32,0,0,1,745
2393,4,1,473,10,1,1,1,715
2394,4,1,474,10,1,1,1,861
2395,4,1,475,5,1,1,1,396
2396,4,1,476,10,1,1,1,466
2397,4,1,477,1,0,0,1,406
2398,4,1,478,32,0,0,1,521
2399,4,1,479,2,0,0,1,700
2400,4,1,480,2,0,0,1,528
2401,4,1,481,20,1,1,1,2303
2402,4,1,482,5,0,0,1,959
2403,4,1,483,32,0,0,1,438
2404,4,1,484,5,1,1,1,640
2405,4,1,485,10,1,1,1,471
2406,4,1,486,32,0,0,1,524
2407,4,1,487,2,1,1,0,550
2408,4,1,488,5,0,0,1,451
2409,4,1,489,10,1,1,1,507
2410,4,1,490,32,0,0,1,543
2411,4,1,491,20,0,0,1,538
2412,4,1,492,32,1,1,1,604
2413,4,1,493,32,1,1,1,584
2414,4,1,494,20,0,0,1,565
2415,4,1,495,1,1,1,1,505
2416,4,1,496,32,0,0,1,521
2417,4,1,497,10,1,1,1,581
2418,4,1,498,5,1,1,1,618
2419,4,1,499,2,1,1,1,420
2420,4,1,500,2,1,1,1,446
2421,4,1,501,10,1,1,1,706
2422,4,1,502,10,1,1,1,924
2423,4,1,503,20,1,1,1,701
2424,4,1,504,20,0,0,1,498
2425,4,1,505,5,0,0,1,453
2426,4,1,506,32,0,0,1,878
2427,4,1,507,2,0,0,1,770
2428,4,1,508,20,0,0,1,478
2429,4,1,509,1,0,0,1,409
2430,4,1,510,10,1,1,1,611
2431,4,1,511,32,1,1,1,692
2432,4,1,512,20,0,0,1,567
2433,4,1,513,10,1,1,1,522
2434,4,1,514,20,0,0,1,422
2435,4,1,515,2,0,0,1,479
2436,4,1,516,10,1,1,1,516
2437,4,1,517,32,0,0,1,685
2438,4,1,518,1,0,0,1,502
2439,4,1,519,20,0,0,1,922
2440,4,1,520,20,1,1,1,501
2441,4,1,521,5,0,0,1,3110
2442,4,1,522,20,1,1,1,595
2443,4,1,523,10,0,0,1,512
2444,4,1,524,1,1,1,1,411
2445,4,1,525,2,0,0,1,669
2446,4,1,526,10,1,1,1,467
2447,4,1,527,20,1,1,1,788
2448,4,1,528,5,0,0,1,515
2449,4,1,529,2,1,1,1,466
2450,4,1,530,5,0,0,1,697
2451,4,1,531,32,1,1,1,1493
2452,4,1,532,32,0,0,1,1866
2453,4,1,533,10,1,1,1,449
2454,4,1,534,5,1,1,1,715
2455,4,1,535,5,0,0,1,655
2456,4,1,536,2,1,1,1,765
2457,4,1,537,1,0,0,1,555
2458,4,1,538,32,1,1,1,551
2459,4,1,539,2,0,0,1,552
2460,4,1,540,2,1,1,1,728
2461,4,1,541,10,1,1,1,474
2462,4,1,542,10,0,0,1,839
2463,4,1,543,2,0,0,1,608
2464,4,1,544,32,0,0,1,632
2465,4,1,545,10,1,1,1,665
2466,4,1,546,10,1,1,1,550
2467,4,1,547,10,0,0,1,640
2468,4,1,548,5,0,0,1,680
2469,4,1,549,1,1,1,1,408
2470,4,1,550,20,1,1,1,470
2471,4,1,551,10,0,0,1,636
2472,4,1,552,32,1,1,1,669
2473,4,1,553,32,1,1,1,433
2474,4,1,554,10,1,1,1,416
2475,4,1,555,2,0,0,1,633
2476,4,1,556,2,1,1,1,392
2477,4,1,557,20,1,1,1,509
2478,4,1,558,2,1,1,1,425
2479,4,1,559,5,1,1,1,375
2480,4,1,560,5,1,1,1,439
2481,4,1,561,10,0,0,1,638
2482,4,1,562,5,0,0,1,527
2483,4,1,563,5,1,1,1,511
2484,4,1,564,5,1,1,0,507
2485,4,1,565,2,1,1,1,658
2486,4,1,566,20,1,1,1,611
2487,4,1,567,5,1,1,1,599
2488,4,1,568,10,1,1,1,665
2489,4,1,569,5,1,1,1,408
2490,4,1,570,32,1,1,1,555
2491,4,1,571,10,0,0,1,1093
2492,4,1,572,32,1,1,1,460
2493,4,1,573,10,0,0,1,754
2494,4,1,574,20,0,0,1,633
2495,4,1,575,20,0,0,1,889
2496,4,1,576,20,1,1,1,439
2497,4,1,577,10,1,1,1,673
2498,4,1,578,2,0,0,1,548
2499,4,1,579,32,1,1,1,475
2500,4,1,580,32,0,0,1,534
2501,4,1,581,2,0,0,1,515
2502,4,1,582,5,0,0,1,418
2503,4,1,583,20,1,1,1,535
2504,4,1,584,10,0,0,1,525
2505,4,1,585,20,0,0,1,588
2506,4,1,586,2,1,1,1,466
2507,4,1,587,2,0,0,1,614
2508,4,1,588,10,0,0,1,647
2509,4,1,589,1,1,1,1,541
2510,4,1,590,32,0,0,1,1447
2511,4,1,591,5,1,1,1,509
2512,4,1,592,2,0,0,1,552
2513,4,1,593,32,0,0,1,544
2514,4,1,594,5,1,1,1,814
2515,4,1,595,20,1,1,1,1454
2516,4,1,596,32,1,1,1,643
2517,4,1,597,10,1,1,1,448
2518,4,1,598,32,0,0,1,711
2519,4,1,599,20,1,1,1,749
2520,4,1,600,5,1,1,1,386
2521,4,1,601,5,0,0,1,675
2522,4,1,602,20,0,0,1,659
2523,4,1,603,2,0,0,1,593
2524,4,1,604,32,1,1,1,511
2525,4,1,605,32,0,0,1,699
2526,4,1,606,5,1,1,1,633
2527,4,1,607,20,1,1,1,487
2528,4,1,608,5,0,0,1,497
2529,4,1,609,10,0,0,1,724
2530,4,1,610,20,0,0,1,519
2531,4,1,611,5,1,1,1,441
2532,4,1,612,2,1,1,1,442
2533,4,1,613,32,1,1,1,1344
2534,4,1,614,2,0,0,1,602
2535,4,1,615,32,1,1,1,637
2536,4,1,616,32,1,1,1,454
2537,4,1,617,32,0,0,1,568
2538,4,1,618,2,0,0,1,513
2539,4,1,619,1,0,0,1,392
2540,4,1,620,5,1,1,1,584
2541,4,1,621,10,0,0,1,533
2542,4,1,622,20,0,0,1,556
2543,4,1,623,32,1,1,1,535
2544,4,1,624,2,1,1,1,449
2545,4,1,625,10,1,1,1,539
2546,4,1,626,20,0,0,1,539
2547,4,1,627,10,0,0,1,500
2548,4,1,628,5,1,1,1,507
2549,4,1,629,10,0,0,1,507
2550,4,1,630,2,1,1,1,607
2551,4,1,631,10,0,0,1,624
2552,4,1,632,5,0,0,1,553
2553,4,1,633,10,0,0,1,499
2554,4,1,634,20,0,0,1,706
2555,4,1,635,1,1,1,1,392
2556,4,1,636,10,1,1,1,738
2557,4,1,637,20,0,0,1,509
2558,4,1,638,20,0,0,1,640
2559,4,1,639,2,1,1,1,629
2560,4,1,640,5,0,0,1,449
2561,5,1,1,32,0,0,1,1969
2562,5,1,2,32,1,1,1,691
2563,5,1,3,2,0,0,1,587
2564,5,1,4,5,0,0,1,504
2565,5,1,5,5,0,0,1,487
2566,5,1,6,10,1,1,1,542
2567,5,1,7,10,1,1,1,508
2568,5,1,8,5,1,1,1,412
2569,5,1,9,20,1,1,1,494
2570,5,1,10,2,1,1,1,488
2571,5,1,11,10,0,0,1,632
2572,5,1,12,10,1,1,1,572
2573,5,1,13,32,0,0,1,1238
2574,5,1,14,5,1,1,1,973
2575,5,1,15,5,0,0,1,518
2576,5,1,16,10,0,0,1,972
2577,5,1,17,20,0,0,1,666
2578,5,1,18,1,0,0,1,345
2579,5,1,19,5,1,1,1,826
2580,5,1,20,2,0,0,1,475
2581,5,1,21,32,1,1,1,1041
2582,5,1,22,32,0,0,1,694
2583,5,1,23,10,1,1,1,526
2584,5,1,24,20,0,0,1,479
2585,5,1,25,5,0,0,1,438
2586,5,1,26,5,1,1,1,488
2587,5,1,27,5,1,1,1,518
2588,5,1,28,2,0,0,1,668
2589,5,1,29,32,1,1,1,686
2590,5,1,30,2,0,0,1,473
2591,5,1,31,2,1,1,1,352
2592,5,1,32,32,1,1,1,400
2593,5,1,33,2,1,1,1,362
2594,5,1,34,32,1,1,1,453
2595,5,1,35,20,1,1,1,662
2596,5,1,36,5,0,0,1,512
2597,5,1,37,1,1,1,1,330
2598,5,1,38,5,0,0,1,379
2599,5,1,39,10,1,1,1,323
2600,5,1,40,32,0,0,1,556
2601,5,1,41,20,1,1,1,975
2602,5,1,42,32,0,0,1,477
2603,5,1,43,32,1,1,1,799
2604,5,1,44,20,1,1,1,471
2605,5,1,45,32,0,0,1,487
2606,5,1,46,2,1,1,1,525
2607,5,1,47,5,0,0,1,358
2608,5,1,48,2,0,0,1,403
2609,5,1,49,10,1,1,1,345
2610,5,1,50,10,1,1,0,424
2611,5,1,51,20,0,0,1,562
2612,5,1,52,32,0,0,1,670
2613,5,1,53,10,0,0,1,733
2614,5,1,54,2,0,0,1,490
2615,5,1,55,20,0,0,1,544
2616,5,1,56,10,0,0,1,609
2617,5,1,57,10,0,0,1,815
2618,5,1,58,10,1,1,1,498
2619,5,1,59,5,0,0,1,453
2620,5,1,60,32,1,1,1,734
2621,5,1,61,2,0,0,1,495
2622,5,1,62,1,1,1,1,353
2623,5,1,63,5,0,0,1,524
2624,5,1,64,10,0,0,1,418
2625,5,1,65,32,1,1,1,503
2626,5,1,66,32,0,0,1,494
2627,5,1,67,20,0,0,1,611
2628,5,1,68,32,1,1,1,563
2629,5,1,69,32,1,1,1,463
2630,5,1,70,2,1,1,1,401
2631,5,1,71,5,0,0,1,524
2632,5,1,72,32,0,0,1,532
2633,5,1,73,32,1,1,1,430
2634,5,1,74,20,0,0,0,440
2635,5,1,75,10,0,0,1,541
2636,5,1,76,20,1,1,1,364
2637,5,1,77,5,0,0,1,522
2638,5,1,78,20,0,0,1,1238
2639,5,1,79,1,0,0,1,377
2640,5,1,80,2,1,1,1,419
2641,5,1,81,2,1,1,1,1171
2642,5,1,82,10,0,0,1,393
2643,5,1,83,20,0,0,1,571
2644,5,1,84,32,1,1,1,592
2645,5,1,85,20,1,1,1,889
2646,5,1,86,32,1,1,1,506
2647,5,1,87,2,1,1,1,835
2648,5,1,88,1,0,0,1,488
2649,5,1,89,20,1,1,1,593
2650,5,1,90,10,0,0,1,876
2651,5,1,91,32,1,1,1,766
2652,5,1,92,1,1,1,1,510
2653,5,1,93,2,1,1,1,528
2654,5,1,94,32,0,0,1,744
2655,5,1,95,10,0,0,1,633
2656,5,1,96,10,0,0,1,530
2657,5,1,97,5,1,1,1,690
2658,5,1,98,32,0,0,1,471
2659,5,1,99,10,1,1,1,440
2660,5,1,100,5,0,0,1,551
2661,5,1,101,20,0,0,1,519
2662,5,1,102,5,1,1,1,619
2663,5,1,103,32,1,1,1,515
2664,5,1,104,10,1,1,1,685
2665,5,1,105,20,0,0,1,465
2666,5,1,106,20,1,1,0,186
2667,5,1,107,5,0,0,1,583
2668,5,1,108,32,1,1,1,503
2669,5,1,109,5,0,0,1,513
2670,5,1,110,1,0,0,1,475
2671,5,1,111,2,0,0,1,511
2672,5,1,112,20,0,0,1,529
2673,5,1,113,5,1,1,1,456
2674,5,1,114,10,0,0,1,432
2675,5,1,115,20,1,1,1,510
2676,5,1,116,20,1,1,1,617
2677,5,1,117,32,0,0,1,536
2678,5,1,118,20,1,1,1,534
2679,5,1,119,10,0,0,0,428
2680,5,1,120,10,1,1,1,654
2681,5,1,121,20,0,0,1,680
2682,5,1,122,2,0,0,1,527
2683,5,1,123,1,0,0,1,165
2684,5,1,124,2,0,0,1,368
2685,5,1,125,32,1,1,1,431
2686,5,1,126,5,0,0,1,774
2687,5,1,127,1,1,1,1,539
2688,5,1,128,10,1,1,1,602
2689,5,1,129,20,1,1,1,460
2690,5,1,130,5,0,0,1,365
2691,5,1,131,10,0,0,1,743
2692,5,1,132,20,0,0,1,539
2693,5,1,133,5,1,1,1,502
2694,5,1,134,20,1,1,1,511
2695,5,1,135,5,1,1,1,446
2696,5,1,136,1,0,0,1,822
2697,5,1,137,20,1,1,1,856
2698,5,1,138,10,1,1,1,1300
2699,5,1,139,5,1,1,1,699
2700,5,1,140,5,0,0,1,636
2701,5,1,141,1,0,0,1,1083
2702,5,1,142,10,0,0,1,944
2703,5,1,143,5,1,1,1,558
2704,5,1,144,32,0,0,1,523
2705,5,1,145,32,1,1,1,480
2706,5,1,146,32,0,0,1,573
2707,5,1,147,32,0,0,1,642
2708,5,1,148,1,1,1,1,901
2709,5,1,149,2,1,1,1,612
2710,5,1,150,2,1,1,1,612
2711,5,1,151,2,1,1,1,616
2712,5,1,152,10,1,1,1,524
2713,5,1,153,10,0,0,1,958
2714,5,1,154,10,0,0,1,809
2715,5,1,155,5,0,0,1,648
2716,5,1,156,2,1,1,1,514
2717,5,1,157,10,0,0,1,743
2718,5,1,158,2,1,1,1,979
2719,5,1,159,32,1,1,1,838
2720,5,1,160,2,1,1,1,696
2721,5,1,161,2,1,1,1,1103
2722,5,1,162,10,1,1,1,766
2723,5,1,163,20,1,1,1,652
2724,5,1,164,5,0,0,1,544
2725,5,1,165,20,0,0,1,587
2726,5,1,166,32,0,0,1,1036
2727,5,1,167,10,0,0,1,572
2728,5,1,168,5,0,0,1,491
2729,5,1,169,10,1,1,1,647
2730,5,1,170,20,0,0,1,1087
2731,5,1,171,2,1,1,1,543
2732,5,1,172,1,0,0,1,649
2733,5,1,173,5,0,0,1,790
2734,5,1,174,32,0,0,1,673
2735,5,1,175,20,0,0,1,596
2736,5,1,176,5,1,1,1,1424
2737,5,1,177,5,1,1,1,1008
2738,5,1,178,2,0,0,1,1393
2739,5,1,179,2,1,1,1,444
2740,5,1,180,20,1,1,1,492
2741,5,1,181,32,1,1,1,1172
2742,5,1,182,10,0,0,1,567
2743,5,1,183,20,0,0,1,467
2744,5,1,184,2,0,0,1,624
2745,5,1,185,32,1,1,1,494
2746,5,1,186,20,1,1,1,719
2747,5,1,187,32,0,0,1,403
2748,5,1,188,20,0,0,1,579
2749,5,1,189,2,0,0,1,599
2750,5,1,190,5,1,1,1,484
2751,5,1,191,20,0,0,1,633
2752,5,1,192,2,1,1,1,367
2753,5,1,193,20,0,0,1,463
2754,5,1,194,10,0,0,1,440
2755,5,1,195,10,0,0,1,405
2756,5,1,196,10,0,0,1,431
2757,5,1,197,2,0,0,1,341
2758,5,1,198,20,0,0,1,507
2759,5,1,199,2,1,1,1,472
2760,5,1,200,10,0,0,1,648
2761,5,1,201,5,0,0,1,481
2762,5,1,202,5,0,0,1,730
2763,5,1,203,10,1,1,1,825
2764,5,1,204,1,0,0,1,421
2765,5,1,205,32,0,0,1,628
2766,5,1,206,10,1,1,1,520
2767,5,1,207,32,1,1,1,791
2768,5,1,208,32,1,1,1,574
2769,5,1,209,20,0,0,1,750
2770,5,1,210,10,0,0,1,605
2771,5,1,211,20,1,1,1,585
2772,5,1,212,20,0,0,1,465
2773,5,1,213,5,0,0,1,692
2774,5,1,214,5,1,1,1,615
2775,5,1,215,32,1,1,1,505
2776,5,1,216,20,1,1,1,1122
2777,5,1,217,32,1,1,1,848
2778,5,1,218,32,1,1,1,454
2779,5,1,219,32,1,1,1,596
2780,5,1,220,10,1,1,1,560
2781,5,1,221,10,0,0,1,615
2782,5,1,222,20,0,0,1,641
2783,5,1,223,10,0,0,1,663
2784,5,1,224,10,1,1,1,1120
2785,5,1,225,5,0,0,1,567
2786,5,1,226,5,0,0,1,570
2787,5,1,227,1,1,1,1,420
2788,5,1,228,1,1,1,1,384
2789,5,1,229,2,1,1,1,367
2790,5,1,230,5,0,0,1,504
2791,5,1,231,2,0,0,1,469
2792,5,1,232,32,0,0,1,450
2793,5,1,233,5,0,0,1,521
2794,5,1,234,10,0,0,1,451
2795,5,1,235,5,0,0,1,377
2796,5,1,236,20,1,1,1,537
2797,5,1,237,2,0,0,1,818
2798,5,1,238,10,0,0,1,754
2799,5,1,239,32,0,0,1,595
2800,5,1,240,20,0,0,1,606
2801,5,1,241,5,0,0,1,1302
2802,5,1,242,10,0,0,1,477
2803,5,1,243,2,0,0,1,523
2804,5,1,244,5,0,0,1,446
2805,5,1,245,2,1,1,1,1018
2806,5,1,246,5,1,1,1,858
2807,5,1,247,5,0,0,1,825
2808,5,1,248,32,1,1,1,458
2809,5,1,249,2,0,0,1,864
2810,5,1,250,5,0,0,1,813
2811,5,1,251,10,1,1,1,898
2812,5,1,252,5,0,0,1,714
2813,5,1,253,10,0,0,1,437
2814,5,1,254,5,1,1,1,479
2815,5,1,255,20,0,0,1,692
2816,5,1,256,10,1,1,1,654
2817,5,1,257,32,0,0,1,546
2818,5,1,258,20,1,1,1,925
2819,5,1,259,10,0,0,1,569
2820,5,1,260,20,0,0,1,456
2821,5,1,261,2,1,1,1,349
2822,5,1,262,20,1,1,1,582
2823,5,1,263,2,0,0,1,392
2824,5,1,264,20,1,1,1,895
2825,5,1,265,20,0,0,1,901
2826,5,1,266,10,1,1,1,722
2827,5,1,267,10,1,1,1,948
2828,5,1,268,10,1,1,1,555
2829,5,1,269,2,1,1,1,379
2830,5,1,270,10,0,3,0,929
2831,5,1,271,5,1,1,1,587
2832,5,1,272,20,0,0,1,373
2833,5,1,273,10,0,0,1,498
2834,5,1,274,5,1,1,1,545
2835,5,1,275,10,0,0,1,380
2836,5,1,276,32,0,0,1,824
2837,5,1,277,5,1,1,1,927
2838,5,1,278,10,1,1,1,1044
2839,5,1,279,20,1,1,1,1183
2840,5,1,280,32,0,0,1,497
2841,5,1,281,5,0,0,1,681
2842,5,1,282,20,0,0,1,537
2843,5,1,283,20,1,1,1,430
2844,5,1,284,32,0,0,1,542
2845,5,1,285,2,1,1,1,420
2846,5,1,286,20,0,0,1,1082
2847,5,1,287,2,0,0,1,491
2848,5,1,288,32,1,1,1,615
2849,5,1,289,32,1,1,1,456
2850,5,1,290,20,0,0,1,768
2851,5,1,291,2,0,0,1,423
2852,5,1,292,2,1,1,1,629
2853,5,1,293,10,1,1,1,669
2854,5,1,294,5,1,1,1,586
2855,5,1,295,32,1,1,1,471
2856,5,1,296,2,0,0,1,745
2857,5,1,297,32,0,0,1,479
2858,5,1,298,20,1,1,1,417
2859,5,1,299,20,1,1,1,437
2860,5,1,300,1,0,0,1,396
2861,5,1,301,20,1,1,1,393
2862,5,1,302,10,0,0,1,470
2863,5,1,303,10,0,0,1,487
2864,5,1,304,2,1,1,1,471
2865,5,1,305,32,0,0,1,1243
2866,5,1,306,32,1,1,1,750
2867,5,1,307,32,1,1,1,646
2868,5,1,308,32,1,1,1,848
2869,5,1,309,5,1,1,1,687
2870,5,1,310,32,0,0,1,1001
2871,5,1,311,32,0,0,1,1109
2872,5,1,312,20,0,0,1,835
2873,5,1,313,32,0,0,1,784
2874,5,1,314,32,1,1,1,983
2875,5,1,315,1,1,1,1,871
2876,5,1,316,2,1,1,1,494
2877,5,1,317,5,1,1,1,431
2878,5,1,318,20,1,1,1,495
2879,5,1,319,10,0,0,1,564
2880,5,1,320,5,1,1,1,542
2881,5,1,321,5,0,0,1,930
2882,5,1,322,32,0,0,1,476
2883,5,1,323,5,0,0,0,476
2884,5,1,324,1,1,1,1,830
2885,5,1,325,2,1,1,1,642
2886,5,1,326,2,0,0,1,920
2887,5,1,327,20,0,0,1,511
2888,5,1,328,20,0,0,1,403
2889,5,1,329,20,0,0,1,571
2890,5,1,330,20,1,1,1,760
2891,5,1,331,2,1,1,1,794
2892,5,1,332,10,1,1,1,561
2893,5,1,333,32,0,0,1,579
2894,5,1,334,20,1,1,1,648
2895,5,1,335,20,1,1,1,429
2896,5,1,336,10,0,0,1,656
2897,5,1,337,20,1,3,0,495
2898,5,1,338,32,0,0,1,500
2899,5,1,339,10,0,0,1,499
2900,5,1,340,20,1,1,1,1015
2901,5,1,341,10,1,1,1,525
2902,5,1,342,5,0,0,1,478
2903,5,1,343,32,0,0,1,664
2904,5,1,344,32,1,1,1,650
2905,5,1,345,5,0,0,1,432
2906,5,1,346,32,0,0,1,834
2907,5,1,347,10,0,0,1,656
2908,5,1,348,5,1,1,1,572
2909,5,1,349,5,1,1,1,493
2910,5,1,350,10,1,1,1,560
2911,5,1,351,20,0,0,1,433
2912,5,1,352,2,1,1,1,455
2913,5,1,353,5,1,1,1,685
2914,5,1,354,32,1,1,1,1120
2915,5,1,355,5,1,1,1,621
2916,5,1,356,32,0,0,1,674
2917,5,1,357,2,0,0,1,574
2918,5,1,358,20,0,0,1,509
2919,5,1,359,1,1,1,1,412
2920,5,1,360,2,0,0,1,615
2921,5,1,361,5,0,0,1,1186
2922,5,1,362,20,0,0,0,395
2923,5,1,363,5,0,0,1,465
2924,5,1,364,1,1,1,1,414
2925,5,1,365,32,0,0,1,512
2926,5,1,366,10,1,1,1,537
2927,5,1,367,2,0,0,1,463
2928,5,1,368,32,1,1,1,497
2929,5,1,369,32,1,1,1,518
2930,5,1,370,5,1,1,1,586
2931,5,1,371,20,1,1,1,571
2932,5,1,372,10,1,1,1,492
2933,5,1,373,1,0,0,1,431
2934,5,1,374,5,1,1,1,495
2935,5,1,375,5,0,0,1,601
2936,5,1,376,32,1,1,1,616
2937,5,1,377,10,0,0,1,983
2938,5,1,378,2,1,1,1,631
2939,5,1,379,2,1,1,1,591
2940,5,1,380,20,1,1,1,771
2941,5,1,381,20,1,1,1,619
2942,5,1,382,10,1,1,1,727
2943,5,1,383,20,0,0,1,582
2944,5,1,384,2,0,0,1,659
2945,5,1,385,5,1,1,1,996
2946,5,1,386,5,1,1,1,1164
2947,5,1,387,5,0,0,1,1507
2948,5,1,388,32,0,0,1,574
2949,5,1,389,10,1,1,1,477
2950,5,1,390,1,1,1,1,412
2951,5,1,391,2,1,1,1,427
2952,5,1,392,5,0,0,1,509
2953,5,1,393,32,0,0,1,1051
2954,5,1,394,2,1,1,1,907
2955,5,1,395,1,1,1,1,515
2956,5,1,396,2,1,1,1,576
2957,5,1,397,20,1,1,1,633
2958,5,1,398,20,1,1,1,802
2959,5,1,399,1,1,1,1,530
2960,5,1,400,20,1,1,1,610
2961,5,1,401,20,1,1,1,434
2962,5,1,402,32,1,1,1,461
2963,5,1,403,2,0,0,1,722
2964,5,1,404,10,0,0,1,849
2965,5,1,405,10,1,1,1,443
2966,5,1,406,20,1,1,1,579
2967,5,1,407,5,1,1,1,784
2968,5,1,408,20,0,0,1,596
2969,5,1,409,32,0,0,1,467
2970,5,1,410,10,1,1,1,818
2971,5,1,411,32,0,0,1,438
2972,5,1,412,20,1,1,1,575
2973,5,1,413,2,1,1,1,406
2974,5,1,414,1,0,0,1,946
2975,5,1,415,1,1,1,1,880
2976,5,1,416,2,0,0,1,480
2977,5,1,417,20,1,1,1,507
2978,5,1,418,2,0,0,1,487
2979,5,1,419,5,0,0,1,765
2980,5,1,420,32,0,0,1,481
2981,5,1,421,20,0,0,1,958
2982,5,1,422,20,1,1,1,568
2983,5,1,423,5,1,1,1,497
2984,5,1,424,2,0,0,1,457
2985,5,1,425,5,1,1,1,503
2986,5,1,426,32,0,0,1,607
2987,5,1,427,1,1,1,1,491
2988,5,1,428,20,0,0,1,743
2989,5,1,429,2,0,0,1,597
2990,5,1,430,10,1,1,1,904
2991,5,1,431,5,0,0,1,720
2992,5,1,432,5,1,1,1,824
2993,5,1,433,32,1,1,1,636
2994,5,1,434,2,0,0,1,492
2995,5,1,435,5,1,1,1,594
2996,5,1,436,1,1,1,1,489
2997,5,1,437,5,1,1,1,683
2998,5,1,438,5,0,0,1,623
2999,5,1,439,32,0,0,1,1021
3000,5,1,440,5,1,1,1,1459
3001,5,1,441,20,1,1,1,526
3002,5,1,442,5,1,1,1,613
3003,5,1,443,2,0,0,1,419
3004,5,1,444,2,1,1,1,349
3005,5,1,445,5,1,1,1,592
3006,5,1,446,2,1,1,1,787
3007,5,1,447,10,0,0,1,948
3008,5,1,448,10,1,1,1,465
3009,5,1,449,10,0,0,1,483
3010,5,1,450,10,0,0,1,1078
3011,5,1,451,10,1,1,1,423
3012,5,1,452,5,1,1,1,556
3013,5,1,453,1,0,0,1,821
3014,5,1,454,10,0,0,1,1539
3015,5,1,455,10,1,1,1,493
3016,5,1,456,2,1,1,1,476
3017,5,1,457,2,0,0,1,392
3018,5,1,458,2,0,0,1,537
3019,5,1,459,1,1,1,1,363
3020,5,1,460,32,0,0,1,530
3021,5,1,461,32,1,1,1,478
3022,5,1,462,32,0,0,1,571
3023,5,1,463,32,1,1,1,643
3024,5,1,464,32,1,1,1,556
3025,5,1,465,20,1,1,1,405
3026,5,1,466,10,0,0,1,756
3027,5,1,467,20,1,1,1,557
3028,5,1,468,20,0,0,1,497
3029,5,1,469,5,1,1,1,816
3030,5,1,470,5,1,1,1,379
3031,5,1,471,5,0,0,1,644
3032,5,1,472,5,1,1,1,432
3033,5,1,473,5,0,0,1,796
3034,5,1,474,10,1,1,1,657
3035,5,1,475,2,0,0,1,868
3036,5,1,476,32,0,0,1,453
3037,5,1,477,2,0,0,1,391
3038,5,1,478,5,0,3,0,427
3039,5,1,479,2,0,0,1,809
3040,5,1,480,2,0,0,1,534
3041,5,1,481,1,0,0,1,1032
3042,5,1,482,32,0,0,1,593
3043,5,1,483,1,1,1,1,310
3044,5,1,484,5,0,0,1,684
3045,5,1,485,5,0,0,1,354
3046,5,1,486,20,0,0,1,558
3047,5,1,487,32,1,1,1,540
3048,5,1,488,10,1,1,1,621
3049,5,1,489,20,1,1,1,591
3050,5,1,490,5,0,0,1,360
3051,5,1,491,5,1,1,1,666
3052,5,1,492,32,0,0,1,558
3053,5,1,493,2,0,0,1,616
3054,5,1,494,32,0,0,1,488
3055,5,1,495,20,1,1,1,872
3056,5,1,496,32,1,1,1,401
3057,5,1,497,10,1,1,1,536
3058,5,1,498,1,0,0,1,468
3059,5,1,499,5,1,1,1,543
3060,5,1,500,10,0,0,1,433
3061,5,1,501,20,0,0,1,454
3062,5,1,502,20,0,0,0,480
3063,5,1,503,10,1,1,1,466
3064,5,1,504,10,0,0,1,589
3065,5,1,505,2,1,1,1,510
3066,5,1,506,2,1,1,1,423
3067,5,1,507,10,1,1,1,531
3068,5,1,508,10,1,1,1,525
3069,5,1,509,20,0,0,1,757
3070,5,1,510,2,0,0,1,528
3071,5,1,511,2,1,1,1,476
3072,5,1,512,2,1,1,1,459
3073,5,1,513,20,0,0,1,476
3074,5,1,514,20,0,0,1,586
3075,5,1,515,32,1,1,1,568
3076,5,1,516,2,1,1,1,415
3077,5,1,517,2,1,1,1,555
3078,5,1,518,32,1,1,1,642
3079,5,1,519,20,0,0,1,878
3080,5,1,520,1,0,0,1,403
3081,5,1,521,2,0,0,1,604
3082,5,1,522,5,1,1,1,667
3083,5,1,523,20,0,0,1,555
3084,5,1,524,10,0,0,1,491
3085,5,1,525,20,1,1,1,466
3086,5,1,526,20,0,0,1,515
3087,5,1,527,5,1,1,1,543
3088,5,1,528,20,0,0,1,426
3089,5,1,529,1,0,0,1,428
3090,5,1,530,20,1,1,1,1023
3091,5,1,531,2,0,0,1,414
3092,5,1,532,2,0,0,1,492
3093,5,1,533,2,1,1,1,584
3094,5,1,534,10,0,0,1,404
3095,5,1,535,10,1,1,1,452
3096,5,1,536,5,1,1,1,1385
3097,5,1,537,5,1,1,1,1133
3098,5,1,538,20,0,0,1,1200
3099,5,1,539,1,1,1,1,425
3100,5,1,540,1,0,0,1,393
3101,5,1,541,10,1,1,1,464
3102,5,1,542,2,1,1,1,451
3103,5,1,543,2,0,0,1,571
3104,5,1,544,2,0,0,1,499
3105,5,1,545,10,1,1,1,649
3106,5,1,546,32,0,0,1,717
3107,5,1,547,10,0,0,1,750
3108,5,1,548,20,1,1,1,526
3109,5,1,549,20,0,0,1,569
3110,5,1,550,1,0,0,1,606
3111,5,1,551,5,0,0,1,861
3112,5,1,552,2,1,1,1,561
3113,5,1,553,32,1,1,1,522
3114,5,1,554,2,0,0,1,489
3115,5,1,555,10,0,0,1,793
3116,5,1,556,2,1,1,1,917
3117,5,1,557,20,1,1,1,742
3118,5,1,558,2,0,0,1,1070
3119,5,1,559,2,0,0,1,593
3120,5,1,560,20,1,1,1,531
3121,5,1,561,5,1,1,1,589
3122,5,1,562,32,0,0,1,680
3123,5,1,563,32,1,1,1,593
3124,5,1,564,2,1,1,1,503
3125,5,1,565,10,1,1,0,412
3126,5,1,566,10,0,0,1,718
3127,5,1,567,2,0,0,1,869
3128,5,1,568,5,0,0,1,826
3129,5,1,569,10,0,0,1,638
3130,5,1,570,32,1,1,1,636
3131,5,1,571,10,1,1,1,680
3132,5,1,572,10,0,0,1,892
3133,5,1,573,10,0,0,1,654
3134,5,1,574,10,1,1,1,908
3135,5,1,575,32,1,1,1,777
3136,5,1,576,2,0,0,1,558
3137,5,1,577,10,1,1,1,448
3138,5,1,578,5,1,1,1,473
3139,5,1,579,20,0,0,1,500
3140,5,1,580,2,0,0,1,355
3141,5,1,581,2,1,1,1,437
3142,5,1,582,2,0,0,1,448
3143,5,1,583,32,0,0,1,658
3144,5,1,584,5,0,0,1,670
3145,5,1,585,32,0,0,1,1001
3146,5,1,586,10,1,1,1,621
3147,5,1,587,20,1,1,1,543
3148,5,1,588,32,0,0,1,354
3149,5,1,589,20,1,1,1,527
3150,5,1,590,32,0,0,1,719
3151,5,1,591,10,1,1,1,728
3152,5,1,592,2,0,0,1,532
3153,5,1,593,10,1,1,1,477
3154,5,1,594,20,0,0,1,511
3155,5,1,595,32,0,0,0,824
3156,5,1,596,2,0,0,1,506
3157,5,1,597,10,1,1,1,479
3158,5,1,598,2,0,0,1,493
3159,5,1,599,2,1,1,1,435
3160,5,1,600,20,1,1,1,710
3161,5,1,601,2,0,0,1,538
3162,5,1,602,32,1,1,1,466
3163,5,1,603,32,1,1,1,544
3164,5,1,604,32,0,0,1,500
3165,5,1,605,5,0,0,1,569
3166,5,1,606,5,1,1,1,481
3167,5,1,607,2,1,1,1,437
3168,5,1,608,20,1,1,1,652
3169,5,1,609,32,1,1,1,586
3170,5,1,610,2,0,0,1,429
3171,5,1,611,1,0,0,1,487
3172,5,1,612,5,1,1,1,425
3173,5,1,613,32,0,0,1,699
3174,5,1,614,32,1,1,1,568
3175,5,1,615,2,0,0,1,845
3176,5,1,616,2,1,1,1,398
3177,5,1,617,5,1,1,1,418
3178,5,1,618,32,1,1,1,452
3179,5,1,619,5,0,0,1,372
3180,5,1,620,10,0,0,1,772
3181,5,1,621,5,1,1,1,413
3182,5,1,622,5,0,0,1,666
3183,5,1,623,10,1,1,1,693
3184,5,1,624,5,1,1,1,550
3185,5,1,625,2,1,1,1,624
3186,5,1,626,20,1,1,1,730
3187,5,1,627,32,0,0,1,294
3188,5,1,628,10,1,1,1,660
3189,5,1,629,2,1,1,1,505
3190,5,1,630,32,1,1,1,828
3191,5,1,631,10,1,1,1,1238
3192,5,1,632,2,1,1,1,848
3193,5,1,633,20,0,0,1,402
3194,5,1,634,5,1,1,1,551
3195,5,1,635,20,0,0,1,591
3196,5,1,636,2,1,1,1,393
3197,5,1,637,32,1,1,1,539
3198,5,1,638,5,0,0,1,692
3199,5,1,639,2,1,1,1,529
3200,5,1,640,10,0,0,1,469
3201,6,1,1,1,1,1,1,668
3202,6,1,2,1,0,0,1,476
3203,6,1,3,1,1,1,1,498
3204,6,1,4,10,0,0,1,544
3205,6,1,5,1,0,0,1,666
3206,6,1,6,2,0,0,1,614
3207,6,1,7,20,0,0,1,670
3208,6,1,8,2,1,1,1,554
3209,6,1,9,2,0,0,1,592
3210,6,1,10,10,0,0,1,830
3211,6,1,11,10,0,0,1,517
3212,6,1,12,10,0,0,1,534
3213,6,1,13,2,0,0,1,659
3214,6,1,14,5,0,0,1,428
3215,6,1,15,5,0,0,1,531
3216,6,1,16,20,0,0,1,548
3217,6,1,17,32,1,1,1,681
3218,6,1,18,32,0,0,1,566
3219,6,1,19,32,1,1,1,711
3220,6,1,20,10,0,0,1,734
3221,6,1,21,5,1,1,1,521
3222,6,1,22,10,1,1,1,556
3223,6,1,23,32,1,1,1,614
3224,6,1,24,32,0,0,1,668
3225,6,1,25,20,0,0,1,729
3226,6,1,26,5,1,1,1,586
3227,6,1,27,5,1,1,1,772
3228,6,1,28,20,1,1,1,560
3229,6,1,29,32,0,0,1,925
3230,6,1,30,10,0,0,1,630
3231,6,1,31,32,0,0,1,683
3232,6,1,32,20,1,1,1,638
3233,6,1,33,5,0,0,1,590
3234,6,1,34,5,0,0,1,576
3235,6,1,35,32,0,0,1,595
3236,6,1,36,10,0,0,1,580
3237,6,1,37,5,0,0,1,592
3238,6,1,38,2,0,0,1,423
3239,6,1,39,32,0,0,1,502
3240,6,1,40,20,1,1,1,602
3241,6,1,41,32,1,1,1,664
3242,6,1,42,10,1,1,1,531
3243,6,1,43,2,0,0,1,563
3244,6,1,44,2,1,1,1,578
3245,6,1,45,1,0,0,1,492
3246,6,1,46,2,0,0,1,546
3247,6,1,47,10,0,0,1,574
3248,6,1,48,32,0,0,1,513
3249,6,1,49,20,1,1,1,752
3250,6,1,50,1,1,1,1,421
3251,6,1,51,20,0,0,1,593
3252,6,1,52,5,0,0,1,503
3253,6,1,53,5,1,1,1,521
3254,6,1,54,1,1,1,1,407
3255,6,1,55,5,0,0,1,621
3256,6,1,56,5,0,0,1,721
3257,6,1,57,2,1,1,1,675
3258,6,1,58,20,1,1,1,565
3259,6,1,59,2,0,0,1,522
3260,6,1,60,10,0,0,1,606
3261,6,1,61,20,1,1,1,639
3262,6,1,62,20,1,1,1,574
3263,6,1,63,20,1,1,1,534
3264,6,1,64,5,1,1,1,506
3265,6,1,65,5,1,1,1,691
3266,6,1,66,10,0,0,1,883
3267,6,1,67,2,1,1,1,637
3268,6,1,68,5,1,1,1,533
3269,6,1,69,32,0,0,1,559
3270,6,1,70,32,0,0,1,628
3271,6,1,71,5,1,1,1,545
3272,6,1,72,5,0,0,1,544
3273,6,1,73,5,1,1,1,531
3274,6,1,74,20,0,0,1,534
3275,6,1,75,5,1,1,1,528
3276,6,1,76,10,1,1,1,457
3277,6,1,77,32,0,0,1,586
3278,6,1,78,32,0,0,1,575
3279,6,1,79,5,1,1,1,530
3280,6,1,80,2,1,1,1,492
3281,6,1,81,10,0,0,1,681
3282,6,1,82,5,1,1,1,570
3283,6,1,83,20,1,1,1,611
3284,6,1,84,20,1,1,1,480
3285,6,1,85,2,0,0,1,455
3286,6,1,86,5,1,1,1,483
3287,6,1,87,1,1,1,1,487
3288,6,1,88,32,1,1,1,518
3289,6,1,89,1,0,0,1,565
3290,6,1,90,10,0,0,1,826
3291,6,1,91,32,1,1,1,920
3292,6,1,92,5,1,1,1,900
3293,6,1,93,32,1,1,1,613
3294,6,1,94,20,0,0,1,611
3295,6,1,95,2,0,0,1,568
3296,6,1,96,10,1,1,1,707
3297,6,1,97,2,1,1,1,645
3298,6,1,98,32,0,0,1,640
3299,6,1,99,32,0,0,1,602
3300,6,1,100,32,0,0,1,703
3301,6,1,101,2,1,1,1,756
3302,6,1,102,5,1,1,1,556
3303,6,1,103,20,1,1,1,491
3304,6,1,104,2,1,1,1,582
3305,6,1,105,2,0,0,1,671
3306,6,1,106,5,0,0,1,617
3307,6,1,107,2,0,0,1,624
3308,6,1,108,5,1,1,1,573
3309,6,1,109,2,1,1,1,571
3310,6,1,110,20,1,1,1,525
3311,6,1,111,32,0,0,1,570
3312,6,1,112,10,0,0,1,615
3313,6,1,113,20,0,0,1,825
3314,6,1,114,1,0,0,1,543
3315,6,1,115,2,0,0,1,451
3316,6,1,116,10,1,1,1,594
3317,6,1,117,32,1,1,1,574
3318,6,1,118,2,0,0,1,590
3319,6,1,119,10,1,1,1,806
3320,6,1,120,20,0,0,1,902
3321,6,1,121,20,0,0,1,558
3322,6,1,122,20,0,0,1,561
3323,6,1,123,10,0,0,1,459
3324,6,1,124,5,1,1,1,565
3325,6,1,125,2,0,0,1,680
3326,6,1,126,32,0,0,1,554
3327,6,1,127,32,0,0,1,496
3328,6,1,128,20,1,1,1,506
3329,6,1,129,32,1,1,1,950
3330,6,1,130,32,1,1,1,766
3331,6,1,131,20,0,0,1,592
3332,6,1,132,20,1,1,1,730
3333,6,1,133,5,1,1,1,572
3334,6,1,134,20,1,1,1,769
3335,6,1,135,10,0,0,1,573
3336,6,1,136,5,0,0,1,612
3337,6,1,137,20,1,1,1,559
3338,6,1,138,2,1,1,1,427
3339,6,1,139,10,0,0,1,582
3340,6,1,140,20,0,0,1,443
3341,6,1,141,1,0,0,1,583
3342,6,1,142,2,1,1,1,593
3343,6,1,143,32,0,0,1,646
3344,6,1,144,10,1,1,1,758
3345,6,1,145,2,1,1,1,680
3346,6,1,146,20,0,0,1,516
3347,6,1,147,32,1,1,1,688
3348,6,1,148,32,1,1,1,827
3349,6,1,149,32,0,0,1,680
3350,6,1,150,10,0,0,1,492
3351,6,1,151,10,1,1,1,587
3352,6,1,152,20,0,0,1,496
3353,6,1,153,20,1,1,0,800
3354,6,1,154,1,1,1,1,516
3355,6,1,155,20,1,1,1,555
3356,6,1,156,20,0,0,1,590
3357,6,1,157,20,0,0,1,594
3358,6,1,158,32,0,0,1,704
3359,6,1,159,20,0,0,1,550
3360,6,1,160,20,1,1,1,556
3361,6,1,161,5,0,0,1,651
3362,6,1,162,2,0,0,1,639
3363,6,1,163,2,1,1,1,540
3364,6,1,164,2,1,1,1,703
3365,6,1,165,2,0,0,1,532
3366,6,1,166,20,0,0,1,539
3367,6,1,167,32,0,0,1,647
3368,6,1,168,20,1,1,1,640
3369,6,1,169,32,1,1,1,615
3370,6,1,170,20,1,1,1,498
3371,6,1,171,20,0,0,1,524
3372,6,1,172,5,1,1,1,561
3373,6,1,173,10,1,1,1,793
3374,6,1,174,10,1,1,1,525
3375,6,1,175,5,0,0,1,657
3376,6,1,176,20,0,0,1,590
3377,6,1,177,20,0,0,1,645
3378,6,1,178,10,0,0,1,730
3379,6,1,179,5,1,1,1,569
3380,6,1,180,10,1,1,1,485
3381,6,1,181,32,1,1,1,406
3382,6,1,182,5,1,1,1,585
3383,6,1,183,32,0,0,1,1217
3384,6,1,184,32,1,1,1,1177
3385,6,1,185,2,0,0,1,797
3386,6,1,186,20,0,0,1,568
3387,6,1,187,20,0,0,1,997
3388,6,1,188,2,1,1,1,576
3389,6,1,189,2,1,1,1,496
3390,6,1,190,20,0,0,1,805
3391,6,1,191,10,1,1,1,547
3392,6,1,192,5,0,0,1,666
3393,6,1,193,10,1,1,1,586
3394,6,1,194,10,0,0,1,776
3395,6,1,195,10,1,1,1,560
3396,6,1,196,5,0,0,1,692
3397,6,1,197,32,0,0,1,622
3398,6,1,198,32,1,1,1,544
3399,6,1,199,10,1,1,1,995
3400,6,1,200,10,1,1,1,516
3401,6,1,201,2,1,1,1,838
3402,6,1,202,20,0,0,1,700
3403,6,1,203,10,1,1,1,611
3404,6,1,204,10,0,0,1,573
3405,6,1,205,20,0,0,1,575
3406,6,1,206,5,1,1,1,580
3407,6,1,207,10,1,1,1,495
3408,6,1,208,20,1,1,1,573
3409,6,1,209,1,1,1,1,827
3410,6,1,210,10,1,1,1,563
3411,6,1,211,10,1,1,1,559
3412,6,1,212,20,1,1,1,637
3413,6,1,213,2,0,0,1,529
3414,6,1,214,32,0,0,1,599
3415,6,1,215,10,0,0,1,518
3416,6,1,216,10,0,0,1,623
3417,6,1,217,10,0,0,1,559
3418,6,1,218,2,1,1,1,735
3419,6,1,219,20,0,0,1,599
3420,6,1,220,10,0,0,1,784
3421,6,1,221,20,0,0,1,570
3422,6,1,222,2,0,0,1,488
3423,6,1,223,5,0,0,1,554
3424,6,1,224,32,1,1,1,672
3425,6,1,225,20,0,0,1,525
3426,6,1,226,10,1,1,1,540
3427,6,1,227,20,1,1,1,603
3428,6,1,228,10,1,1,1,571
3429,6,1,229,20,0,0,1,601
3430,6,1,230,2,1,1,1,691
3431,6,1,231,5,1,1,1,727
3432,6,1,232,32,1,1,1,542
3433,6,1,233,20,0,0,1,519
3434,6,1,234,1,0,0,1,1285
3435,6,1,235,5,0,0,1,495
3436,6,1,236,20,0,0,1,498
3437,6,1,237,5,0,0,1,579
3438,6,1,238,20,1,1,1,587
3439,6,1,239,32,1,1,1,562
3440,6,1,240,32,1,1,1,641
3441,6,1,241,2,0,0,1,578
3442,6,1,242,5,1,1,1,554
3443,6,1,243,20,0,0,1,610
3444,6,1,244,10,1,1,1,508
3445,6,1,245,2,0,0,1,488
3446,6,1,246,20,1,1,1,538
3447,6,1,247,2,1,1,1,618
3448,6,1,248,10,1,1,1,544
3449,6,1,249,32,1,1,1,748
3450,6,1,250,10,0,0,1,584
3451,6,1,251,2,0,0,1,638
3452,6,1,252,20,0,0,1,539
3453,6,1,253,20,0,0,1,526
3454,6,1,254,32,0,0,1,590
3455,6,1,255,2,1,1,1,645
3456,6,1,256,5,0,0,1,569
3457,6,1,257,32,0,0,1,728
3458,6,1,258,32,1,1,1,722
3459,6,1,259,1,1,1,1,535
3460,6,1,260,10,1,1,1,820
3461,6,1,261,5,0,0,1,646
3462,6,1,262,2,1,1,1,516
3463,6,1,263,10,1,1,1,565
3464,6,1,264,5,0,0,1,440
3465,6,1,265,1,1,1,1,475
3466,6,1,266,10,1,1,1,565
3467,6,1,267,5,0,0,1,520
3468,6,1,268,10,1,1,1,482
3469,6,1,269,5,1,1,1,495
3470,6,1,270,20,0,0,1,581
3471,6,1,271,5,0,0,1,600
3472,6,1,272,2,0,0,1,559
3473,6,1,273,32,0,0,1,737
3474,6,1,274,2,1,1,1,614
3475,6,1,275,2,0,0,1,470
3476,6,1,276,20,0,0,1,500
3477,6,1,277,5,0,0,1,511
3478,6,1,278,32,1,1,1,547
3479,6,1,279,5,0,0,1,659
3480,6,1,280,10,0,0,1,512
3481,6,1,281,5,0,0,1,640
3482,6,1,282,20,1,1,1,779
3483,6,1,283,20,1,1,1,544
3484,6,1,284,32,1,1,1,525
3485,6,1,285,20,1,1,1,582
3486,6,1,286,5,1,1,1,510
3487,6,1,287,5,1,1,1,692
3488,6,1,288,2,1,1,1,614
3489,6,1,289,10,1,1,1,482
3490,6,1,290,20,0,0,1,638
3491,6,1,291,2,1,1,1,554
3492,6,1,292,5,1,1,1,529
3493,6,1,293,20,1,1,1,562
3494,6,1,294,10,0,0,1,591
3495,6,1,295,5,1,1,1,677
3496,6,1,296,1,1,1,1,511
3497,6,1,297,5,1,1,1,492
3498,6,1,298,20,0,0,1,708
3499,6,1,299,32,0,0,1,545
3500,6,1,300,1,0,0,1,559
3501,6,1,301,10,1,1,1,702
3502,6,1,302,5,0,0,1,694
3503,6,1,303,5,1,1,1,521
3504,6,1,304,5,0,0,1,720
3505,6,1,305,20,1,1,1,961
3506,6,1,306,32,1,1,1,628
3507,6,1,307,1,0,0,1,582
3508,6,1,308,10,0,0,1,479
3509,6,1,309,5,1,1,1,635
3510,6,1,310,10,1,1,1,639
3511,6,1,311,1,0,0,1,477
3512,6,1,312,5,0,0,1,424
3513,6,1,313,2,1,1,1,585
3514,6,1,314,10,1,1,1,687
3515,6,1,315,32,0,0,1,504
3516,6,1,316,20,1,1,1,579
3517,6,1,317,5,1,1,1,647
3518,6,1,318,5,1,1,1,494
3519,6,1,319,32,1,1,1,579
3520,6,1,320,1,1,1,1,534
3521,6,1,321,2,1,1,1,637
3522,6,1,322,32,0,0,1,478
3523,6,1,323,2,0,0,1,483
3524,6,1,324,5,0,0,1,561
3525,6,1,325,32,0,0,1,557
3526,6,1,326,1,0,0,1,532
3527,6,1,327,5,0,0,1,497
3528,6,1,328,10,0,0,1,615
3529,6,1,329,5,0,0,1,582
3530,6,1,330,10,1,1,1,510
3531,6,1,331,20,1,1,1,709
3532,6,1,332,5,0,0,1,600
3533,6,1,333,5,0,0,1,493
3534,6,1,334,20,1,1,1,749
3535,6,1,335,2,1,1,1,563
3536,6,1,336,20,1,1,1,544
3537,6,1,337,10,0,0,1,472
3538,6,1,338,10,0,0,1,597
3539,6,1,339,5,0,0,1,478
3540,6,1,340,32,0,0,1,513
3541,6,1,341,20,1,1,1,528
3542,6,1,342,32,1,1,1,458
3543,6,1,343,20,0,0,1,745
3544,6,1,344,20,0,0,1,583
3545,6,1,345,2,0,0,1,561
3546,6,1,346,10,1,1,1,536
3547,6,1,347,10,1,1,1,584
3548,6,1,348,20,1,1,1,525
3549,6,1,349,2,0,0,1,715
3550,6,1,350,32,0,0,1,570
3551,6,1,351,2,1,1,1,475
3552,6,1,352,20,1,1,1,537
3553,6,1,353,20,1,1,1,554
3554,6,1,354,5,0,0,1,488
3555,6,1,355,5,1,1,1,610
3556,6,1,356,2,1,1,1,768
3557,6,1,357,10,0,0,1,734
3558,6,1,358,32,0,0,1,688
3559,6,1,359,10,1,1,1,506
3560,6,1,360,10,0,0,1,620
3561,6,1,361,2,0,0,1,767
3562,6,1,362,10,0,0,1,629
3563,6,1,363,20,1,1,1,869
3564,6,1,364,10,0,0,1,530
3565,6,1,365,20,1,1,1,467
3566,6,1,366,2,1,1,1,528
3567,6,1,367,32,1,1,1,614
3568,6,1,368,32,1,1,1,563
3569,6,1,369,2,1,1,1,584
3570,6,1,370,5,1,1,1,538
3571,6,1,371,20,0,0,1,574
3572,6,1,372,32,1,1,1,717
3573,6,1,373,2,1,1,1,600
3574,6,1,374,10,1,1,1,480
3575,6,1,375,32,1,1,1,628
3576,6,1,376,20,1,1,1,547
3577,6,1,377,1,0,0,1,535
3578,6,1,378,5,1,1,1,455
3579,6,1,379,32,0,0,1,1124
3580,6,1,380,32,0,0,1,597
3581,6,1,381,10,1,1,1,527
3582,6,1,382,20,1,1,1,799
3583,6,1,383,10,0,0,1,683
3584,6,1,384,32,0,0,1,941
3585,6,1,385,32,1,1,1,565
3586,6,1,386,10,1,1,1,473
3587,6,1,387,10,1,1,1,501
3588,6,1,388,10,1,1,1,498
3589,6,1,389,5,1,1,1,733
3590,6,1,390,1,0,0,1,617
3591,6,1,391,32,0,0,1,739
3592,6,1,392,5,1,1,1,551
3593,6,1,393,32,1,1,1,434
3594,6,1,394,10,1,1,1,702
3595,6,1,395,20,1,1,1,841
3596,6,1,396,5,0,0,1,764
3597,6,1,397,20,1,1,1,638
3598,6,1,398,32,1,1,1,600
3599,6,1,399,2,0,0,1,632
3600,6,1,400,2,1,1,1,857
3601,6,1,401,32,0,0,1,478
3602,6,1,402,5,0,0,1,470
3603,6,1,403,5,1,1,1,426
3604,6,1,404,5,0,0,1,654
3605,6,1,405,2,0,0,1,866
3606,6,1,406,20,0,0,1,613
3607,6,1,407,32,1,1,1,538
3608,6,1,408,20,0,0,1,844
3609,6,1,409,2,0,0,1,714
3610,6,1,410,5,1,1,1,645
3611,6,1,411,2,1,1,1,831
3612,6,1,412,32,1,1,1,724
3613,6,1,413,20,0,0,1,660
3614,6,1,414,10,0,0,1,910
3615,6,1,415,32,0,0,1,673
3616,6,1,416,2,0,0,1,629
3617,6,1,417,32,1,1,1,1078
3618,6,1,418,32,1,1,1,680
3619,6,1,419,1,0,0,1,928
3620,6,1,420,32,0,0,1,913
3621,6,1,421,2,1,1,1,820
3622,6,1,422,32,0,0,1,750
3623,6,1,423,1,1,1,1,637
3624,6,1,424,10,0,0,1,612
3625,6,1,425,5,1,1,1,556
3626,6,1,426,32,0,0,1,522
3627,6,1,427,20,0,0,1,578
3628,6,1,428,32,1,1,1,533
3629,6,1,429,20,0,0,1,665
3630,6,1,430,32,1,1,1,659
3631,6,1,431,2,1,1,1,527
3632,6,1,432,32,1,1,1,983
3633,6,1,433,10,1,1,1,570
3634,6,1,434,10,1,1,1,691
3635,6,1,435,2,1,1,1,489
3636,6,1,436,32,0,0,1,629
3637,6,1,437,20,0,0,1,728
3638,6,1,438,5,1,1,1,605
3639,6,1,439,2,0,0,1,482
3640,6,1,440,2,1,1,1,500
3641,6,1,441,20,1,1,1,683
3642,6,1,442,20,1,1,1,580
3643,6,1,443,10,0,0,1,763
3644,6,1,444,20,0,0,1,707
3645,6,1,445,10,1,1,1,663
3646,6,1,446,2,0,0,1,552
3647,6,1,447,2,0,0,1,564
3648,6,1,448,20,1,1,1,613
3649,6,1,449,1,0,0,1,600
3650,6,1,450,20,0,0,1,636
3651,6,1,451,1,1,1,1,556
3652,6,1,452,10,0,0,1,543
3653,6,1,453,5,0,0,1,603
3654,6,1,454,2,0,0,1,456
3655,6,1,455,2,1,1,1,601
3656,6,1,456,2,0,0,1,548
3657,6,1,457,32,0,0,1,693
3658,6,1,458,10,1,1,1,639
3659,6,1,459,10,1,1,1,643
3660,6,1,460,32,1,1,1,841
3661,6,1,461,5,0,0,1,535
3662,6,1,462,32,0,0,1,760
3663,6,1,463,2,1,1,1,719
3664,6,1,464,10,0,0,1,633
3665,6,1,465,10,0,0,1,543
3666,6,1,466,20,1,1,1,627
3667,6,1,467,5,0,0,1,622
3668,6,1,468,2,1,1,1,649
3669,6,1,469,2,0,0,1,709
3670,6,1,470,32,1,1,1,624
3671,6,1,471,2,1,1,1,586
3672,6,1,472,32,0,0,1,587
3673,6,1,473,2,1,1,1,524
3674,6,1,474,20,0,0,1,491
3675,6,1,475,10,1,1,1,514
3676,6,1,476,5,0,0,1,519
3677,6,1,477,32,0,0,1,601
3678,6,1,478,10,0,0,1,509
3679,6,1,479,32,1,1,1,608
3680,6,1,480,20,0,0,1,841
3681,6,1,481,1,0,0,1,617
3682,6,1,482,1,0,0,1,666
3683,6,1,483,10,0,0,1,611
3684,6,1,484,10,0,0,1,548
3685,6,1,485,5,0,0,1,655
3686,6,1,486,5,1,1,1,495
3687,6,1,487,32,1,1,1,695
3688,6,1,488,5,0,0,1,661
3689,6,1,489,32,1,1,1,589
3690,6,1,490,10,0,0,1,619
3691,6,1,491,10,1,1,1,608
3692,6,1,492,10,0,0,1,514
3693,6,1,493,2,0,0,1,642
3694,6,1,494,1,1,1,1,525
3695,6,1,495,20,1,1,1,694
3696,6,1,496,20,0,0,1,669
3697,6,1,497,2,0,0,1,497
3698,6,1,498,2,1,1,1,563
3699,6,1,499,5,1,1,1,602
3700,6,1,500,10,0,0,1,546
3701,6,1,501,2,0,0,1,445
3702,6,1,502,5,1,1,1,555
3703,6,1,503,5,1,1,1,1098
3704,6,1,504,20,1,1,1,621
3705,6,1,505,10,0,0,1,551
3706,6,1,506,2,1,1,1,836
3707,6,1,507,2,1,1,1,571
3708,6,1,508,2,1,1,1,446
3709,6,1,509,10,1,1,1,483
3710,6,1,510,32,1,1,1,717
3711,6,1,511,32,1,1,1,929
3712,6,1,512,20,1,1,1,699
3713,6,1,513,20,1,1,1,465
3714,6,1,514,32,0,0,1,584
3715,6,1,515,1,0,0,1,463
3716,6,1,516,20,1,1,1,1061
3717,6,1,517,32,1,1,1,1079
3718,6,1,518,20,0,0,1,598
3719,6,1,519,32,0,0,1,796
3720,6,1,520,20,1,1,1,488
3721,6,1,521,5,0,0,1,558
3722,6,1,522,20,0,0,1,450
3723,6,1,523,32,0,0,1,457
3724,6,1,524,5,0,0,1,590
3725,6,1,525,32,1,1,1,516
3726,6,1,526,10,0,0,1,912
3727,6,1,527,20,1,1,1,561
3728,6,1,528,5,1,1,1,683
3729,6,1,529,32,1,1,1,606
3730,6,1,530,1,1,1,1,461
3731,6,1,531,1,1,1,1,588
3732,6,1,532,2,1,1,1,620
3733,6,1,533,32,0,0,1,776
3734,6,1,534,20,0,0,1,598
3735,6,1,535,10,1,1,1,555
3736,6,1,536,2,0,0,1,561
3737,6,1,537,2,0,0,1,681
3738,6,1,538,10,1,1,1,751
3739,6,1,539,2,0,0,1,790
3740,6,1,540,5,1,1,1,790
3741,6,1,541,5,1,1,1,668
3742,6,1,542,5,0,0,1,478
3743,6,1,543,10,0,0,1,552
3744,6,1,544,5,1,1,1,665
3745,6,1,545,10,0,0,1,716
3746,6,1,546,2,1,1,1,632
3747,6,1,547,2,1,1,1,634
3748,6,1,548,5,1,1,1,841
3749,6,1,549,32,0,0,0,566
3750,6,1,550,5,1,1,1,563
3751,6,1,551,2,1,1,1,594
3752,6,1,552,5,0,0,1,532
3753,6,1,553,20,0,0,1,733
3754,6,1,554,5,1,1,1,613
3755,6,1,555,2,0,0,1,482
3756,6,1,556,10,0,0,1,488
3757,6,1,557,20,1,1,1,559
3758,6,1,558,2,0,0,1,631
3759,6,1,559,5,1,1,1,590
3760,6,1,560,10,1,1,1,500
3761,6,1,561,10,1,1,1,785
3762,6,1,562,1,1,1,1,432
3763,6,1,563,5,0,0,1,568
3764,6,1,564,5,0,0,1,539
3765,6,1,565,10,1,1,1,659
3766,6,1,566,32,0,0,1,607
3767,6,1,567,2,0,0,1,430
3768,6,1,568,5,0,0,1,512
3769,6,1,569,20,1,1,1,472
3770,6,1,570,5,1,1,1,798
3771,6,1,571,32,0,0,1,842
3772,6,1,572,10,1,1,1,632
3773,6,1,573,2,0,0,1,532
3774,6,1,574,2,0,0,1,598
3775,6,1,575,32,1,1,1,610
3776,6,1,576,1,0,0,1,455
3777,6,1,577,2,0,0,1,549
3778,6,1,578,10,0,0,1,477
3779,6,1,579,10,0,0,1,503
3780,6,1,580,10,0,0,1,682
3781,6,1,581,1,1,1,1,502
3782,6,1,582,5,0,0,1,615
3783,6,1,583,20,1,1,1,565
3784,6,1,584,2,0,0,1,477
3785,6,1,585,5,0,0,1,699
3786,6,1,586,2,0,0,1,457
3787,6,1,587,32,1,1,1,572
3788,6,1,588,5,0,0,1,575
3789,6,1,589,5,0,0,1,517
3790,6,1,590,32,0,0,1,1006
3791,6,1,591,2,0,0,1,547
3792,6,1,592,5,0,0,1,566
3793,6,1,593,10,1,1,1,712
3794,6,1,594,2,0,0,1,552
3795,6,1,595,32,0,0,1,836
3796,6,1,596,5,0,0,1,934
3797,6,1,597,2,0,0,1,511
3798,6,1,598,10,1,1,1,512
3799,6,1,599,32,1,1,1,582
3800,6,1,600,10,0,0,1,439
3801,6,1,601,1,1,1,1,874
3802,6,1,602,32,1,1,1,608
3803,6,1,603,20,0,0,1,542
3804,6,1,604,20,0,0,1,554
3805,6,1,605,5,0,0,1,453
3806,6,1,606,32,0,0,1,426
3807,6,1,607,32,1,1,1,596
3808,6,1,608,2,1,1,1,521
3809,6,1,609,1,1,1,1,413
3810,6,1,610,20,0,0,1,528
3811,6,1,611,32,0,0,1,488
3812,6,1,612,2,0,0,1,697
3813,6,1,613,2,0,0,1,517
3814,6,1,614,2,0,0,1,418
3815,6,1,615,32,1,1,1,651
3816,6,1,616,32,1,1,1,595
3817,6,1,617,32,1,1,1,597
3818,6,1,618,2,1,1,1,614
3819,6,1,619,10,1,1,1,752
3820,6,1,620,5,1,1,1,531
3821,6,1,621,1,0,0,1,467
3822,6,1,622,2,1,1,1,515
3823,6,1,623,10,0,0,1,546
3824,6,1,624,32,0,0,1,658
3825,6,1,625,5,0,0,1,818
3826,6,1,626,2,1,1,1,563
3827,6,1,627,20,1,1,1,569
3828,6,1,628,2,1,1,1,729
3829,6,1,629,2,1,1,1,963
3830,6,1,630,5,1,1,1,550
3831,6,1,631,5,1,1,1,519
3832,6,1,632,10,0,0,1,652
3833,6,1,633,10,1,1,1,999
3834,6,1,634,2,0,0,1,650
3835,6,1,635,2,1,1,1,738
3836,6,1,636,10,0,0,1,559
3837,6,1,637,2,1,1,1,533
3838,6,1,638,5,1,1,1,654
3839,6,1,639,2,0,0,1,588
3840,6,1,640,32,1,1,1,605
3841,7,1,1,32,1,1,1,744
3842,7,1,2,20,1,1,1,744
3843,7,1,3,10,0,0,1,746
3844,7,1,4,32,1,1,1,565
3845,7,1,5,32,0,0,1,596
3846,7,1,6,32,0,0,0,462
3847,7,1,7,10,1,1,1,686
3848,7,1,8,20,1,1,1,518
3849,7,1,9,10,1,1,1,621
3850,7,1,10,32,1,1,1,557
3851,7,1,11,2,0,0,1,420
3852,7,1,12,2,0,0,0,458
3853,7,1,13,2,1,1,1,455
3854,7,1,14,20,0,0,1,512
3855,7,1,15,5,0,0,1,719
3856,7,1,16,10,0,0,1,506
3857,7,1,17,2,0,0,1,468
3858,7,1,18,32,1,1,1,617
3859,7,1,19,5,0,0,1,637
3860,7,1,20,5,1,1,1,657
3861,7,1,21,10,0,0,1,517
3862,7,1,22,2,1,1,1,394
3863,7,1,23,20,1,1,1,675
3864,7,1,24,10,0,0,1,693
3865,7,1,25,20,1,1,1,797
3866,7,1,26,10,0,0,1,490
3867,7,1,27,1,1,1,1,459
3868,7,1,28,10,0,0,1,400
3869,7,1,29,10,0,0,1,564
3870,7,1,30,5,0,0,1,609
3871,7,1,31,20,0,0,1,659
3872,7,1,32,32,1,1,1,638
3873,7,1,33,5,1,1,1,567
3874,7,1,34,10,0,0,1,461
3875,7,1,35,32,1,1,1,1021
3876,7,1,36,1,1,1,1,657
3877,7,1,37,20,1,1,1,583
3878,7,1,38,2,1,1,1,569
3879,7,1,39,5,0,0,1,628
3880,7,1,40,20,1,1,1,430
3881,7,1,41,10,0,0,1,513
3882,7,1,42,5,1,1,1,535
3883,7,1,43,5,0,0,1,651
3884,7,1,44,10,1,1,1,456
3885,7,1,45,10,0,0,1,433
3886,7,1,46,2,0,0,1,365
3887,7,1,47,20,1,1,1,457
3888,7,1,48,20,0,0,1,713
3889,7,1,49,2,0,0,1,484
3890,7,1,50,32,1,1,1,697
3891,7,1,51,1,1,1,1,540
3892,7,1,52,5,0,0,1,661
3893,7,1,53,20,1,1,1,686
3894,7,1,54,20,1,1,1,595
3895,7,1,55,10,0,0,1,463
3896,7,1,56,20,0,0,0,463
3897,7,1,57,2,1,1,1,517
3898,7,1,58,2,0,0,1,808
3899,7,1,59,1,0,0,1,494
3900,7,1,60,20,0,0,1,568
3901,7,1,61,2,0,0,1,568
3902,7,1,62,5,1,1,1,683
3903,7,1,63,2,0,0,1,383
3904,7,1,64,2,0,0,1,339
3905,7,1,65,1,1,1,1,394
3906,7,1,66,20,0,0,1,977
3907,7,1,67,5,1,1,1,503
3908,7,1,68,2,1,1,1,599
3909,7,1,69,2,0,0,1,419
3910,7,1,70,5,1,1,1,427
3911,7,1,71,32,0,0,1,556
3912,7,1,72,2,0,0,1,558
3913,7,1,73,20,1,1,1,480
3914,7,1,74,32,0,0,1,637
3915,7,1,75,32,1,1,1,837
3916,7,1,76,32,0,0,1,853
3917,7,1,77,5,1,1,1,579
3918,7,1,78,32,0,0,1,658
3919,7,1,79,5,1,1,1,569
3920,7,1,80,32,0,0,1,588
3921,7,1,81,2,1,1,1,595
3922,7,1,82,20,0,0,1,580
3923,7,1,83,10,1,1,1,375
3924,7,1,84,20,1,1,1,659
3925,7,1,85,10,1,1,0,346
3926,7,1,86,10,1,1,1,591
3927,7,1,87,5,1,1,1,547
3928,7,1,88,32,0,0,1,744
3929,7,1,89,5,0,0,1,483
3930,7,1,90,10,0,0,1,560
3931,7,1,91,5,1,1,1,447
3932,7,1,92,2,0,0,1,406
3933,7,1,93,32,0,0,1,510
3934,7,1,94,10,0,0,1,501
3935,7,1,95,32,1,1,1,906
3936,7,1,96,20,0,0,1,464
3937,7,1,97,10,1,1,1,702
3938,7,1,98,5,0,0,1,463
3939,7,1,99,5,1,1,1,528
3940,7,1,100,2,1,1,1,576
3941,7,1,101,20,0,0,1,646
3942,7,1,102,5,1,1,1,694
3943,7,1,103,1,0,0,1,696
3944,7,1,104,2,1,1,1,480
3945,7,1,105,5,0,0,1,482
3946,7,1,106,32,1,1,1,670
3947,7,1,107,1,0,0,1,418
3948,7,1,108,32,1,1,1,651
3949,7,1,109,20,0,0,1,390
3950,7,1,110,2,0,0,1,728
3951,7,1,111,2,1,1,1,431
3952,7,1,112,2,1,1,1,574
3953,7,1,113,5,1,1,0,489
3954,7,1,114,32,1,1,1,1075
3955,7,1,115,10,0,0,1,602
3956,7,1,116,10,1,1,1,628
3957,7,1,117,32,0,0,1,548
3958,7,1,118,20,1,1,0,561
3959,7,1,119,20,1,1,1,1016
3960,7,1,120,5,1,1,1,751
3961,7,1,121,5,1,1,1,567
3962,7,1,122,10,1,1,1,609
3963,7,1,123,32,1,1,1,1000
3964,7,1,124,20,1,1,1,531
3965,7,1,125,20,0,0,1,665
3966,7,1,126,5,0,0,1,518
3967,7,1,127,10,0,0,1,660
3968,7,1,128,5,0,0,1,561
3969,7,1,129,32,0,0,1,566
3970,7,1,130,1,0,0,1,446
