trial_id,Subject,block_n,Trial,set_size,correctResponse,resp,acc,RT
1,1,1,1,5,1,1,1,562
2,1,1,2,32,1,1,1,605
3,1,1,3,20,1,1,1,445
4,1,1,4,1,1,1,1,393
5,1,1,5,1,1,1,0,382
6,1,1,6,10,1,1,1,367
7,1,1,7,32,1,1,1,575
8,1,1,8,20,0,0,1,692
9,1,1,9,1,1,1,1,413
10,1,1,10,32,1,1,1,927
11,1,1,11,2,1,1,1,520
12,1,1,12,32,1,1,1,452
13,1,1,13,5,0,0,0,398
14,1,1,14,5,1,1,1,577
15,1,1,15,2,0,0,1,504
16,1,1,16,32,1,1,1,474
17,1,1,17,2,1,1,1,658
18,1,1,18,32,1,1,1,437
19,1,1,19,5,0,0,1,535
20,1,1,20,20,0,0,1,522
21,1,1,21,1,0,0,1,531
22,1,1,22,10,0,0,1,595
23,1,1,23,1,0,0,1,399
24,1,1,24,32,1,1,1,711
25,1,1,25,20,1,1,1,574
26,1,1,26,20,1,1,1,625
27,1,1,27,10,0,0,1,550
28,1,1,28,20,0,0,1,548
29,1,1,29,10,0,0,1,553
30,1,1,30,5,1,1,1,709
31,1,1,31,1,1,1,1,445
32,1,1,32,10,0,0,1,515
33,1,1,33,32,0,0,1,500
34,1,1,34,10,0,0,1,567
35,1,1,35,5,1,1,1,523
36,1,1,36,5,0,0,1,445
37,1,1,37,32,1,1,1,671
38,1,1,38,2,0,0,1,391
39,1,1,39,5,0,0,1,532
40,1,1,40,2,1,1,1,613
41,1,1,41,20,0,0,1,938
42,1,1,42,32,1,1,1,662
43,1,1,43,2,0,0,1,869
44,1,1,44,5,1,1,1,584
45,1,1,45,32,0,0,1,489
46,1,1,46,20,0,0,1,1034
47,1,1,47,20,0,0,1,1311
48,1,1,48,20,0,0,1,591
49,1,1,49,20,0,0,1,456
50,1,1,50,20,0,0,1,500
51,1,1,51,10,0,0,1,539
52,1,1,52,1,1,1,1,633
53,1,1,53,32,0,0,1,1852
54,1,1,54,10,1,1,1,530
55,1,1,55,20,1,1,1,811
56,1,1,56,5,1,1,1,561
57,1,1,57,32,1,1,1,637
58,1,1,58,2,1,1,1,681
59,1,1,59,2,0,0,1,1120
60,1,1,60,5,0,0,1,532
61,1,1,61,2,0,0,1,715
62,1,1,62,10,0,0,1,601
63,1,1,63,20,0,0,1,552
64,1,1,64,5,1,1,1,724
65,1,1,65,20,1,1,1,708
66,1,1,66,10,1,1,1,481
67,1,1,67,10,1,1,1,550
68,1,1,68,10,0,0,1,528
69,1,1,69,2,1,1,1,440
70,1,1,70,20,1,1,1,471
71,1,1,71,20,1,1,1,472
72,1,1,72,2,0,0,1,825
73,1,1,73,20,1,1,1,443
74,1,1,74,10,0,0,1,465
75,1,1,75,32,1,1,1,403
76,1,1,76,2,1,1,1,554
77,1,1,77,5,0,0,1,686
78,1,1,78,20,0,0,1,475
79,1,1,79,10,0,0,1,475
80,1,1,80,32,0,0,0,407
81,1,1,81,10,0,0,1,1191
82,1,1,82,10,1,1,1,788
83,1,1,83,5,1,1,1,580
84,1,1,84,5,0,0,1,598
85,1,1,85,32,1,1,1,631
86,1,1,86,1,0,0,1,482
87,1,1,87,10,1,1,1,563
88,1,1,88,20,1,1,1,467
89,1,1,89,1,1,1,1,556
90,1,1,90,20,1,1,1,520
91,1,1,91,20,1,1,1,488
92,1,1,92,5,0,0,1,609
93,1,1,93,20,0,0,1,495
94,1,1,94,2,1,1,1,530
95,1,1,95,2,1,1,1,753
96,1,1,96,5,1,1,1,636
97,1,1,97,2,0,0,1,634
98,1,1,98,32,0,0,1,627
99,1,1,99,5,1,1,1,581
100,1,1,100,10,1,1,1,537
101,1,1,101,10,1,1,1,1016
102,1,1,102,1,0,0,1,535
103,1,1,103,10,1,1,1,515
104,1,1,104,1,0,0,1,372
105,1,1,105,2,0,0,1,699
106,1,1,106,5,1,1,1,703
107,1,1,107,5,0,0,1,724
108,1,1,108,32,0,0,1,907
109,1,1,109,20,1,1,1,778
110,1,1,110,32,0,0,1,614
111,1,1,111,32,1,1,1,628
112,1,1,112,2,1,1,1,458
113,1,1,113,2,0,0,1,667
114,1,1,114,10,1,1,1,495
115,1,1,115,20,0,0,1,477
116,1,1,116,5,0,0,1,504
117,1,1,117,5,0,0,1,600
118,1,1,118,10,0,0,1,392
119,1,1,119,5,0,0,1,598
120,1,1,120,1,1,1,1,580
121,1,1,121,2,1,1,1,557
122,1,1,122,5,0,0,1,541
123,1,1,123,32,0,0,1,648
124,1,1,124,5,0,0,1,615
125,1,1,125,32,0,0,1,669
126,1,1,126,20,1,1,1,613
127,1,1,127,32,0,0,1,1093
128,1,1,128,10,0,0,1,811
129,1,1,129,5,1,1,1,879
130,1,1,130,5,1,1,1,602
131,1,1,131,32,1,1,1,550
132,1,1,132,5,1,1,1,542
133,1,1,133,20,0,0,1,548
134,1,1,134,5,0,0,1,462
135,1,1,135,2,1,1,1,428
136,1,1,136,2,0,0,1,420
137,1,1,137,2,0,0,1,451
138,1,1,138,2,0,0,1,765
139,1,1,139,20,1,1,1,645
140,1,1,140,32,0,0,1,950
141,1,1,141,1,0,0,1,480
142,1,1,142,32,1,1,1,514
143,1,1,143,10,1,1,1,802
144,1,1,144,2,1,1,1,489
145,1,1,145,5,0,0,1,741
146,1,1,146,5,1,1,1,410
147,1,1,147,5,1,1,1,415
148,1,1,148,20,1,1,1,496
149,1,1,149,10,1,1,1,431
150,1,1,150,5,1,1,1,641
151,1,1,151,2,1,1,1,541
152,1,1,152,10,0,0,1,602
153,1,1,153,5,0,0,1,525
154,1,1,154,20,1,1,1,772
155,1,1,155,2,1,1,1,751
156,1,1,156,20,0,0,1,516
157,1,1,157,10,0,0,1,521
158,1,1,158,32,1,1,1,435
159,1,1,159,10,1,1,1,500
160,1,1,160,10,1,1,1,464
161,1,1,161,20,0,0,1,959
162,1,1,162,10,0,0,1,509
163,1,1,163,32,0,0,1,434
164,1,1,164,1,1,1,1,383
165,1,1,165,32,0,0,1,633
166,1,1,166,2,0,0,1,417
167,1,1,167,10,0,0,1,623
168,1,1,168,2,1,1,1,457
169,1,1,169,20,1,1,1,626
170,1,1,170,32,0,0,1,484
171,1,1,171,20,1,1,1,893
172,1,1,172,32,1,1,1,517
173,1,1,173,10,0,0,1,476
174,1,1,174,32,0,0,1,933
175,1,1,175,10,0,0,1,812
176,1,1,176,5,0,0,1,618
177,1,1,177,32,1,1,1,522
178,1,1,178,5,1,1,1,388
179,1,1,179,20,1,1,1,516
180,1,1,180,5,1,1,1,551
181,1,1,181,10,1,1,1,460
182,1,1,182,10,0,0,1,498
183,1,1,183,32,0,0,1,457
184,1,1,184,32,1,1,1,458
185,1,1,185,20,0,0,1,470
186,1,1,186,2,1,1,1,389
187,1,1,187,32,1,1,1,443
188,1,1,188,2,1,1,1,536
189,1,1,189,1,0,0,1,565
190,1,1,190,20,0,0,1,612
191,1,1,191,5,1,1,1,574
192,1,1,192,32,0,0,1,718
193,1,1,193,20,1,1,1,665
194,1,1,194,10,1,1,1,467
195,1,1,195,20,1,1,1,446
196,1,1,196,32,1,1,1,405
197,1,1,197,10,1,1,1,660
198,1,1,198,20,0,0,1,577
199,1,1,199,32,0,0,1,612
200,1,1,200,10,0,0,1,414
201,1,1,201,20,1,1,1,549
202,1,1,202,5,1,1,1,486
203,1,1,203,10,0,0,1,566
204,1,1,204,10,0,0,1,480
205,1,1,205,20,1,1,1,463
206,1,1,206,32,1,1,1,472
207,1,1,207,20,0,0,1,481
208,1,1,208,20,1,1,1,441
209,1,1,209,32,0,0,1,620
210,1,1,210,5,1,1,1,807
211,1,1,211,10,1,1,1,472
212,1,1,212,20,0,0,1,560
213,1,1,213,20,0,0,1,421
214,1,1,214,10,1,1,1,804
215,1,1,215,5,1,1,1,434
216,1,1,216,5,1,1,1,632
217,1,1,217,20,1,1,1,520
218,1,1,218,1,0,0,1,487
219,1,1,219,2,0,0,1,516
220,1,1,220,10,0,0,1,389
221,1,1,221,32,0,0,1,569
222,1,1,222,10,1,1,1,567
223,1,1,223,20,1,1,1,702
224,1,1,224,10,0,0,1,489
225,1,1,225,32,0,0,1,439
226,1,1,226,2,0,0,1,515
227,1,1,227,2,1,1,1,851
228,1,1,228,10,0,0,1,488
229,1,1,229,2,0,0,1,345
230,1,1,230,10,0,0,1,430
231,1,1,231,10,0,0,1,530
232,1,1,232,20,0,0,1,497
233,1,1,233,2,0,0,1,561
234,1,1,234,32,1,1,1,586
235,1,1,235,32,1,1,1,441
236,1,1,236,20,1,1,1,407
237,1,1,237,10,1,1,1,461
238,1,1,238,32,0,0,1,606
239,1,1,239,20,0,0,1,664
240,1,1,240,5,1,1,1,740
241,1,1,241,5,0,0,1,615
242,1,1,242,5,0,0,1,470
243,1,1,243,5,1,1,1,482
244,1,1,244,2,0,0,1,543
245,1,1,245,10,1,1,1,445
246,1,1,246,5,1,1,1,496
247,1,1,247,2,0,0,1,732
248,1,1,248,2,1,1,0,401
249,1,1,249,10,0,0,1,460
250,1,1,250,5,0,0,1,397
251,1,1,251,20,0,0,1,553
252,1,1,252,5,0,0,1,855
253,1,1,253,32,1,1,1,480
254,1,1,254,20,0,0,1,422
255,1,1,255,20,0,0,1,663
256,1,1,256,32,1,1,1,563
257,1,1,257,10,1,1,1,593
258,1,1,258,10,1,1,1,483
259,1,1,259,10,0,0,1,555
260,1,1,260,10,1,1,1,462
261,1,1,261,20,0,0,1,614
262,1,1,262,32,0,0,1,489
263,1,1,263,10,1,1,1,602
264,1,1,264,5,0,0,1,525
265,1,1,265,10,0,0,1,758
266,1,1,266,20,0,0,1,1398
267,1,1,267,10,0,0,1,442
268,1,1,268,10,1,1,1,552
269,1,1,269,20,1,1,1,516
270,1,1,270,10,1,1,1,453
271,1,1,271,32,0,0,1,492
272,1,1,272,5,1,1,1,556
273,1,1,273,1,1,1,1,464
274,1,1,274,1,0,0,1,1369
275,1,1,275,10,1,1,1,452
276,1,1,276,20,0,0,1,521
277,1,1,277,5,0,0,1,580
278,1,1,278,1,0,0,1,616
279,1,1,279,10,0,0,1,649
280,1,1,280,2,0,0,1,688
281,1,1,281,20,1,1,1,571
282,1,1,282,1,1,1,1,371
283,1,1,283,20,1,1,1,493
284,1,1,284,5,1,1,1,580
285,1,1,285,1,1,1,1,782
286,1,1,286,10,0,0,1,537
287,1,1,287,10,0,0,1,601
288,1,1,288,20,1,1,1,512
289,1,1,289,32,1,1,1,572
290,1,1,290,32,0,0,1,621
291,1,1,291,32,1,1,1,552
292,1,1,292,10,1,1,1,705
293,1,1,293,5,1,1,1,488
294,1,1,294,32,1,1,1,705
295,1,1,295,2,0,0,0,448
296,1,1,296,1,1,1,1,429
297,1,1,297,10,1,1,1,609
298,1,1,298,2,0,0,1,636
299,1,1,299,32,0,0,1,583
300,1,1,300,20,0,0,1,595
301,1,1,301,32,1,1,1,592
302,1,1,302,20,1,1,1,793
303,1,1,303,2,0,0,1,605
304,1,1,304,32,1,1,1,471
305,1,1,305,2,0,0,1,676
306,1,1,306,32,1,1,1,566
307,1,1,307,2,1,1,1,388
308,1,1,308,2,1,1,1,635
309,1,1,309,20,0,0,1,734
310,1,1,310,2,0,0,1,475
311,1,1,311,1,0,0,1,580
312,1,1,312,5,0,0,1,783
313,1,1,313,2,0,0,1,482
314,1,1,314,10,0,0,1,2637
315,1,1,315,1,1,1,1,460
316,1,1,316,5,0,0,1,444
317,1,1,317,10,1,1,1,1041
318,1,1,318,32,0,0,1,1090
319,1,1,319,20,0,0,1,1063
320,1,1,320,32,1,1,1,581
321,1,1,321,10,0,0,1,725
322,1,1,322,20,0,0,1,470
323,1,1,323,5,1,1,1,381
324,1,1,324,20,1,1,1,429
325,1,1,325,2,1,1,1,539
326,1,1,326,20,1,1,1,1075
327,1,1,327,2,0,0,1,841
328,1,1,328,1,0,0,1,478
329,1,1,329,5,0,0,1,551
330,1,1,330,1,1,1,1,514
331,1,1,331,2,1,1,1,758
332,1,1,332,20,1,1,1,490
333,1,1,333,5,1,1,1,591
334,1,1,334,10,1,1,1,471
335,1,1,335,10,1,1,1,542
336,1,1,336,32,0,0,1,598
337,1,1,337,10,0,0,1,522
338,1,1,338,10,0,0,1,1022
339,1,1,339,32,0,0,1,603
340,1,1,340,32,0,0,1,648
341,1,1,341,2,1,1,1,948
342,1,1,342,20,0,0,1,561
343,1,1,343,1,0,0,1,532
344,1,1,344,2,0,0,1,459
345,1,1,345,20,0,0,1,501
346,1,1,346,1,1,1,1,2246
347,1,1,347,5,0,0,1,506
348,1,1,348,20,1,1,1,605
349,1,1,349,10,1,1,1,427
350,1,1,350,2,0,0,1,438
351,1,1,351,5,0,0,1,947
352,1,1,352,10,0,0,1,857
353,1,1,353,20,0,0,1,529
354,1,1,354,10,1,1,1,668
355,1,1,355,10,1,1,1,658
356,1,1,356,2,1,1,1,467
357,1,1,357,32,1,1,1,684
358,1,1,358,2,1,1,1,1072
359,1,1,359,5,0,0,1,617
360,1,1,360,2,1,1,1,535
361,1,1,361,5,0,0,1,593
362,1,1,362,20,0,0,1,474
363,1,1,363,20,0,0,1,589
364,1,1,364,20,1,1,1,796
365,1,1,365,2,1,1,1,582
366,1,1,366,2,1,1,1,456
367,1,1,367,2,1,1,1,377
368,1,1,368,5,0,0,1,363
369,1,1,369,2,1,1,1,415
370,1,1,370,20,1,1,1,681
371,1,1,371,32,0,0,1,681
372,1,1,372,32,0,0,1,571
373,1,1,373,20,0,0,1,536
374,1,1,374,20,1,1,1,534
375,1,1,375,20,1,1,1,605
376,1,1,376,2,1,1,1,433
377,1,1,377,32,0,0,1,726
378,1,1,378,2,0,0,1,623
379,1,1,379,20,0,0,1,558
380,1,1,380,2,0,0,1,741
381,1,1,381,20,0,0,1,1091
382,1,1,382,32,0,0,1,498
383,1,1,383,5,1,1,1,753
384,1,1,384,5,0,0,1,407
385,1,1,385,2,0,0,1,379
386,1,1,386,10,0,0,1,715
387,1,1,387,20,1,1,1,631
388,1,1,388,5,0,0,1,602
389,1,1,389,20,1,1,1,1543
390,1,1,390,5,1,1,1,445
391,1,1,391,2,1,1,1,672
392,1,1,392,20,1,1,1,599
393,1,1,393,20,0,0,1,936
394,1,1,394,2,1,1,1,616
395,1,1,395,2,1,1,1,2121
396,1,1,396,2,1,1,1,739
397,1,1,397,2,1,1,1,1673
398,1,1,398,2,0,0,1,695
399,1,1,399,2,0,0,1,569
400,1,1,400,10,0,0,1,400
401,1,1,401,10,1,1,1,546
402,1,1,402,2,1,1,1,513
403,1,1,403,20,0,0,1,528
404,1,1,404,5,1,1,1,444
405,1,1,405,5,1,1,1,504
406,1,1,406,32,1,1,1,931
407,1,1,407,5,1,1,1,755
408,1,1,408,32,1,1,1,676
409,1,1,409,5,0,0,1,571
410,1,1,410,5,0,0,1,645
411,1,1,411,5,1,1,1,563
412,1,1,412,32,0,0,1,457
413,1,1,413,10,0,0,1,736
414,1,1,414,5,1,1,1,906
415,1,1,415,5,0,0,1,560
416,1,1,416,10,1,1,1,530
417,1,1,417,32,1,1,1,524
418,1,1,418,2,0,0,1,615
419,1,1,419,32,0,0,1,1832
420,1,1,420,2,0,0,1,595
421,1,1,421,2,0,0,1,617
422,1,1,422,5,0,0,1,668
423,1,1,423,10,0,0,1,411
424,1,1,424,20,0,0,1,864
425,1,1,425,5,1,1,1,596
426,1,1,426,32,1,1,1,584
427,1,1,427,32,1,1,1,753
428,1,1,428,2,1,1,1,542
429,1,1,429,5,1,1,1,523
430,1,1,430,2,1,1,1,987
431,1,1,431,20,0,0,1,617
432,1,1,432,1,1,1,1,501
433,1,1,433,10,1,1,1,779
434,1,1,434,10,1,1,1,519
435,1,1,435,2,1,1,1,427
436,1,1,436,32,1,1,1,570
437,1,1,437,10,0,0,1,474
438,1,1,438,5,0,0,1,456
439,1,1,439,32,1,1,1,489
440,1,1,440,2,1,1,1,685
441,1,1,441,32,0,0,1,542
442,1,1,442,10,1,1,1,682
443,1,1,443,32,1,1,1,446
444,1,1,444,5,0,0,1,455
445,1,1,445,10,1,1,1,500
446,1,1,446,5,1,1,1,456
447,1,1,447,2,0,0,1,417
448,1,1,448,1,0,0,1,384
449,1,1,449,10,0,0,1,609
450,1,1,450,10,1,1,1,1130
451,1,1,451,32,1,1,1,457
452,1,1,452,10,1,1,1,630
453,1,1,453,10,0,0,1,499
454,1,1,454,32,0,0,1,567
455,1,1,455,2,1,1,1,414
456,1,1,456,10,1,1,1,654
457,1,1,457,1,0,0,1,436
458,1,1,458,2,0,0,1,455
459,1,1,459,5,1,1,1,506
460,1,1,460,5,0,0,1,440
461,1,1,461,2,0,0,1,500
462,1,1,462,5,1,1,1,1138
463,1,1,463,2,1,1,1,448
464,1,1,464,5,1,1,1,498
465,1,1,465,1,0,0,1,548
466,1,1,466,20,1,1,1,657
467,1,1,467,2,0,0,1,509
468,1,1,468,2,0,0,1,523
469,1,1,469,5,0,0,1,443
470,1,1,470,10,1,1,1,491
471,1,1,471,2,1,1,1,498
472,1,1,472,20,1,1,1,415
473,1,1,473,2,1,1,1,351
474,1,1,474,5,0,0,1,541
475,1,1,475,5,0,0,1,445
476,1,1,476,32,1,1,1,952
477,1,1,477,10,0,0,1,457
478,1,1,478,32,0,0,1,529
479,1,1,479,20,0,0,1,499
480,1,1,480,20,1,1,1,740
481,1,1,481,20,0,0,1,729
482,1,1,482,2,0,0,1,383
483,1,1,483,2,0,0,1,389
484,1,1,484,10,0,0,1,871
485,1,1,485,5,1,1,1,544
486,1,1,486,20,1,1,1,642
487,1,1,487,20,1,1,1,613
488,1,1,488,10,0,0,1,657
489,1,1,489,32,0,0,1,616
490,1,1,490,32,0,0,1,499
491,1,1,491,2,1,1,1,479
492,1,1,492,32,0,0,1,539
493,1,1,493,2,0,0,1,409
494,1,1,494,2,1,1,1,615
495,1,1,495,10,1,1,1,351
496,1,1,496,1,0,0,1,537
497,1,1,497,10,1,1,1,1050
498,1,1,498,10,1,1,1,492
499,1,1,499,2,0,0,0,335
500,1,1,500,10,0,0,1,623
501,1,1,501,1,0,0,1,462
502,1,1,502,20,1,1,1,375
503,1,1,503,5,0,0,1,472
504,1,1,504,20,0,0,1,901
505,1,1,505,20,0,0,1,435
506,1,1,506,20,0,0,1,382
507,1,1,507,2,0,0,1,398
508,1,1,508,5,0,0,1,298
509,1,1,509,5,1,1,1,612
510,1,1,510,32,0,0,1,529
511,1,1,511,32,0,0,1,409
512,1,1,512,20,1,1,1,468
513,1,1,513,2,1,1,1,426
514,1,1,514,32,1,1,1,1043
515,1,1,515,2,0,0,1,460
516,1,1,516,32,1,1,1,407
517,1,1,517,32,1,1,1,546
518,1,1,518,32,1,1,1,420
519,1,1,519,10,1,1,1,400
520,1,1,520,2,0,0,1,680
521,1,1,521,20,0,0,1,462
522,1,1,522,32,1,1,1,630
523,1,1,523,32,1,1,1,390
524,1,1,524,5,0,0,1,521
525,1,1,525,2,1,1,1,519
526,1,1,526,32,1,1,1,787
527,1,1,527,5,1,1,1,408
528,1,1,528,5,1,1,1,487
529,1,1,529,20,1,1,1,389
530,1,1,530,2,0,0,1,513
531,1,1,531,5,1,1,1,481
532,1,1,532,20,1,1,1,475
533,1,1,533,10,0,0,1,515
534,1,1,534,5,0,0,1,561
535,1,1,535,2,1,1,1,486
536,1,1,536,32,0,0,1,695
537,1,1,537,32,0,0,1,513
538,1,1,538,1,1,1,1,640
539,1,1,539,32,0,0,1,718
540,1,1,540,10,0,0,1,478
541,1,1,541,10,0,0,1,473
542,1,1,542,5,0,0,1,396
543,1,1,543,2,1,1,1,517
544,1,1,544,1,1,1,1,343
545,1,1,545,32,0,0,1,528
546,1,1,546,32,1,1,1,535
547,1,1,547,20,0,0,1,510
548,1,1,548,10,0,0,1,629
549,1,1,549,5,1,1,1,398
550,1,1,550,5,0,0,1,744
551,1,1,551,32,1,1,1,493
552,1,1,552,10,0,0,1,468
553,1,1,553,2,0,0,1,442
554,1,1,554,2,0,0,1,453
555,1,1,555,20,1,1,1,537
556,1,1,556,5,0,0,1,403
557,1,1,557,10,1,1,1,529
558,1,1,558,5,1,1,1,504
559,1,1,559,5,1,1,1,428
560,1,1,560,2,0,0,1,415
561,1,1,561,20,0,0,1,579
562,1,1,562,20,0,0,1,899
563,1,1,563,1,0,0,1,435
564,1,1,564,32,0,0,1,770
565,1,1,565,5,1,1,1,866
566,1,1,566,10,0,0,1,592
567,1,1,567,32,0,0,1,557
568,1,1,568,1,0,0,1,414
569,1,1,569,2,0,0,1,541
570,1,1,570,10,1,1,1,478
571,1,1,571,5,0,0,1,546
572,1,1,572,32,0,0,1,1726
573,1,1,573,20,1,1,1,672
574,1,1,574,10,0,0,1,587
575,1,1,575,20,1,1,1,576
576,1,1,576,2,1,1,1,663
577,1,1,577,32,1,1,1,1081
578,1,1,578,32,1,1,1,545
579,1,1,579,32,0,0,1,464
580,1,1,580,5,1,1,1,448
581,1,1,581,32,0,0,1,572
582,1,1,582,10,1,1,1,469
583,1,1,583,20,0,0,1,509
584,1,1,584,1,1,1,1,420
585,1,1,585,2,1,1,1,470
586,1,1,586,20,0,0,1,588
587,1,1,587,2,1,1,1,485
588,1,1,588,10,1,1,1,398
589,1,1,589,2,0,0,1,428
590,1,1,590,20,0,0,1,463
591,1,1,591,2,0,0,1,442
592,1,1,592,32,0,0,1,547
593,1,1,593,5,1,1,1,477
594,1,1,594,32,0,0,1,533
595,1,1,595,20,1,1,1,984
596,1,1,596,5,0,0,1,457
597,1,1,597,5,1,1,1,673
598,1,1,598,32,0,0,1,952
599,1,1,599,32,1,1,1,558
600,1,1,600,32,1,1,1,575
601,1,1,601,10,1,1,1,441
602,1,1,602,2,0,0,1,387
603,1,1,603,2,1,1,1,411
604,1,1,604,5,0,0,1,400
605,1,1,605,20,0,0,1,369
606,1,1,606,32,0,0,1,599
607,1,1,607,5,0,0,1,611
608,1,1,608,5,0,0,1,418
609,1,1,609,10,1,1,1,490
610,1,1,610,2,1,1,1,671
611,1,1,611,10,0,0,1,340
612,1,1,612,32,0,0,1,394
613,1,1,613,2,0,0,1,435
614,1,1,614,5,1,1,1,774
615,1,1,615,5,1,1,1,527
616,1,1,616,20,1,1,1,451
617,1,1,617,32,0,0,1,456
618,1,1,618,10,0,0,1,408
619,1,1,619,20,0,0,1,489
620,1,1,620,32,1,1,1,544
621,1,1,621,5,0,0,1,486
622,1,1,622,10,1,1,1,540
623,1,1,623,32,1,1,1,1612
624,1,1,624,2,1,1,1,625
625,1,1,625,2,0,0,1,492
626,1,1,626,32,1,1,1,942
627,1,1,627,20,1,1,1,527
628,1,1,628,1,1,1,1,631
629,1,1,629,2,0,0,1,522
630,1,1,630,20,1,1,1,497
631,1,1,631,5,0,0,1,457
632,1,1,632,32,0,0,1,457
633,1,1,633,2,1,1,1,618
634,1,1,634,20,1,1,1,578
635,1,1,635,5,0,0,1,508
636,1,1,636,2,1,1,1,418
637,1,1,637,10,1,1,1,524
638,1,1,638,10,1,1,1,532
639,1,1,639,5,0,0,1,480
640,1,1,640,5,1,1,1,433
641,2,1,1,5,0,0,1,518
642,2,1,2,32,0,0,1,698
643,2,1,3,5,0,0,1,519
644,2,1,4,20,0,0,1,662
645,2,1,5,20,0,0,1,393
646,2,1,6,5,1,1,1,413
647,2,1,7,5,1,1,1,442
648,2,1,8,20,0,0,1,466
649,2,1,9,10,1,1,1,604
650,2,1,10,1,0,0,1,428
651,2,1,11,2,0,0,1,449
652,2,1,12,32,0,0,1,671
653,2,1,13,5,1,1,1,440
654,2,1,14,5,1,1,1,499
655,2,1,15,32,0,0,1,493
656,2,1,16,2,0,0,1,415
657,2,1,17,5,1,1,1,500
658,2,1,18,5,0,0,1,398
659,2,1,19,20,0,0,1,651
660,2,1,20,32,0,0,1,383
661,2,1,21,2,0,0,1,399
662,2,1,22,32,1,1,1,563
663,2,1,23,2,0,0,1,359
664,2,1,24,5,1,1,1,618
665,2,1,25,20,1,1,1,439
666,2,1,26,32,0,0,1,458
667,2,1,27,32,0,0,1,515
668,2,1,28,5,1,1,1,334
669,2,1,29,2,1,1,1,492
670,2,1,30,32,0,0,1,739
671,2,1,31,32,1,1,1,438
672,2,1,32,10,0,0,1,384
673,2,1,33,1,0,0,1,415
674,2,1,34,32,1,1,1,444
675,2,1,35,32,1,1,1,580
676,2,1,36,10,0,0,1,415
677,2,1,37,20,1,1,1,405
678,2,1,38,10,1,1,1,505
679,2,1,39,5,1,1,1,398
680,2,1,40,2,1,1,1,369
681,2,1,41,5,0,0,1,691
682,2,1,42,32,1,1,1,559
683,2,1,43,2,0,0,1,374
684,2,1,44,10,1,1,1,800
685,2,1,45,5,1,1,1,397
686,2,1,46,2,1,1,1,622
687,2,1,47,5,1,1,1,446
688,2,1,48,2,0,0,1,383
689,2,1,49,32,1,1,1,650
690,2,1,50,5,0,0,1,503
691,2,1,51,10,1,1,1,422
692,2,1,52,20,1,1,1,591
693,2,1,53,32,1,1,1,383
694,2,1,54,20,0,0,1,573
695,2,1,55,32,1,1,1,795
696,2,1,56,5,1,1,1,363
697,2,1,57,5,0,0,1,369
698,2,1,58,32,1,1,1,435
699,2,1,59,5,1,1,1,494
700,2,1,60,2,1,1,1,479
701,2,1,61,10,1,1,1,387
702,2,1,62,32,0,0,1,370
703,2,1,63,2,1,1,1,336
704,2,1,64,2,1,1,1,565
705,2,1,65,32,0,0,1,504
706,2,1,66,20,0,0,1,450
707,2,1,67,2,0,0,1,501
708,2,1,68,5,1,1,1,552
709,2,1,69,20,1,1,1,329
710,2,1,70,10,1,1,1,427
711,2,1,71,32,0,0,1,571
712,2,1,72,10,0,0,1,406
713,2,1,73,10,0,0,1,493
714,2,1,74,32,1,1,1,448
715,2,1,75,5,1,1,1,746
716,2,1,76,5,0,0,1,435
717,2,1,77,1,0,0,1,322
718,2,1,78,10,1,1,1,372
719,2,1,79,32,1,1,1,536
720,2,1,80,5,1,1,1,387
721,2,1,81,10,0,0,1,386
722,2,1,82,2,0,0,1,303
723,2,1,83,2,1,1,1,329
724,2,1,84,2,1,1,1,374
725,2,1,85,5,0,0,1,369
726,2,1,86,2,0,0,1,466
727,2,1,87,5,1,1,1,489
728,2,1,88,20,1,1,1,443
729,2,1,89,5,0,0,1,445
730,2,1,90,32,0,0,1,618
731,2,1,91,2,1,1,1,401
732,2,1,92,32,1,1,1,427
733,2,1,93,2,1,1,1,433
734,2,1,94,2,0,0,1,326
735,2,1,95,2,0,0,1,371
736,2,1,96,32,1,1,1,444
737,2,1,97,32,0,0,1,367
738,2,1,98,32,1,1,1,675
739,2,1,99,20,0,0,1,470
740,2,1,100,10,1,1,1,406
741,2,1,101,10,1,1,1,638
742,2,1,102,20,0,0,1,464
743,2,1,103,32,1,1,1,427
744,2,1,104,32,0,0,1,438
745,2,1,105,5,1,1,1,339
746,2,1,106,1,1,1,1,481
747,2,1,107,2,0,0,1,433
748,2,1,108,10,0,0,1,367
749,2,1,109,5,0,0,1,512
750,2,1,110,5,0,0,1,632
751,2,1,111,10,0,0,1,392
752,2,1,112,10,1,1,1,524
753,2,1,113,20,0,0,1,321
754,2,1,114,20,0,0,1,409
755,2,1,115,10,0,0,1,423
756,2,1,116,1,1,1,1,395
757,2,1,117,5,1,1,1,373
758,2,1,118,5,0,0,1,417
759,2,1,119,2,1,1,1,511
760,2,1,120,32,1,1,1,446
761,2,1,121,32,1,1,1,429
762,2,1,122,20,0,0,1,493
763,2,1,123,5,1,1,1,354
764,2,1,124,32,0,0,1,425
765,2,1,125,32,0,0,1,1310
766,2,1,126,5,1,1,1,587
767,2,1,127,20,0,0,1,453
768,2,1,128,20,1,1,1,479
769,2,1,129,5,1,1,1,671
770,2,1,130,10,0,0,1,376
771,2,1,131,10,1,1,1,357
772,2,1,132,10,1,1,1,527
773,2,1,133,20,0,0,1,389
774,2,1,134,5,0,0,1,371
775,2,1,135,2,0,0,1,611
776,2,1,136,2,0,0,1,330
777,2,1,137,20,0,0,1,342
778,2,1,138,10,1,1,1,353
779,2,1,139,32,1,1,1,486
780,2,1,140,32,1,1,1,455
781,2,1,141,10,1,1,1,414
782,2,1,142,32,0,0,1,710
783,2,1,143,20,1,1,1,472
784,2,1,144,10,1,1,1,442
785,2,1,145,20,1,1,1,445
786,2,1,146,2,1,1,1,399
787,2,1,147,20,1,1,1,386
788,2,1,148,10,0,0,1,431
789,2,1,149,10,0,0,1,450
790,2,1,150,2,1,1,1,344
791,2,1,151,20,1,1,1,470
792,2,1,152,32,0,0,1,823
793,2,1,153,32,0,0,1,462
794,2,1,154,5,1,1,1,609
795,2,1,155,2,1,1,1,410
796,2,1,156,2,1,1,1,385
797,2,1,157,32,0,0,1,622
798,2,1,158,32,0,0,1,507
799,2,1,159,2,1,1,1,418
800,2,1,160,20,1,1,1,516
801,2,1,161,10,1,1,1,749
802,2,1,162,10,0,0,1,525
803,2,1,163,2,0,0,1,341
804,2,1,164,1,1,1,1,420
805,2,1,165,20,1,1,1,344
806,2,1,166,10,1,1,1,560
807,2,1,167,2,1,1,1,374
808,2,1,168,20,1,1,1,1071
809,2,1,169,5,1,1,1,396
810,2,1,170,20,1,1,1,429
811,2,1,171,2,0,0,0,847
812,2,1,172,20,1,1,1,466
813,2,1,173,2,1,1,1,532
814,2,1,174,10,0,0,1,510
815,2,1,175,32,1,1,1,453
816,2,1,176,5,0,0,1,356
817,2,1,177,20,1,1,1,476
818,2,1,178,20,1,1,1,421
819,2,1,179,32,1,1,1,433
820,2,1,180,20,0,0,1,429
821,2,1,181,5,0,0,1,335
822,2,1,182,5,1,1,1,486
823,2,1,183,20,1,1,1,620
824,2,1,184,32,0,0,1,461
825,2,1,185,5,1,1,0,355
826,2,1,186,20,0,0,1,403
827,2,1,187,10,1,1,1,484
828,2,1,188,5,0,0,1,393
829,2,1,189,2,0,0,1,534
830,2,1,190,1,1,1,1,425
831,2,1,191,32,1,1,1,490
832,2,1,192,2,0,0,1,446
833,2,1,193,32,1,1,1,451
834,2,1,194,20,0,0,1,738
835,2,1,195,10,0,0,1,570
836,2,1,196,2,1,1,1,634
837,2,1,197,5,0,0,1,415
838,2,1,198,10,0,0,1,772
839,2,1,199,10,1,1,1,608
840,2,1,200,32,0,0,1,553
841,2,1,201,20,1,1,1,680
842,2,1,202,10,1,1,1,406
843,2,1,203,32,0,0,1,392
844,2,1,204,1,1,1,1,359
845,2,1,205,2,1,1,1,513
846,2,1,206,20,0,0,1,440
847,2,1,207,10,0,0,1,394
848,2,1,208,20,0,0,1,368
849,2,1,209,5,1,1,1,348
850,2,1,210,5,1,1,1,467
851,2,1,211,10,0,0,1,418
852,2,1,212,20,0,0,1,767
853,2,1,213,2,1,1,1,427
854,2,1,214,2,0,0,1,406
855,2,1,215,20,0,0,1,456
856,2,1,216,1,1,1,1,432
857,2,1,217,10,0,0,1,452
858,2,1,218,2,0,0,1,404
859,2,1,219,5,1,1,1,489
860,2,1,220,10,1,1,1,596
861,2,1,221,32,1,1,1,409
862,2,1,222,2,0,0,1,507
863,2,1,223,10,0,0,1,431
864,2,1,224,20,1,1,1,429
865,2,1,225,1,0,0,1,350
866,2,1,226,2,1,1,1,350
867,2,1,227,2,0,0,1,433
868,2,1,228,1,1,1,1,351
869,2,1,229,32,1,1,1,433
870,2,1,230,20,0,0,1,667
871,2,1,231,10,1,1,1,554
872,2,1,232,10,0,0,1,418
873,2,1,233,2,1,1,1,542
874,2,1,234,2,0,0,1,334
875,2,1,235,10,1,1,1,467
876,2,1,236,1,1,1,1,394
877,2,1,237,10,1,1,1,439
878,2,1,238,1,1,1,1,321
879,2,1,239,20,0,0,1,312
880,2,1,240,20,0,0,1,397
881,2,1,241,20,0,0,1,508
882,2,1,242,2,1,1,1,324
883,2,1,243,5,1,1,1,470
884,2,1,244,32,1,1,1,922
885,2,1,245,2,0,0,1,661
886,2,1,246,10,0,0,1,399
887,2,1,247,5,0,0,1,450
888,2,1,248,20,0,0,1,758
889,2,1,249,10,0,0,1,385
890,2,1,250,1,1,1,1,318
891,2,1,251,10,1,1,1,422
892,2,1,252,2,0,0,1,332
893,2,1,253,2,1,1,1,329
894,2,1,254,10,1,1,1,359
895,2,1,255,5,0,0,0,340
896,2,1,256,2,1,1,1,499
897,2,1,257,32,0,0,1,378
898,2,1,258,32,0,0,1,526
899,2,1,259,32,0,0,1,368
900,2,1,260,2,0,0,1,534
901,2,1,261,10,1,1,1,519
902,2,1,262,2,1,1,1,639
903,2,1,263,32,0,0,1,409
904,2,1,264,2,1,1,1,402
905,2,1,265,2,1,1,1,387
906,2,1,266,1,0,0,1,339
907,2,1,267,20,1,1,1,573
908,2,1,268,32,0,0,1,393
909,2,1,269,32,1,1,1,526
910,2,1,270,5,1,1,1,457
911,2,1,271,32,1,1,1,936
912,2,1,272,20,1,1,1,408
913,2,1,273,10,1,1,1,424
914,2,1,274,1,0,0,1,420
915,2,1,275,10,1,1,1,367
916,2,1,276,20,1,1,1,385
917,2,1,277,32,0,0,1,478
918,2,1,278,20,1,1,1,460
919,2,1,279,1,0,0,1,586
920,2,1,280,20,1,1,1,436
921,2,1,281,2,1,1,1,515
922,2,1,282,5,0,0,1,458
923,2,1,283,2,1,1,1,389
924,2,1,284,20,1,1,1,435
925,2,1,285,10,1,1,1,536
926,2,1,286,2,1,1,1,477
927,2,1,287,20,0,0,1,410
928,2,1,288,10,0,0,1,738
929,2,1,289,20,0,0,1,485
930,2,1,290,2,1,1,1,373
931,2,1,291,20,1,1,1,447
932,2,1,292,32,1,1,1,524
933,2,1,293,20,1,1,1,380
934,2,1,294,32,0,0,1,794
935,2,1,295,32,0,0,1,392
936,2,1,296,32,0,0,1,394
937,2,1,297,2,0,0,1,410
938,2,1,298,5,1,1,1,405
939,2,1,299,2,0,0,1,382
940,2,1,300,10,0,0,1,406
941,2,1,301,5,0,0,1,330
942,2,1,302,32,1,1,1,461
943,2,1,303,20,0,0,1,488
944,2,1,304,10,0,0,1,368
945,2,1,305,5,0,0,1,413
946,2,1,306,5,0,0,1,459
947,2,1,307,1,1,1,1,346
948,2,1,308,20,1,1,1,462
949,2,1,309,1,1,1,1,359
950,2,1,310,5,0,0,1,534
951,2,1,311,32,1,1,1,463
952,2,1,312,20,0,0,1,733
953,2,1,313,20,1,1,1,531
954,2,1,314,2,0,0,1,648
955,2,1,315,5,1,1,1,397
956,2,1,316,20,1,1,1,491
957,2,1,317,5,1,1,1,448
958,2,1,318,20,0,0,1,402
959,2,1,319,20,0,0,1,607
960,2,1,320,10,1,1,1,467
961,2,1,321,20,0,0,1,900
962,2,1,322,32,1,1,1,518
963,2,1,323,20,0,0,1,351
964,2,1,324,20,1,1,1,325
965,2,1,325,1,0,0,1,344
966,2,1,326,5,0,0,0,394
967,2,1,327,32,1,1,1,664
968,2,1,328,2,0,0,1,365
969,2,1,329,20,1,1,1,487
970,2,1,330,5,1,1,1,440
971,2,1,331,32,0,0,1,402
972,2,1,332,32,1,1,1,1789
973,2,1,333,1,0,0,1,524
974,2,1,334,2,1,1,1,529
975,2,1,335,1,0,0,1,356
976,2,1,336,1,0,0,1,583
977,2,1,337,5,1,1,1,565
978,2,1,338,2,1,1,1,538
979,2,1,339,10,0,0,1,479
980,2,1,340,5,0,0,1,683
981,2,1,341,20,0,0,1,543
982,2,1,342,2,1,1,1,774
983,2,1,343,10,0,0,1,456
984,2,1,344,20,0,0,1,534
985,2,1,345,10,1,1,1,470
986,2,1,346,32,0,0,1,631
987,2,1,347,20,0,0,1,428
988,2,1,348,5,0,0,1,653
989,2,1,349,1,0,0,1,398
990,2,1,350,10,1,1,1,406
991,2,1,351,10,1,1,1,380
992,2,1,352,32,0,0,1,483
993,2,1,353,1,0,0,1,486
994,2,1,354,10,1,1,1,477
995,2,1,355,10,1,1,1,723
996,2,1,356,32,1,1,1,369
997,2,1,357,10,0,0,1,493
998,2,1,358,2,1,1,1,341
999,2,1,359,5,1,1,1,625
1000,2,1,360,32,0,0,1,524
1001,2,1,361,20,1,1,1,444
1002,2,1,362,10,1,1,1,317
1003,2,1,363,5,0,0,1,568
1004,2,1,364,32,0,0,1,448
1005,2,1,365,10,0,0,1,312
1006,2,1,366,20,1,1,1,451
1007,2,1,367,32,0,0,1,381
1008,2,1,368,20,1,1,1,417
1009,2,1,369,10,0,0,1,361
1010,2,1,370,20,0,0,1,527
1011,2,1,371,1,0,0,1,346
1012,2,1,372,5,1,1,1,393
1013,2,1,373,5,0,0,1,624
1014,2,1,374,2,0,0,1,330
1015,2,1,375,5,1,1,1,416
1016,2,1,376,5,1,1,1,472
1017,2,1,377,32,0,0,1,367
1018,2,1,378,32,0,0,1,331
1019,2,1,379,1,0,0,1,304
1020,2,1,380,5,0,0,1,380
1021,2,1,381,2,1,1,1,392
1022,2,1,382,5,0,0,1,483
1023,2,1,383,20,1,1,1,323
1024,2,1,384,5,1,1,1,324
1025,2,1,385,5,0,0,1,325
1026,2,1,386,10,1,1,0,695
1027,2,1,387,2,0,0,1,455
1028,2,1,388,5,1,1,1,507
1029,2,1,389,5,0,0,1,445
1030,2,1,390,20,0,0,1,909
1031,2,1,391,20,0,0,1,345
1032,2,1,392,2,0,0,1,501
1033,2,1,393,10,0,0,1,373
1034,2,1,394,10,0,0,1,574
1035,2,1,395,10,1,1,1,538
1036,2,1,396,20,0,0,1,463
1037,2,1,397,10,1,1,1,426
1038,2,1,398,5,0,0,1,376
1039,2,1,399,10,0,0,1,399
1040,2,1,400,1,1,1,1,420
1041,2,1,401,5,0,0,1,925
1042,2,1,402,20,0,0,1,458
1043,2,1,403,10,1,1,1,469
1044,2,1,404,20,1,1,1,468
1045,2,1,405,2,0,0,1,399
1046,2,1,406,10,1,1,1,417
1047,2,1,407,10,0,0,1,502
1048,2,1,408,10,0,0,1,354
1049,2,1,409,5,0,0,1,542
1050,2,1,410,32,0,0,1,559
1051,2,1,411,2,0,0,1,463
1052,2,1,412,20,1,1,1,537
1053,2,1,413,20,0,0,1,376
1054,2,1,414,32,1,1,1,782
1055,2,1,415,32,1,1,1,1026
1056,2,1,416,20,1,1,1,621
1057,2,1,417,32,1,1,1,391
1058,2,1,418,5,0,0,1,377
1059,2,1,419,2,1,1,1,459
1060,2,1,420,10,0,0,1,454
1061,2,1,421,10,0,0,1,629
1062,2,1,422,5,0,0,1,372
1063,2,1,423,20,1,1,1,477
1064,2,1,424,10,0,0,1,346
1065,2,1,425,32,0,0,1,348
1066,2,1,426,2,1,1,1,441
1067,2,1,427,20,1,1,1,413
1068,2,1,428,20,1,1,1,371
1069,2,1,429,5,0,0,1,413
1070,2,1,430,2,0,0,1,479
1071,2,1,431,32,1,1,1,446
1072,2,1,432,10,1,1,1,361
1073,2,1,433,1,1,1,1,358
1074,2,1,434,10,1,1,1,443
1075,2,1,435,32,0,0,1,356
1076,2,1,436,2,1,1,1,432
1077,2,1,437,32,1,1,1,388
1078,2,1,438,32,0,0,1,465
1079,2,1,439,32,0,0,1,414
1080,2,1,440,20,0,0,1,514
1081,2,1,441,20,1,1,1,519
1082,2,1,442,5,1,1,1,414
1083,2,1,443,2,0,0,1,478
1084,2,1,444,2,1,1,1,386
1085,2,1,445,2,0,0,1,527
1086,2,1,446,32,1,1,1,522
1087,2,1,447,2,0,0,1,472
1088,2,1,448,32,0,0,1,471
1089,2,1,449,10,1,1,1,443
1090,2,1,450,10,0,0,1,447
1091,2,1,451,10,0,0,1,359
1092,2,1,452,32,0,0,1,426
1093,2,1,453,20,0,0,1,498
1094,2,1,454,5,0,0,1,335
1095,2,1,455,20,0,0,0,401
1096,2,1,456,10,1,1,1,643
1097,2,1,457,32,1,1,1,425
1098,2,1,458,5,0,0,1,725
1099,2,1,459,10,1,1,1,514
1100,2,1,460,2,0,0,1,402
1101,2,1,461,5,0,0,1,427
1102,2,1,462,2,0,0,1,409
1103,2,1,463,32,0,0,1,391
1104,2,1,464,2,0,0,1,355
1105,2,1,465,32,1,1,1,426
1106,2,1,466,2,1,1,1,380
1107,2,1,467,5,1,1,1,453
1108,2,1,468,2,0,0,1,434
1109,2,1,469,10,1,1,1,553
1110,2,1,470,2,1,1,1,354
1111,2,1,471,10,0,0,1,708
1112,2,1,472,32,1,1,1,425
1113,2,1,473,1,1,1,1,448
1114,2,1,474,10,1,1,1,408
1115,2,1,475,20,1,1,1,378
1116,2,1,476,20,1,1,1,486
1117,2,1,477,32,1,1,1,755
1118,2,1,478,1,0,0,1,372
1119,2,1,479,2,0,0,1,445
1120,2,1,480,20,1,1,1,525
1121,2,1,481,5,1,1,1,621
1122,2,1,482,20,0,0,1,565
1123,2,1,483,10,0,0,1,422
1124,2,1,484,10,0,0,1,511
1125,2,1,485,20,0,0,1,517
1126,2,1,486,5,0,0,1,361
1127,2,1,487,10,0,0,1,398
1128,2,1,488,10,0,0,1,424
1129,2,1,489,5,1,1,0,545
1130,2,1,490,10,0,0,1,513
1131,2,1,491,32,0,0,1,480
1132,2,1,492,2,1,1,1,425
1133,2,1,493,20,0,0,1,604
1134,2,1,494,2,0,0,1,577
1135,2,1,495,1,0,0,1,412
1136,2,1,496,20,1,1,1,555
1137,2,1,497,2,1,1,1,703
1138,2,1,498,32,1,1,1,504
1139,2,1,499,5,0,0,1,577
1140,2,1,500,32,1,1,1,546
1141,2,1,501,5,0,0,1,369
1142,2,1,502,32,0,0,1,368
1143,2,1,503,32,0,0,1,495
1144,2,1,504,5,0,0,1,438
1145,2,1,505,32,1,1,1,460
1146,2,1,506,2,0,0,1,372
1147,2,1,507,10,0,0,1,376
1148,2,1,508,1,1,1,1,436
1149,2,1,509,5,0,0,1,386
1150,2,1,510,10,0,0,1,413
1151,2,1,511,20,0,0,1,495
1152,2,1,512,5,1,1,1,471
1153,2,1,513,32,1,1,1,505
1154,2,1,514,32,1,1,1,893
1155,2,1,515,5,0,0,1,384
1156,2,1,516,5,0,0,1,371
1157,2,1,517,5,0,0,1,594
1158,2,1,518,2,1,1,1,531
1159,2,1,519,1,0,0,1,525
1160,2,1,520,20,1,1,1,421
1161,2,1,521,5,1,1,1,611
1162,2,1,522,20,0,0,1,579
1163,2,1,523,32,1,1,1,385
1164,2,1,524,32,1,1,1,472
1165,2,1,525,32,1,1,1,519
1166,2,1,526,2,1,1,1,353
1167,2,1,527,5,1,1,1,534
1168,2,1,528,2,0,0,1,420
1169,2,1,529,2,0,0,1,349
1170,2,1,530,10,0,0,1,461
1171,2,1,531,2,0,0,1,373
1172,2,1,532,5,1,1,1,403
1173,2,1,533,20,1,1,1,573
1174,2,1,534,32,1,1,1,445
1175,2,1,535,20,1,1,1,702
1176,2,1,536,10,0,0,1,392
1177,2,1,537,10,1,1,1,554
1178,2,1,538,2,0,0,1,684
1179,2,1,539,32,1,1,1,523
1180,2,1,540,20,1,1,1,503
1181,2,1,541,5,0,0,1,575
1182,2,1,542,2,1,1,1,475
1183,2,1,543,20,0,0,1,444
1184,2,1,544,2,1,1,1,522
1185,2,1,545,5,0,0,1,452
1186,2,1,546,32,1,1,1,482
1187,2,1,547,10,0,0,1,371
1188,2,1,548,2,0,0,1,459
1189,2,1,549,5,0,0,1,335
1190,2,1,550,2,1,1,1,492
1191,2,1,551,2,0,0,1,364
1192,2,1,552,10,1,1,1,569
1193,2,1,553,2,0,0,1,433
1194,2,1,554,10,0,0,1,560
1195,2,1,555,32,0,0,1,392
1196,2,1,556,20,0,0,1,483
1197,2,1,557,5,0,0,1,495
1198,2,1,558,2,0,0,1,444
1199,2,1,559,20,0,0,1,721
1200,2,1,560,5,0,0,1,618
1201,2,1,561,20,1,1,1,575
1202,2,1,562,10,0,0,1,829
1203,2,1,563,32,1,1,1,958
1204,2,1,564,5,0,0,0,395
1205,2,1,565,32,0,0,1,591
1206,2,1,566,10,1,1,1,631
1207,2,1,567,2,0,0,1,374
1208,2,1,568,32,1,1,1,446
1209,2,1,569,1,1,1,1,504
1210,2,1,570,10,1,1,1,539
1211,2,1,571,2,1,1,1,413
1212,2,1,572,2,1,1,1,339
1213,2,1,573,5,1,1,1,469
1214,2,1,574,2,0,0,1,392
1215,2,1,575,5,1,1,1,537
1216,2,1,576,20,0,0,1,356
1217,2,1,577,10,1,1,1,379
1218,2,1,578,5,1,1,1,393
1219,2,1,579,5,1,1,1,409
1220,2,1,580,32,1,1,1,451
1221,2,1,581,32,0,0,1,605
1222,2,1,582,32,0,0,1,618
1223,2,1,583,5,1,1,1,402
1224,2,1,584,5,1,1,1,368
1225,2,1,585,5,0,0,1,483
1226,2,1,586,20,1,1,1,443
1227,2,1,587,1,1,1,1,425
1228,2,1,588,10,1,1,1,606
1229,2,1,589,2,1,1,1,755
1230,2,1,590,20,1,1,1,507
1231,2,1,591,20,0,0,1,495
1232,2,1,592,10,1,1,1,436
1233,2,1,593,1,0,0,1,464
1234,2,1,594,20,0,0,1,431
1235,2,1,595,5,1,1,1,747
1236,2,1,596,1,1,1,1,421
1237,2,1,597,20,0,0,1,374
1238,2,1,598,10,0,0,1,383
1239,2,1,599,32,0,0,1,443
1240,2,1,600,2,0,0,1,415
1241,2,1,601,10,1,1,1,479
1242,2,1,602,10,0,0,1,390
1243,2,1,603,10,0,0,1,333
1244,2,1,604,1,0,0,1,465
1245,2,1,605,20,1,1,1,520
1246,2,1,606,32,0,0,1,547
1247,2,1,607,10,0,0,1,396
1248,2,1,608,5,1,1,1,562
1249,2,1,609,10,1,1,1,344
1250,2,1,610,2,1,1,1,412
1251,2,1,611,2,1,1,1,355
1252,2,1,612,5,1,1,1,447
1253,2,1,613,20,1,1,1,389
1254,2,1,614,5,0,0,1,554
1255,2,1,615,2,0,0,1,460
1256,2,1,616,10,1,1,1,498
1257,2,1,617,10,1,1,1,427
1258,2,1,618,2,0,0,1,434
1259,2,1,619,20,1,1,1,695
1260,2,1,620,5,1,1,1,625
1261,2,1,621,2,1,1,1,377
1262,2,1,622,32,0,0,1,384
1263,2,1,623,10,0,0,1,355
1264,2,1,624,5,0,0,1,389
1265,2,1,625,10,0,0,1,472
1266,2,1,626,20,1,1,1,598
1267,2,1,627,2,1,1,1,436
1268,2,1,628,20,0,0,1,509
1269,2,1,629,32,0,0,1,442
1270,2,1,630,10,0,0,1,403
1271,2,1,631,1,1,1,1,427
1272,2,1,632,2,1,1,1,492
1273,2,1,633,20,1,1,1,453
1274,2,1,634,2,0,0,1,425
1275,2,1,635,5,1,1,1,403
1276,2,1,636,20,0,0,1,413
1277,2,1,637,32,1,1,1,539
1278,2,1,638,32,0,0,1,473
1279,2,1,639,2,1,1,1,424
1280,2,1,640,5,0,0,1,463
1281,3,1,1,5,1,1,1,487
1282,3,1,2,2,1,1,1,447
1283,3,1,3,32,0,0,1,498
1284,3,1,4,5,0,0,1,551
1285,3,1,5,2,0,0,0,566
1286,3,1,6,20,0,0,1,1122
1287,3,1,7,2,0,0,1,512
1288,3,1,8,10,1,1,1,555
1289,3,1,9,5,1,1,1,519
1290,3,1,10,5,1,1,1,553
1291,3,1,11,20,1,1,1,596
1292,3,1,12,10,1,1,1,737
1293,3,1,13,1,0,0,1,472
1294,3,1,14,10,0,0,1,536
1295,3,1,15,5,1,1,1,564
1296,3,1,16,32,1,1,1,660
1297,3,1,17,5,1,1,1,547
1298,3,1,18,5,0,0,1,605
1299,3,1,19,32,0,0,1,602
1300,3,1,20,32,0,0,1,965
1301,3,1,21,10,1,1,1,501
1302,3,1,22,10,1,1,1,465
1303,3,1,23,1,1,1,1,500
1304,3,1,24,32,1,1,1,723
1305,3,1,25,5,1,1,1,423
1306,3,1,26,32,0,0,1,651
1307,3,1,27,32,1,1,1,496
1308,3,1,28,20,0,0,1,442
1309,3,1,29,20,1,1,1,463
1310,3,1,30,20,1,1,1,575
1311,3,1,31,32,0,0,1,589
1312,3,1,32,5,0,0,1,471
1313,3,1,33,10,1,1,1,470
1314,3,1,34,10,1,1,1,604
1315,3,1,35,20,1,1,1,532
1316,3,1,36,10,1,1,1,505
1317,3,1,37,20,0,0,1,492
1318,3,1,38,20,0,0,1,930
1319,3,1,39,32,0,0,1,495
1320,3,1,40,5,0,0,1,539
1321,3,1,41,1,1,1,0,561
1322,3,1,42,10,0,0,1,460
1323,3,1,43,20,1,1,1,631
1324,3,1,44,20,1,1,1,467
1325,3,1,45,10,0,0,1,435
1326,3,1,46,32,1,1,1,474
1327,3,1,47,2,1,1,1,432
1328,3,1,48,1,1,1,1,360
1329,3,1,49,2,0,0,1,462
1330,3,1,50,2,0,0,1,359
1331,3,1,51,10,0,0,1,463
1332,3,1,52,5,1,1,1,471
1333,3,1,53,20,1,1,1,592
1334,3,1,54,1,0,0,1,384
1335,3,1,55,1,1,1,1,374
1336,3,1,56,32,0,0,1,526
1337,3,1,57,20,0,0,1,551
1338,3,1,58,5,0,0,1,457
1339,3,1,59,5,1,1,1,412
1340,3,1,60,10,1,1,1,489
1341,3,1,61,5,1,1,1,426
1342,3,1,62,2,1,1,1,395
1343,3,1,63,5,0,0,1,375
1344,3,1,64,10,1,1,1,414
1345,3,1,65,32,0,0,1,400
1346,3,1,66,20,0,0,1,435
1347,3,1,67,5,0,0,0,378
1348,3,1,68,2,0,0,1,448
1349,3,1,69,20,0,0,1,395
1350,3,1,70,5,0,0,1,525
1351,3,1,71,2,0,0,1,338
1352,3,1,72,20,0,0,1,538
1353,3,1,73,20,0,0,1,482
1354,3,1,74,10,0,0,1,475
1355,3,1,75,10,0,0,1,863
1356,3,1,76,2,1,1,1,566
1357,3,1,77,2,0,0,1,559
1358,3,1,78,1,0,0,1,450
1359,3,1,79,5,1,1,1,659
1360,3,1,80,20,1,1,1,685
1361,3,1,81,32,0,0,1,503
1362,3,1,82,10,1,1,1,531
1363,3,1,83,5,0,0,1,557
1364,3,1,84,20,1,1,1,507
1365,3,1,85,20,0,0,1,540
1366,3,1,86,32,1,1,1,575
1367,3,1,87,5,1,1,1,470
1368,3,1,88,2,0,0,1,422
1369,3,1,89,10,0,0,1,460
1370,3,1,90,2,1,1,1,586
1371,3,1,91,20,0,0,1,498
1372,3,1,92,20,1,1,1,395
1373,3,1,93,2,0,0,1,419
1374,3,1,94,5,1,1,1,435
1375,3,1,95,10,1,1,1,417
1376,3,1,96,10,0,0,1,406
1377,3,1,97,32,1,1,1,464
1378,3,1,98,20,1,1,1,585
1379,3,1,99,2,0,0,1,483
1380,3,1,100,5,0,0,1,614
1381,3,1,101,5,1,1,1,433
1382,3,1,102,20,0,0,1,486
1383,3,1,103,20,1,1,1,566
1384,3,1,104,20,0,0,1,517
1385,3,1,105,2,0,0,1,580
1386,3,1,106,2,0,0,1,397
1387,3,1,107,20,1,1,1,489
1388,3,1,108,1,1,1,1,423
1389,3,1,109,20,0,0,1,442
1390,3,1,110,32,0,0,1,485
1391,3,1,111,20,1,1,1,542
1392,3,1,112,2,1,1,0,438
1393,3,1,113,32,1,1,1,567
1394,3,1,114,5,0,0,1,474
1395,3,1,115,5,0,0,1,448
1396,3,1,116,1,1,1,1,497
1397,3,1,117,2,1,1,1,403
1398,3,1,118,2,1,1,1,510
1399,3,1,119,32,1,1,1,444
1400,3,1,120,2,1,1,1,444
1401,3,1,121,32,0,0,1,503
1402,3,1,122,32,1,1,1,547
1403,3,1,123,20,0,0,1,901
1404,3,1,124,10,1,1,1,720
1405,3,1,125,32,1,1,1,527
1406,3,1,126,32,1,1,1,508
1407,3,1,127,20,0,0,1,473
1408,3,1,128,10,0,0,1,580
1409,3,1,129,20,1,1,1,535
1410,3,1,130,5,0,0,1,532
1411,3,1,131,10,1,1,1,657
1412,3,1,132,20,1,1,1,429
1413,3,1,133,2,0,0,1,400
1414,3,1,134,20,0,0,1,559
1415,3,1,135,10,1,1,1,463
1416,3,1,136,20,0,0,1,496
1417,3,1,137,32,1,1,1,487
1418,3,1,138,20,0,0,1,395
1419,3,1,139,20,0,0,1,634
1420,3,1,140,10,1,1,1,439
1421,3,1,141,20,0,0,1,412
1422,3,1,142,10,1,1,1,508
1423,3,1,143,20,1,1,1,442
1424,3,1,144,32,0,0,1,564
1425,3,1,145,32,1,1,1,514
1426,3,1,146,20,1,1,0,467
1427,3,1,147,20,0,0,1,516
1428,3,1,148,2,0,0,1,494
1429,3,1,149,5,1,1,1,446
1430,3,1,150,32,1,1,1,545
1431,3,1,151,5,0,0,1,437
1432,3,1,152,2,0,0,1,431
1433,3,1,153,2,0,0,1,393
1434,3,1,154,32,0,0,1,518
1435,3,1,155,10,1,1,1,567
1436,3,1,156,5,1,1,1,444
1437,3,1,157,32,1,1,1,567
1438,3,1,158,20,0,0,1,572
1439,3,1,159,2,1,1,1,624
1440,3,1,160,10,0,0,1,499
1441,3,1,161,2,1,1,1,538
1442,3,1,162,2,1,1,1,655
1443,3,1,163,2,1,1,1,496
1444,3,1,164,20,1,1,1,564
1445,3,1,165,5,0,0,1,393
1446,3,1,166,5,0,0,1,506
1447,3,1,167,1,1,1,1,445
1448,3,1,168,5,0,0,1,563
1449,3,1,169,10,0,0,1,460
1450,3,1,170,10,1,1,1,460
1451,3,1,171,2,1,1,1,465
1452,3,1,172,20,0,0,1,862
1453,3,1,173,5,0,0,1,537
1454,3,1,174,2,1,1,1,508
1455,3,1,175,20,0,0,1,455
1456,3,1,176,1,0,0,1,426
1457,3,1,177,32,0,0,1,457
1458,3,1,178,2,1,1,1,408
1459,3,1,179,32,0,0,1,444
1460,3,1,180,32,1,1,1,547
1461,3,1,181,32,1,1,1,618
1462,3,1,182,10,0,0,1,581
1463,3,1,183,2,1,1,1,402
1464,3,1,184,10,0,0,1,475
1465,3,1,185,20,1,1,1,423
1466,3,1,186,5,1,1,1,436
1467,3,1,187,5,0,0,1,440
1468,3,1,188,10,0,0,1,559
1469,3,1,189,2,1,1,1,469
1470,3,1,190,1,0,0,1,420
1471,3,1,191,20,1,1,1,427
1472,3,1,192,2,0,0,1,378
1473,3,1,193,20,1,1,1,570
1474,3,1,194,20,1,1,1,610
1475,3,1,195,32,0,0,1,603
1476,3,1,196,32,1,1,1,668
1477,3,1,197,2,0,0,1,495
1478,3,1,198,2,1,1,1,471
1479,3,1,199,1,0,0,1,603
1480,3,1,200,32,0,0,1,524
1481,3,1,201,1,0,0,1,497
1482,3,1,202,32,1,1,1,457
1483,3,1,203,2,0,0,1,532
1484,3,1,204,1,0,0,1,401
1485,3,1,205,32,1,1,1,457
1486,3,1,206,10,0,0,1,462
1487,3,1,207,5,1,1,1,484
1488,3,1,208,32,0,0,1,551
1489,3,1,209,32,1,1,1,991
1490,3,1,210,5,0,0,1,535
1491,3,1,211,5,1,1,1,494
1492,3,1,212,5,0,0,1,428
1493,3,1,213,5,0,0,1,598
1494,3,1,214,5,0,0,1,569
1495,3,1,215,5,0,0,1,379
1496,3,1,216,2,1,1,1,392
1497,3,1,217,10,1,1,1,483
1498,3,1,218,32,0,0,1,541
1499,3,1,219,5,0,0,1,657
1500,3,1,220,5,0,0,1,384
1501,3,1,221,2,0,0,1,391
1502,3,1,222,1,0,0,1,426
1503,3,1,223,32,1,1,1,440
1504,3,1,224,2,0,0,1,438
1505,3,1,225,32,0,0,1,461
1506,3,1,226,5,1,1,1,417
1507,3,1,227,2,0,0,1,386
1508,3,1,228,32,0,0,1,933
1509,3,1,229,32,0,0,1,478
1510,3,1,230,20,0,0,1,489
1511,3,1,231,20,0,0,1,440
1512,3,1,232,5,0,0,1,528
1513,3,1,233,10,0,0,1,516
1514,3,1,234,32,0,0,1,455
1515,3,1,235,2,1,1,1,535
1516,3,1,236,5,0,0,1,405
1517,3,1,237,20,0,0,1,548
1518,3,1,238,5,1,1,1,450
1519,3,1,239,20,0,0,1,509
1520,3,1,240,10,1,1,1,479
1521,3,1,241,1,1,1,1,400
1522,3,1,242,5,0,0,1,414
1523,3,1,243,10,1,1,1,478
1524,3,1,244,10,1,1,1,450
1525,3,1,245,20,1,1,1,482
1526,3,1,246,5,0,0,1,385
1527,3,1,247,2,1,1,1,460
1528,3,1,248,1,0,0,1,411
1529,3,1,249,10,0,0,1,388
1530,3,1,250,2,1,1,1,519
1531,3,1,251,2,1,1,1,379
1532,3,1,252,10,0,0,1,378
1533,3,1,253,10,0,0,1,565
1534,3,1,254,5,0,0,1,388
1535,3,1,255,10,1,1,1,557
1536,3,1,256,32,1,1,1,708
1537,3,1,257,32,1,1,1,480
1538,3,1,258,32,0,0,1,711
1539,3,1,259,10,1,1,1,447
1540,3,1,260,2,0,0,1,437
1541,3,1,261,32,1,1,1,470
1542,3,1,262,5,1,1,1,720
1543,3,1,263,10,1,1,1,474
1544,3,1,264,20,1,1,1,533
1545,3,1,265,20,0,0,1,425
1546,3,1,266,32,0,0,1,604
1547,3,1,267,2,1,1,1,696
1548,3,1,268,10,0,0,1,471
1549,3,1,269,2,1,1,1,408
1550,3,1,270,5,1,1,1,404
1551,3,1,271,1,1,1,1,389
1552,3,1,272,10,0,0,1,503
1553,3,1,273,32,1,1,1,438
1554,3,1,274,32,1,1,1,428
1555,3,1,275,5,0,0,1,482
1556,3,1,276,32,0,0,1,450
1557,3,1,277,5,1,1,1,578
1558,3,1,278,5,1,1,1,586
1559,3,1,279,20,1,1,1,511
1560,3,1,280,2,0,0,1,394
1561,3,1,281,2,1,1,1,558
1562,3,1,282,2,1,1,1,406
1563,3,1,283,20,1,1,1,497
1564,3,1,284,10,1,1,1,439
1565,3,1,285,20,1,1,1,430
1566,3,1,286,2,1,1,1,537
1567,3,1,287,5,0,0,1,552
1568,3,1,288,10,1,1,1,423
1569,3,1,289,2,0,0,1,449
1570,3,1,290,10,0,0,1,516
1571,3,1,291,32,1,1,1,1190
1572,3,1,292,20,0,0,1,494
1573,3,1,293,10,0,0,1,451
1574,3,1,294,5,1,1,1,622
1575,3,1,295,32,0,0,1,796
1576,3,1,296,5,1,1,1,383
1577,3,1,297,20,1,1,1,568
1578,3,1,298,20,0,0,1,391
1579,3,1,299,10,1,1,1,522
1580,3,1,300,2,1,1,1,455
1581,3,1,301,32,0,0,1,490
1582,3,1,302,10,1,1,1,425
1583,3,1,303,32,0,0,1,379
1584,3,1,304,20,1,1,1,497
1585,3,1,305,10,1,1,1,745
1586,3,1,306,32,1,1,1,526
1587,3,1,307,10,0,0,1,428
1588,3,1,308,10,0,0,1,585
1589,3,1,309,10,1,1,1,471
1590,3,1,310,2,0,0,1,426
1591,3,1,311,5,0,0,1,533
1592,3,1,312,2,0,0,1,511
1593,3,1,313,20,0,0,1,564
1594,3,1,314,32,1,1,1,461
1595,3,1,315,10,0,0,1,418
1596,3,1,316,10,1,1,1,449
1597,3,1,317,10,0,0,1,638
1598,3,1,318,10,1,1,1,433
1599,3,1,319,32,0,0,1,535
1600,3,1,320,20,0,0,1,514
1601,3,1,321,1,0,0,1,395
1602,3,1,322,2,1,1,1,402
1603,3,1,323,20,0,0,1,348
1604,3,1,324,32,0,0,1,423
1605,3,1,325,10,0,0,1,402
1606,3,1,326,5,1,1,1,499
1607,3,1,327,32,0,0,1,703
1608,3,1,328,32,0,0,1,396
1609,3,1,329,10,1,1,1,473
1610,3,1,330,2,1,1,1,466
1611,3,1,331,20,1,1,1,424
1612,3,1,332,2,1,1,1,384
1613,3,1,333,20,0,0,1,464
1614,3,1,334,5,0,0,1,531
1615,3,1,335,5,1,1,1,542
1616,3,1,336,32,0,0,1,613
1617,3,1,337,32,1,1,1,604
1618,3,1,338,2,0,0,1,421
1619,3,1,339,5,1,1,1,412
1620,3,1,340,5,0,0,1,542
1621,3,1,341,20,1,1,1,692
1622,3,1,342,5,1,1,1,395
1623,3,1,343,20,0,0,1,436
1624,3,1,344,2,1,1,1,365
1625,3,1,345,32,0,0,1,509
1626,3,1,346,1,1,1,1,413
1627,3,1,347,10,0,0,1,610
1628,3,1,348,5,0,0,1,426
1629,3,1,349,2,0,0,1,371
1630,3,1,350,5,0,0,1,381
1631,3,1,351,2,0,0,1,552
1632,3,1,352,5,1,1,1,429
1633,3,1,353,2,1,1,1,521
1634,3,1,354,20,1,1,1,429
1635,3,1,355,20,1,1,1,450
1636,3,1,356,2,1,1,1,407
1637,3,1,357,5,1,1,1,520
1638,3,1,358,10,0,0,1,525
1639,3,1,359,20,1,1,1,493
1640,3,1,360,20,0,0,1,483
1641,3,1,361,20,1,1,1,656
1642,3,1,362,32,1,1,1,967
1643,3,1,363,20,0,0,1,530
1644,3,1,364,32,0,0,1,416
1645,3,1,365,5,0,0,1,475
1646,3,1,366,5,1,1,1,609
1647,3,1,367,32,0,0,1,433
1648,3,1,368,32,0,0,1,454
1649,3,1,369,20,0,0,1,443
1650,3,1,370,32,0,0,1,421
1651,3,1,371,10,1,1,1,411
1652,3,1,372,32,1,1,1,454
1653,3,1,373,20,1,1,1,611
1654,3,1,374,1,0,0,1,370
1655,3,1,375,32,1,1,1,498
1656,3,1,376,10,0,0,1,504
1657,3,1,377,5,1,1,1,385
1658,3,1,378,5,1,1,1,432
1659,3,1,379,2,1,1,1,396
1660,3,1,380,10,1,1,1,497
1661,3,1,381,20,1,1,1,542
1662,3,1,382,20,0,0,1,464
1663,3,1,383,10,0,0,1,468
1664,3,1,384,32,1,1,1,519
1665,3,1,385,20,0,0,1,566
1666,3,1,386,20,1,1,1,387
1667,3,1,387,10,0,0,1,381
1668,3,1,388,32,1,1,1,598
1669,3,1,389,20,1,1,1,833
1670,3,1,390,32,0,0,1,447
1671,3,1,391,2,1,1,1,422
1672,3,1,392,2,1,1,0,434
1673,3,1,393,2,0,0,1,600
1674,3,1,394,1,1,1,1,432
1675,3,1,395,10,0,0,1,464
1676,3,1,396,1,0,0,1,404
1677,3,1,397,20,1,1,1,639
1678,3,1,398,10,0,0,1,399
1679,3,1,399,10,0,0,1,446
1680,3,1,400,5,0,0,1,399
1681,3,1,401,5,1,1,1,454
1682,3,1,402,5,0,0,1,561
1683,3,1,403,5,1,1,1,503
1684,3,1,404,2,0,0,1,456
1685,3,1,405,20,1,1,1,445
1686,3,1,406,32,0,0,1,398
1687,3,1,407,2,1,1,1,399
1688,3,1,408,32,0,0,1,615
1689,3,1,409,32,0,0,1,423
1690,3,1,410,10,0,0,1,404
1691,3,1,411,32,0,0,1,522
1692,3,1,412,2,1,1,1,467
1693,3,1,413,20,0,0,1,492
1694,3,1,414,20,0,0,1,449
1695,3,1,415,32,0,0,1,429
1696,3,1,416,5,0,0,1,495
1697,3,1,417,20,1,1,1,501
1698,3,1,418,2,0,0,1,476
1699,3,1,419,32,1,1,1,458
1700,3,1,420,2,1,1,1,606
1701,3,1,421,5,1,1,1,476
1702,3,1,422,32,0,0,1,512
1703,3,1,423,1,1,1,1,420
1704,3,1,424,32,1,1,1,561
1705,3,1,425,5,1,1,1,493
1706,3,1,426,32,1,1,1,474
1707,3,1,427,2,0,0,1,882
1708,3,1,428,20,0,0,1,550
1709,3,1,429,5,1,1,1,479
1710,3,1,430,5,1,1,1,557
1711,3,1,431,20,0,0,1,474
1712,3,1,432,10,0,0,1,406
1713,3,1,433,32,1,1,1,454
1714,3,1,434,5,1,1,1,387
1715,3,1,435,2,0,0,1,371
1716,3,1,436,20,0,0,1,797
1717,3,1,437,10,1,1,1,402
1718,3,1,438,10,0,0,1,665
1719,3,1,439,2,1,1,1,408
1720,3,1,440,10,0,0,1,549
1721,3,1,441,5,1,1,1,461
1722,3,1,442,2,0,0,1,375
1723,3,1,443,32,1,1,1,809
1724,3,1,444,20,0,0,1,457
1725,3,1,445,20,0,0,1,418
1726,3,1,446,10,1,1,1,385
1727,3,1,447,20,1,1,1,405
1728,3,1,448,20,1,1,1,457
1729,3,1,449,20,1,1,1,408
1730,3,1,450,20,0,0,1,668
1731,3,1,451,2,0,0,1,370
1732,3,1,452,10,1,1,1,433
1733,3,1,453,2,0,0,1,367
1734,3,1,454,2,1,1,1,403
1735,3,1,455,2,1,1,1,485
1736,3,1,456,2,1,1,1,488
1737,3,1,457,32,1,1,1,580
1738,3,1,458,5,1,1,1,450
1739,3,1,459,10,0,0,1,392
1740,3,1,460,20,1,1,1,422
1741,3,1,461,1,1,1,1,385
1742,3,1,462,5,0,0,1,463
1743,3,1,463,32,0,0,1,447
1744,3,1,464,2,0,0,1,372
1745,3,1,465,10,1,1,1,493
1746,3,1,466,2,0,0,1,426
1747,3,1,467,20,1,1,1,567
1748,3,1,468,5,0,0,1,422
1749,3,1,469,2,1,1,1,446
1750,3,1,470,2,1,1,1,505
1751,3,1,471,32,1,1,1,561
1752,3,1,472,5,0,0,1,537
1753,3,1,473,2,0,0,1,415
1754,3,1,474,1,0,0,1,378
1755,3,1,475,10,1,1,1,412
1756,3,1,476,32,1,1,1,627
1757,3,1,477,5,0,0,1,431
1758,3,1,478,10,0,0,1,512
1759,3,1,479,5,1,1,1,503
1760,3,1,480,5,1,1,1,417
1761,3,1,481,10,1,1,1,448
1762,3,1,482,32,1,1,1,450
1763,3,1,483,1,0,0,1,374
1764,3,1,484,5,1,1,1,401
1765,3,1,485,20,1,1,1,678
1766,3,1,486,1,1,1,1,397
1767,3,1,487,10,0,0,1,515
1768,3,1,488,20,1,1,1,463
1769,3,1,489,2,1,1,1,377
1770,3,1,490,2,0,0,1,435
1771,3,1,491,2,0,0,1,484
1772,3,1,492,32,1,1,1,507
1773,3,1,493,2,1,1,1,596
1774,3,1,494,10,0,0,1,442
1775,3,1,495,10,1,1,1,411
1776,3,1,496,5,0,0,1,364
1777,3,1,497,20,1,1,1,538
1778,3,1,498,5,0,0,1,411
1779,3,1,499,2,1,1,1,422
1780,3,1,500,32,1,1,1,521
1781,3,1,501,10,1,1,1,448
1782,3,1,502,10,0,0,1,403
1783,3,1,503,20,1,1,1,554
1784,3,1,504,5,0,0,1,686
1785,3,1,505,10,0,0,1,385
1786,3,1,506,10,1,1,1,387
1787,3,1,507,20,0,0,1,420
1788,3,1,508,10,1,1,1,423
1789,3,1,509,32,0,0,1,456
1790,3,1,510,20,0,0,1,501
1791,3,1,511,5,1,1,0,409
1792,3,1,512,32,1,1,1,470
1793,3,1,513,10,0,0,1,457
1794,3,1,514,32,0,0,1,738
1795,3,1,515,2,1,1,1,416
1796,3,1,516,2,1,1,1,391
1797,3,1,517,2,1,1,1,451
1798,3,1,518,32,1,1,1,533
1799,3,1,519,5,0,0,1,447
1800,3,1,520,10,0,0,1,421
1801,3,1,521,20,0,0,1,472
1802,3,1,522,2,1,1,1,435
1803,3,1,523,1,1,1,1,374
1804,3,1,524,2,0,0,1,553
1805,3,1,525,32,1,1,1,480
1806,3,1,526,5,0,0,1,388
1807,3,1,527,32,1,1,1,483
1808,3,1,528,10,0,0,1,619
1809,3,1,529,10,1,1,1,449
1810,3,1,530,10,0,0,1,365
1811,3,1,531,32,1,1,1,420
1812,3,1,532,2,1,1,1,378
1813,3,1,533,10,0,0,1,360
1814,3,1,534,32,0,0,1,421
1815,3,1,535,32,1,1,1,572
1816,3,1,536,2,1,1,1,415
1817,3,1,537,2,0,0,1,408
1818,3,1,538,1,1,1,1,371
1819,3,1,539,5,1,1,1,424
1820,3,1,540,5,1,1,1,462
1821,3,1,541,32,1,1,1,412
1822,3,1,542,10,1,1,1,431
1823,3,1,543,10,1,1,1,459
1824,3,1,544,5,0,0,1,540
1825,3,1,545,32,0,0,1,433
1826,3,1,546,2,0,0,1,403
1827,3,1,547,20,1,1,1,523
1828,3,1,548,2,1,1,1,401
1829,3,1,549,10,0,0,1,362
1830,3,1,550,20,1,1,1,385
1831,3,1,551,5,1,1,1,355
1832,3,1,552,5,0,0,1,382
1833,3,1,553,1,1,1,1,387
1834,3,1,554,32,1,1,1,514
1835,3,1,555,32,0,0,1,457
1836,3,1,556,5,0,0,1,501
1837,3,1,557,2,0,0,1,413
1838,3,1,558,32,0,0,1,483
1839,3,1,559,32,0,0,1,455
1840,3,1,560,1,0,0,1,426
1841,3,1,561,5,1,1,1,413
1842,3,1,562,10,0,0,1,682
1843,3,1,563,10,0,0,1,422
1844,3,1,564,5,1,1,1,403
1845,3,1,565,20,1,1,1,470
1846,3,1,566,20,1,1,1,551
1847,3,1,567,1,0,0,1,413
1848,3,1,568,5,1,1,1,488
1849,3,1,569,1,1,1,1,352
1850,3,1,570,10,0,0,1,419
1851,3,1,571,2,0,0,1,408
1852,3,1,572,2,1,1,1,431
1853,3,1,573,32,1,1,1,517
1854,3,1,574,5,0,0,1,487
1855,3,1,575,20,0,0,1,451
1856,3,1,576,20,0,0,1,427
1857,3,1,577,32,0,0,1,465
1858,3,1,578,32,1,1,1,840
1859,3,1,579,5,0,0,1,871
1860,3,1,580,20,1,1,1,517
1861,3,1,581,2,0,0,1,464
1862,3,1,582,10,1,1,1,376
1863,3,1,583,2,0,0,1,479
1864,3,1,584,5,0,0,1,520
1865,3,1,585,20,1,1,1,501
1866,3,1,586,10,1,1,1,669
1867,3,1,587,5,1,1,1,484
1868,3,1,588,32,1,1,1,872
1869,3,1,589,2,0,0,1,420
1870,3,1,590,10,0,0,1,452
1871,3,1,591,2,0,0,1,367
1872,3,1,592,20,0,0,1,431
1873,3,1,593,5,1,1,1,365
1874,3,1,594,32,0,0,1,348
1875,3,1,595,32,0,0,1,700
1876,3,1,596,20,0,0,1,464
1877,3,1,597,5,0,0,1,341
1878,3,1,598,10,1,1,1,407
1879,3,1,599,1,0,0,1,375
1880,3,1,600,1,0,0,1,434
1881,3,1,601,20,0,0,1,442
1882,3,1,602,10,1,1,1,582
1883,3,1,603,5,1,1,1,653
1884,3,1,604,2,0,0,1,500
1885,3,1,605,5,1,1,1,457
1886,3,1,606,5,1,1,1,404
1887,3,1,607,20,1,1,1,437
1888,3,1,608,20,1,1,1,379
1889,3,1,609,10,1,1,1,549
1890,3,1,610,32,1,1,1,451
1891,3,1,611,10,0,0,1,371
1892,3,1,612,32,0,0,1,402
1893,3,1,613,2,0,0,1,381
1894,3,1,614,2,1,1,1,413
1895,3,1,615,5,0,0,1,394
1896,3,1,616,10,0,0,1,548
1897,3,1,617,32,1,1,1,435
1898,3,1,618,20,0,0,1,413
1899,3,1,619,20,0,0,1,460
1900,3,1,620,1,0,0,1,368
1901,3,1,621,2,0,0,1,351
1902,3,1,622,5,0,0,1,341
1903,3,1,623,32,0,0,1,361
1904,3,1,624,10,1,1,1,486
1905,3,1,625,1,1,1,1,622
1906,3,1,626,10,1,1,1,415
1907,3,1,627,2,0,0,1,413
1908,3,1,628,10,1,1,1,402
1909,3,1,629,2,0,0,1,456
1910,3,1,630,2,0,0,1,445
1911,3,1,631,2,0,0,1,638
1912,3,1,632,2,0,0,1,474
1913,3,1,633,5,1,1,1,457
1914,3,1,634,32,0,0,1,468
1915,3,1,635,10,1,1,1,561
1916,3,1,636,10,0,0,1,382
1917,3,1,637,10,1,1,1,418
1918,3,1,638,10,0,0,1,761
1919,3,1,639,1,1,1,1,431
1920,3,1,640,10,1,1,1,469
1921,4,1,1,32,0,0,1,615
1922,4,1,2,5,1,1,1,602
1923,4,1,3,2,1,1,1,467
1924,4,1,4,2,1,1,1,640
1925,4,1,5,32,0,0,1,611
1926,4,1,6,10,1,1,1,499
1927,4,1,7,5,0,0,1,593
1928,4,1,8,32,1,1,1,645
1929,4,1,9,32,1,1,1,559
1930,4,1,10,5,0,0,1,463
1931,4,1,11,10,1,1,1,449
1932,4,1,12,10,1,1,1,414
1933,4,1,13,5,1,1,1,755
1934,4,1,14,20,1,1,1,637
1935,4,1,15,5,0,0,1,458
1936,4,1,16,20,0,0,1,782
1937,4,1,17,2,0,0,1,485
1938,4,1,18,10,0,0,1,510
1939,4,1,19,20,1,1,1,642
1940,4,1,20,10,1,1,1,525
1941,4,1,21,10,0,0,1,542
1942,4,1,22,10,0,0,1,583
1943,4,1,23,10,0,0,1,693
1944,4,1,24,20,0,0,1,543
1945,4,1,25,20,1,1,1,576
1946,4,1,26,1,0,0,1,422
1947,4,1,27,32,1,1,1,1071
1948,4,1,28,1,1,1,1,523
1949,4,1,29,2,0,0,1,579
1950,4,1,30,2,1,1,1,440
1951,4,1,31,20,0,0,1,404
1952,4,1,32,20,1,1,1,614
1953,4,1,33,10,1,1,1,690
1954,4,1,34,32,0,0,1,571
1955,4,1,35,32,0,0,1,487
1956,4,1,36,10,1,1,1,415
1957,4,1,37,20,1,1,1,531
1958,4,1,38,10,1,1,1,511
1959,4,1,39,1,1,1,1,477
1960,4,1,40,2,1,1,1,413
1961,4,1,41,2,0,0,1,642
1962,4,1,42,5,0,0,0,452
1963,4,1,43,2,1,1,1,514
1964,4,1,44,10,0,0,1,530
1965,4,1,45,2,0,0,1,555
1966,4,1,46,20,0,0,1,504
1967,4,1,47,20,1,1,1,600
1968,4,1,48,20,0,0,1,583
1969,4,1,49,5,0,0,1,409
1970,4,1,50,20,0,0,1,542
1971,4,1,51,20,1,1,1,499
1972,4,1,52,32,1,1,1,565
1973,4,1,53,5,0,0,1,459
1974,4,1,54,5,1,1,1,444
1975,4,1,55,10,0,0,1,447
1976,4,1,56,1,1,1,1,377
1977,4,1,57,32,1,1,1,834
1978,4,1,58,5,1,1,1,543
1979,4,1,59,20,1,1,1,537
1980,4,1,60,20,0,0,0,480
1981,4,1,61,2,1,1,1,536
1982,4,1,62,5,0,0,1,464
1983,4,1,63,5,1,1,1,577
1984,4,1,64,2,0,0,1,457
1985,4,1,65,20,0,0,1,581
1986,4,1,66,10,1,1,1,486
1987,4,1,67,2,1,1,1,415
1988,4,1,68,2,0,0,1,552
1989,4,1,69,10,1,1,1,534
1990,4,1,70,5,0,0,1,529
1991,4,1,71,20,0,0,0,463
1992,4,1,72,2,1,1,1,632
1993,4,1,73,20,0,0,1,486
1994,4,1,74,32,1,1,1,756
1995,4,1,75,1,1,1,1,513
1996,4,1,76,32,0,0,1,489
1997,4,1,77,5,1,1,1,572
1998,4,1,78,2,0,0,1,587
1999,4,1,79,2,1,1,1,519
2000,4,1,80,10,0,0,1,428
2001,4,1,81,2,0,0,1,604
2002,4,1,82,2,0,0,1,524
2003,4,1,83,32,1,1,1,524
2004,4,1,84,5,0,0,1,454
2005,4,1,85,20,1,1,1,521
2006,4,1,86,2,0,0,1,453
2007,4,1,87,32,1,1,1,620
2008,4,1,88,32,0,0,1,482
2009,4,1,89,5,1,1,1,457
2010,4,1,90,20,0,0,1,486
2011,4,1,91,20,1,1,1,694
2012,4,1,92,32,0,0,1,554
2013,4,1,93,20,0,0,1,509
2014,4,1,94,1,0,0,1,403
2015,4,1,95,32,0,0,1,420
2016,4,1,96,20,1,1,1,408
2017,4,1,97,1,0,0,1,532
2018,4,1,98,5,0,0,1,417
2019,4,1,99,10,0,0,1,533
2020,4,1,100,20,1,1,1,546
2021,4,1,101,32,0,0,1,436
2022,4,1,102,5,0,0,0,394
2023,4,1,103,2,1,1,1,431
2024,4,1,104,5,0,0,1,693
2025,4,1,105,20,1,1,1,443
2026,4,1,106,20,1,1,1,546
2027,4,1,107,2,1,1,1,432
2028,4,1,108,1,1,1,1,498
2029,4,1,109,5,1,1,1,780
2030,4,1,110,1,1,1,1,464
2031,4,1,111,10,1,1,1,578
2032,4,1,112,2,0,0,1,559
2033,4,1,113,20,0,0,1,554
2034,4,1,114,2,0,0,1,468
2035,4,1,115,20,1,1,1,486
2036,4,1,116,10,1,1,1,454
2037,4,1,117,2,1,1,1,535
2038,4,1,118,32,0,0,1,578
2039,4,1,119,5,0,0,1,413
2040,4,1,120,2,1,1,1,553
2041,4,1,121,2,0,0,1,784
2042,4,1,122,20,1,1,1,608
2043,4,1,123,20,0,0,1,792
2044,4,1,124,2,0,0,1,433
2045,4,1,125,20,0,0,1,552
2046,4,1,126,10,1,1,1,381
2047,4,1,127,1,1,1,1,448
2048,4,1,128,32,1,1,1,543
2049,4,1,129,2,0,0,1,829
2050,4,1,130,32,0,0,1,562
2051,4,1,131,10,1,1,1,576
2052,4,1,132,2,0,0,1,365
2053,4,1,133,5,1,1,0,416
2054,4,1,134,20,0,0,1,637
2055,4,1,135,20,1,1,1,518
2056,4,1,136,5,0,0,1,459
2057,4,1,137,2,0,0,1,381
2058,4,1,138,32,1,1,1,608
2059,4,1,139,20,0,0,1,605
2060,4,1,140,32,0,0,1,642
2061,4,1,141,10,0,0,1,579
2062,4,1,142,1,0,0,1,421
2063,4,1,143,20,0,0,1,464
2064,4,1,144,2,0,0,1,408
2065,4,1,145,10,0,0,0,417
2066,4,1,146,1,1,1,1,415
2067,4,1,147,20,0,0,1,609
2068,4,1,148,10,1,1,1,539
2069,4,1,149,5,0,0,1,582
2070,4,1,150,32,1,1,1,472
2071,4,1,151,10,1,1,1,675
2072,4,1,152,32,1,1,1,647
2073,4,1,153,2,1,1,1,444
2074,4,1,154,2,1,1,1,427
2075,4,1,155,5,0,0,1,508
2076,4,1,156,5,0,0,1,402
2077,4,1,157,20,1,1,1,618
2078,4,1,158,5,0,0,1,523
2079,4,1,159,5,1,1,1,572
2080,4,1,160,2,1,1,1,385
2081,4,1,161,20,1,1,1,540
2082,4,1,162,32,0,0,1,589
2083,4,1,163,10,1,1,1,509
2084,4,1,164,32,0,0,1,412
2085,4,1,165,5,1,1,1,491
2086,4,1,166,10,0,0,1,580
2087,4,1,167,32,0,0,1,522
2088,4,1,168,32,1,1,1,512
2089,4,1,169,20,1,1,1,419
2090,4,1,170,20,1,1,1,415
2091,4,1,171,5,0,0,1,460
2092,4,1,172,5,0,0,1,580
2093,4,1,173,20,1,1,0,465
2094,4,1,174,10,1,1,1,699
2095,4,1,175,2,0,0,1,564
2096,4,1,176,32,0,0,1,648
2097,4,1,177,32,1,1,1,451
2098,4,1,178,32,0,0,1,562
2099,4,1,179,5,0,0,1,512
2100,4,1,180,20,1,1,1,683
2101,4,1,181,32,0,0,0,585
2102,4,1,182,20,0,0,1,560
2103,4,1,183,32,1,1,1,862
2104,4,1,184,10,0,0,1,691
2105,4,1,185,1,1,1,1,595
2106,4,1,186,1,0,0,1,456
2107,4,1,187,2,0,0,1,480
2108,4,1,188,2,0,0,1,585
2109,4,1,189,5,1,1,0,479
2110,4,1,190,2,0,0,1,511
2111,4,1,191,5,1,1,1,568
2112,4,1,192,10,1,1,1,591
2113,4,1,193,32,0,0,1,616
2114,4,1,194,10,0,0,1,688
2115,4,1,195,32,1,1,1,579
2116,4,1,196,2,1,1,1,422
2117,4,1,197,20,0,0,1,717
2118,4,1,198,10,1,1,1,559
2119,4,1,199,10,0,0,1,599
2120,4,1,200,32,0,0,1,569
2121,4,1,201,10,0,0,1,650
2122,4,1,202,5,1,1,1,652
2123,4,1,203,32,0,0,1,647
2124,4,1,204,20,0,0,1,558
2125,4,1,205,2,1,1,1,466
2126,4,1,206,2,0,0,1,533
2127,4,1,207,10,1,1,1,509
2128,4,1,208,20,0,0,1,519
2129,4,1,209,1,1,1,1,404
2130,4,1,210,1,0,0,1,402
2131,4,1,211,32,0,0,1,533
2132,4,1,212,32,0,0,1,1003
2133,4,1,213,5,0,0,1,653
2134,4,1,214,32,1,1,1,450
2135,4,1,215,10,0,0,1,605
2136,4,1,216,10,0,0,1,544
2137,4,1,217,32,0,0,1,638
2138,4,1,218,2,0,0,1,443
2139,4,1,219,20,0,0,1,693
2140,4,1,220,2,1,1,1,567
2141,4,1,221,20,1,1,1,526
2142,4,1,222,20,0,0,1,559
2143,4,1,223,32,0,0,1,531
2144,4,1,224,32,0,0,1,428
2145,4,1,225,32,0,0,1,615
2146,4,1,226,32,1,1,1,602
2147,4,1,227,2,0,0,1,546
2148,4,1,228,1,1,1,1,449
2149,4,1,229,2,1,1,1,522
2150,4,1,230,5,0,0,1,392
2151,4,1,231,32,0,0,1,542
2152,4,1,232,10,0,0,1,530
2153,4,1,233,32,0,0,1,558
2154,4,1,234,32,0,0,1,567
2155,4,1,235,2,0,0,1,541
2156,4,1,236,2,1,1,1,599
2157,4,1,237,10,1,1,1,587
2158,4,1,238,20,1,1,1,594
2159,4,1,239,10,1,1,1,578
2160,4,1,240,5,0,0,1,651
2161,4,1,241,2,1,1,1,813
2162,4,1,242,2,1,1,1,501
2163,4,1,243,5,0,0,1,426
2164,4,1,244,5,1,1,1,417
2165,4,1,245,5,1,1,1,406
2166,4,1,246,10,0,0,1,596
2167,4,1,247,32,1,1,1,527
2168,4,1,248,20,1,1,1,660
2169,4,1,249,20,1,1,1,650
2170,4,1,250,2,0,0,1,629
2171,4,1,251,32,0,0,1,540
2172,4,1,252,2,0,0,1,505
2173,4,1,253,32,0,0,1,680
2174,4,1,254,5,1,1,1,533
2175,4,1,255,10,1,1,1,609
2176,4,1,256,32,1,1,1,505
2177,4,1,257,32,0,0,1,647
2178,4,1,258,32,1,1,1,636
2179,4,1,259,2,0,0,1,511
2180,4,1,260,10,1,1,1,416
2181,4,1,261,20,0,0,1,546
2182,4,1,262,32,0,0,1,445
2183,4,1,263,32,1,1,1,590
2184,4,1,264,5,1,1,1,410
2185,4,1,265,32,1,1,1,523
2186,4,1,266,10,0,0,1,658
2187,4,1,267,32,1,1,1,596
2188,4,1,268,20,1,1,1,520
2189,4,1,269,20,0,0,1,462
2190,4,1,270,20,1,1,1,639
2191,4,1,271,5,1,1,1,505
2192,4,1,272,10,1,1,1,402
2193,4,1,273,32,1,1,1,526
2194,4,1,274,2,1,1,1,371
2195,4,1,275,20,0,0,0,541
2196,4,1,276,10,0,0,1,580
2197,4,1,277,5,1,1,1,574
2198,4,1,278,32,1,1,1,647
2199,4,1,279,32,0,0,1,633
2200,4,1,280,2,1,1,1,494
2201,4,1,281,5,1,1,1,590
2202,4,1,282,32,1,1,1,441
2203,4,1,283,2,0,0,1,410
2204,4,1,284,5,0,0,1,377
2205,4,1,285,20,0,0,1,493
2206,4,1,286,10,1,1,1,558
2207,4,1,287,5,0,0,1,745
2208,4,1,288,2,0,0,1,376
2209,4,1,289,20,0,0,1,460
2210,4,1,290,32,0,0,1,589
2211,4,1,291,10,0,0,1,447
2212,4,1,292,20,1,1,1,461
2213,4,1,293,5,0,0,1,496
2214,4,1,294,2,1,1,0,566
2215,4,1,295,10,0,0,1,570
2216,4,1,296,32,0,0,1,582
2217,4,1,297,1,1,1,1,438
2218,4,1,298,5,1,1,1,476
2219,4,1,299,5,1,1,1,445
2220,4,1,300,5,1,1,1,595
2221,4,1,301,32,1,1,1,554
2222,4,1,302,10,1,1,1,723
2223,4,1,303,32,1,1,1,795
2224,4,1,304,32,1,1,1,514
2225,4,1,305,32,0,0,1,575
2226,4,1,306,10,0,0,1,538
2227,4,1,307,10,0,0,1,502
2228,4,1,308,10,1,1,1,420
2229,4,1,309,1,0,0,1,486
2230,4,1,310,5,1,1,1,534
2231,4,1,311,1,1,1,1,431
2232,4,1,312,5,0,0,1,417
2233,4,1,313,20,1,1,1,1100
2234,4,1,314,20,0,0,1,510
2235,4,1,315,5,1,1,1,478
2236,4,1,316,32,1,1,1,524
2237,4,1,317,1,0,0,1,414
2238,4,1,318,2,1,1,1,529
2239,4,1,319,20,0,0,1,650
2240,4,1,320,10,0,0,0,458
2241,4,1,321,1,1,1,1,644
2242,4,1,322,32,0,0,1,459
2243,4,1,323,32,0,0,1,497
2244,4,1,324,5,1,1,1,546
2245,4,1,325,2,0,0,1,476
2246,4,1,326,5,1,1,1,383
2247,4,1,327,2,0,0,1,356
2248,4,1,328,20,1,1,1,492
2249,4,1,329,10,0,0,1,593
2250,4,1,330,20,0,0,1,433
2251,4,1,331,5,0,0,1,616
2252,4,1,332,2,0,0,1,562
2253,4,1,333,5,0,0,1,587
2254,4,1,334,2,0,0,1,393
2255,4,1,335,10,0,0,1,386
2256,4,1,336,20,1,1,1,512
2257,4,1,337,2,0,0,1,395
2258,4,1,338,1,1,1,1,461
2259,4,1,339,2,0,0,1,402
2260,4,1,340,20,1,1,1,528
2261,4,1,341,10,0,0,1,490
2262,4,1,342,5,1,1,1,387
2263,4,1,343,5,1,1,1,370
2264,4,1,344,32,1,1,1,575
2265,4,1,345,32,0,0,1,397
2266,4,1,346,10,0,0,1,395
2267,4,1,347,32,0,0,1,931
2268,4,1,348,5,1,1,1,669
2269,4,1,349,1,0,0,1,429
2270,4,1,350,20,0,0,1,405
2271,4,1,351,20,0,0,1,499
2272,4,1,352,5,1,1,1,653
2273,4,1,353,20,0,0,1,429
2274,4,1,354,2,0,0,1,566
2275,4,1,355,1,0,0,1,399
2276,4,1,356,32,1,1,1,475
2277,4,1,357,20,1,1,1,638
2278,4,1,358,10,1,1,1,509
2279,4,1,359,32,1,1,1,611
2280,4,1,360,20,0,0,1,485
2281,4,1,361,10,1,1,1,586
2282,4,1,362,32,0,0,1,612
2283,4,1,363,10,0,0,1,406
2284,4,1,364,10,1,1,1,533
2285,4,1,365,10,1,1,1,417
2286,4,1,366,10,1,1,1,410
2287,4,1,367,5,1,1,1,424
2288,4,1,368,10,0,0,1,511
2289,4,1,369,20,1,1,1,708
2290,4,1,370,2,1,1,1,413
2291,4,1,371,5,0,0,1,419
2292,4,1,372,2,0,0,1,508
2293,4,1,373,32,1,1,1,520
2294,4,1,374,32,1,1,1,440
2295,4,1,375,20,0,0,0,430
2296,4,1,376,10,1,1,1,426
2297,4,1,377,1,1,1,1,398
2298,4,1,378,10,1,1,1,440
2299,4,1,379,5,1,1,1,364
2300,4,1,380,32,1,1,1,586
2301,4,1,381,10,1,1,1,507
2302,4,1,382,2,0,0,1,600
2303,4,1,383,32,1,1,1,581
2304,4,1,384,2,1,1,1,451
2305,4,1,385,10,0,0,1,488
2306,4,1,386,2,0,0,1,443
2307,4,1,387,10,0,0,1,479
2308,4,1,388,20,1,1,1,540
2309,4,1,389,10,1,1,1,387
2310,4,1,390,5,0,0,1,582
2311,4,1,391,2,1,1,1,458
2312,4,1,392,32,0,0,1,557
2313,4,1,393,10,1,1,1,448
2314,4,1,394,5,0,0,1,470
2315,4,1,395,20,1,1,1,768
2316,4,1,396,32,1,1,1,502
2317,4,1,397,2,0,0,1,553
2318,4,1,398,2,1,1,1,509
2319,4,1,399,5,1,1,1,448
2320,4,1,400,20,0,0,1,645
2321,4,1,401,10,0,0,1,763
2322,4,1,402,5,1,1,1,404
2323,4,1,403,32,1,1,1,431
2324,4,1,404,1,0,0,1,378
2325,4,1,405,20,0,0,1,459
2326,4,1,406,2,0,0,0,387
2327,4,1,407,5,0,0,1,619
2328,4,1,408,5,1,1,1,430
2329,4,1,409,20,0,0,1,440
2330,4,1,410,10,0,0,1,743
2331,4,1,411,2,1,1,1,503
2332,4,1,412,32,0,0,1,524
2333,4,1,413,1,0,0,1,427
2334,4,1,414,32,0,0,1,630
2335,4,1,415,32,0,0,1,461
2336,4,1,416,10,1,1,1,486
2337,4,1,417,20,0,0,1,519
2338,4,1,418,10,1,1,1,432
2339,4,1,419,32,1,1,1,577
2340,4,1,420,5,0,0,1,418
2341,4,1,421,5,1,1,1,463
2342,4,1,422,32,1,1,1,515
2343,4,1,423,10,0,0,1,565
2344,4,1,424,10,0,0,1,579
2345,4,1,425,2,0,0,1,620
2346,4,1,426,10,0,0,1,461
2347,4,1,427,10,1,1,1,533
2348,4,1,428,5,0,0,1,423
2349,4,1,429,20,0,0,1,454
2350,4,1,430,2,0,0,1,407
2351,4,1,431,2,0,0,1,356
2352,4,1,432,20,1,1,1,416
2353,4,1,433,20,1,1,1,473
2354,4,1,434,10,0,0,1,575
2355,4,1,435,2,1,1,1,479
2356,4,1,436,20,0,0,1,420
2357,4,1,437,20,1,1,1,961
2358,4,1,438,5,1,1,1,539
2359,4,1,439,5,0,0,1,369
2360,4,1,440,1,0,0,1,400
2361,4,1,441,20,0,0,1,552
2362,4,1,442,32,0,0,1,604
2363,4,1,443,32,0,0,1,483
2364,4,1,444,2,0,0,1,401
2365,4,1,445,2,1,1,0,347
2366,4,1,446,2,1,1,1,571
2367,4,1,447,10,1,1,1,514
2368,4,1,448,2,0,0,1,394
2369,4,1,449,2,1,1,1,411
2370,4,1,450,5,0,0,1,519
2371,4,1,451,5,1,1,1,424
2372,4,1,452,20,0,0,1,474
2373,4,1,453,20,0,0,1,883
2374,4,1,454,32,0,0,1,499
2375,4,1,455,10,1,1,1,439
2376,4,1,456,32,0,0,1,654
2377,4,1,457,20,0,0,1,564
2378,4,1,458,5,1,1,1,468
2379,4,1,459,5,0,0,1,490
2380,4,1,460,10,0,0,1,442
2381,4,1,461,5,0,0,1,578
2382,4,1,462,20,1,1,1,503
2383,4,1,463,2,1,1,1,466
2384,4,1,464,20,1,1,1,491
2385,4,1,465,5,0,0,1,422
2386,4,1,466,5,0,0,1,366
2387,4,1,467,20,1,1,1,438
2388,4,1,468,32,1,1,1,500
2389,4,1,469,32,1,1,1,522
2390,4,1,470,5,0,0,1,393
2391,4,1,471,10,1,1,1,685
2392,4,1,472,5,1,1,1,424
2393,4,1,473,10,0,0,1,378
2394,4,1,474,20,1,1,1,485
2395,4,1,475,10,0,0,0,416
2396,4,1,476,2,1,1,1,437
2397,4,1,477,10,1,1,1,446
2398,4,1,478,5,1,1,1,429
2399,4,1,479,20,0,0,1,684
2400,4,1,480,2,0,0,1,493
2401,4,1,481,20,0,0,1,638
2402,4,1,482,2,1,1,1,422
2403,4,1,483,1,0,0,1,382
2404,4,1,484,10,0,0,1,499
2405,4,1,485,10,1,1,1,412
2406,4,1,486,10,1,1,1,455
2407,4,1,487,32,1,1,1,551
2408,4,1,488,20,1,1,1,477
2409,4,1,489,2,0,0,1,607
2410,4,1,490,32,1,1,1,493
2411,4,1,491,5,1,1,1,416
2412,4,1,492,32,1,1,1,636
2413,4,1,493,5,0,0,1,645
2414,4,1,494,2,0,0,1,440
2415,4,1,495,20,1,1,1,583
2416,4,1,496,10,0,0,1,441
2417,4,1,497,2,1,1,1,390
2418,4,1,498,10,0,0,1,383
2419,4,1,499,5,0,0,1,539
2420,4,1,500,5,0,0,1,365
2421,4,1,501,20,0,0,1,609
2422,4,1,502,1,1,1,1,501
2423,4,1,503,10,1,1,0,509
2424,4,1,504,32,0,0,1,439
2425,4,1,505,20,1,1,1,749
2426,4,1,506,10,1,1,1,596
2427,4,1,507,32,1,1,1,466
2428,4,1,508,20,0,0,1,610
2429,4,1,509,5,1,1,1,452
2430,4,1,510,2,1,1,1,442
2431,4,1,511,2,1,1,1,466
2432,4,1,512,10,0,0,1,523
2433,4,1,513,20,1,1,1,528
2434,4,1,514,20,1,1,1,437
2435,4,1,515,10,0,0,1,482
2436,4,1,516,32,1,1,1,604
2437,4,1,517,20,0,0,1,644
2438,4,1,518,10,1,1,1,435
2439,4,1,519,10,1,1,1,574
2440,4,1,520,1,1,1,1,377
2441,4,1,521,20,0,0,1,563
2442,4,1,522,32,1,1,1,376
2443,4,1,523,10,0,0,1,524
2444,4,1,524,32,0,0,0,566
2445,4,1,525,20,1,1,1,498
2446,4,1,526,10,0,0,1,621
2447,4,1,527,20,1,1,1,481
2448,4,1,528,5,1,1,1,432
2449,4,1,529,10,0,0,1,439
2450,4,1,530,32,1,1,1,518
2451,4,1,531,32,1,1,1,443
2452,4,1,532,32,1,1,1,529
2453,4,1,533,2,1,1,1,400
2454,4,1,534,32,0,0,1,555
2455,4,1,535,2,1,1,1,514
2456,4,1,536,5,1,1,1,421
2457,4,1,537,32,1,1,1,617
2458,4,1,538,20,0,0,1,439
2459,4,1,539,2,0,0,1,554
2460,4,1,540,5,1,1,1,617
2461,4,1,541,2,1,1,1,429
2462,4,1,542,5,1,1,1,444
2463,4,1,543,1,0,0,1,485
2464,4,1,544,20,1,1,1,591
2465,4,1,545,5,0,0,1,675
2466,4,1,546,2,1,1,1,545
2467,4,1,547,2,1,1,1,462
2468,4,1,548,32,0,0,1,504
2469,4,1,549,5,1,1,1,420
2470,4,1,550,5,1,1,1,556
2471,4,1,551,10,0,0,1,455
2472,4,1,552,2,1,1,1,388
2473,4,1,553,5,0,0,1,598
2474,4,1,554,5,1,1,1,522
2475,4,1,555,32,0,0,1,749
2476,4,1,556,20,1,1,1,429
2477,4,1,557,10,1,1,1,442
2478,4,1,558,2,1,1,1,407
2479,4,1,559,2,0,0,1,419
2480,4,1,560,2,1,1,1,452
2481,4,1,561,10,0,0,1,512
2482,4,1,562,1,0,0,1,368
2483,4,1,563,10,0,0,1,506
2484,4,1,564,32,1,1,1,814
2485,4,1,565,1,0,0,1,462
2486,4,1,566,5,0,0,1,434
2487,4,1,567,2,1,1,1,467
2488,4,1,568,20,0,0,1,433
2489,4,1,569,20,1,1,1,566
2490,4,1,570,5,1,1,1,521
2491,4,1,571,20,0,0,1,494
2492,4,1,572,10,1,1,1,470
2493,4,1,573,32,1,1,1,601
2494,4,1,574,32,1,1,1,556
2495,4,1,575,5,0,0,1,532
2496,4,1,576,2,0,0,1,402
2497,4,1,577,10,0,0,0,533
2498,4,1,578,2,0,0,1,425
2499,4,1,579,10,1,1,1,491
2500,4,1,580,20,0,0,1,454
2501,4,1,581,10,1,1,1,809
2502,4,1,582,5,1,1,1,636
2503,4,1,583,2,0,0,1,388
2504,4,1,584,20,1,1,1,422
2505,4,1,585,20,1,1,1,553
2506,4,1,586,10,1,1,1,426
2507,4,1,587,2,1,1,1,407
2508,4,1,588,5,0,0,1,579
2509,4,1,589,2,0,0,1,458
2510,4,1,590,2,1,1,1,422
2511,4,1,591,5,0,0,1,504
2512,4,1,592,1,0,0,1,388
2513,4,1,593,5,0,0,1,486
2514,4,1,594,1,1,1,1,436
2515,4,1,595,2,0,0,1,452
2516,4,1,596,2,1,1,1,339
2517,4,1,597,5,0,0,1,432
2518,4,1,598,2,0,0,1,553
2519,4,1,599,10,1,1,1,579
2520,4,1,600,5,0,0,1,564
2521,4,1,601,2,1,1,1,494
2522,4,1,602,5,0,0,1,450
2523,4,1,603,20,1,1,1,914
2524,4,1,604,10,1,1,1,511
2525,4,1,605,32,0,0,1,744
2526,4,1,606,5,1,1,1,481
2527,4,1,607,1,0,0,1,390
2528,4,1,608,2,1,1,1,425
2529,4,1,609,10,0,0,1,427
2530,4,1,610,5,1,1,1,573
2531,4,1,611,32,0,0,1,532
2532,4,1,612,32,1,1,1,525
2533,4,1,613,5,1,1,1,603
2534,4,1,614,20,0,0,1,533
2535,4,1,615,10,0,0,1,478
2536,4,1,616,32,0,0,1,541
2537,4,1,617,32,1,1,1,512
2538,4,1,618,10,0,0,1,449
2539,4,1,619,5,0,0,1,402
2540,4,1,620,5,1,1,1,443
2541,4,1,621,20,0,0,1,496
2542,4,1,622,10,0,0,1,561
2543,4,1,623,5,0,0,1,475
2544,4,1,624,2,1,1,1,437
2545,4,1,625,5,1,1,1,483
2546,4,1,626,10,0,0,1,471
2547,4,1,627,1,0,0,1,558
2548,4,1,628,10,1,1,1,543
2549,4,1,629,5,0,0,1,476
2550,4,1,630,32,1,1,1,522
2551,4,1,631,20,1,1,0,597
2552,4,1,632,10,1,1,1,518
2553,4,1,633,20,1,1,1,578
2554,4,1,634,1,1,1,1,457
2555,4,1,635,2,1,1,1,410
2556,4,1,636,32,0,0,1,720
2557,4,1,637,2,1,1,1,392
2558,4,1,638,2,0,0,1,558
2559,4,1,639,5,1,1,1,484
2560,4,1,640,2,1,1,1,482
2561,5,1,1,2,0,0,1,602
2562,5,1,2,1,1,1,1,461
2563,5,1,3,32,1,1,1,616
2564,5,1,4,20,0,0,1,533
2565,5,1,5,20,1,1,1,402
2566,5,1,6,10,0,0,1,452
2567,5,1,7,20,1,1,1,454
2568,5,1,8,20,0,0,1,419
2569,5,1,9,20,0,0,1,631
2570,5,1,10,32,0,0,1,633
2571,5,1,11,2,0,0,1,717
2572,5,1,12,2,1,1,1,594
2573,5,1,13,5,0,0,1,547
2574,5,1,14,32,1,1,1,535
2575,5,1,15,10,0,0,1,397
2576,5,1,16,20,0,0,1,558
2577,5,1,17,2,0,0,1,570
2578,5,1,18,20,0,0,1,595
2579,5,1,19,32,1,1,1,705
2580,5,1,20,2,0,0,1,552
2581,5,1,21,5,1,1,1,473
2582,5,1,22,32,0,0,1,588
2583,5,1,23,10,0,0,1,429
2584,5,1,24,20,0,0,1,494
2585,5,1,25,5,1,1,1,513
2586,5,1,26,10,0,0,1,702
2587,5,1,27,20,0,0,1,533
2588,5,1,28,10,1,1,1,466
2589,5,1,29,2,0,0,1,560
2590,5,1,30,2,1,1,1,393
2591,5,1,31,20,1,1,1,924
2592,5,1,32,5,0,0,1,491
2593,5,1,33,32,1,1,1,573
2594,5,1,34,1,0,0,1,468
2595,5,1,35,32,0,0,0,964
2596,5,1,36,20,1,1,1,663
2597,5,1,37,5,1,1,1,558
2598,5,1,38,2,0,0,1,458
2599,5,1,39,10,0,0,1,668
2600,5,1,40,2,1,1,1,539
2601,5,1,41,2,0,0,1,519
2602,5,1,42,32,1,1,1,887
2603,5,1,43,2,0,0,1,369
2604,5,1,44,32,0,0,1,709
2605,5,1,45,5,0,0,1,461
2606,5,1,46,2,0,0,0,381
2607,5,1,47,1,0,0,1,411
2608,5,1,48,32,1,1,1,528
2609,5,1,49,10,0,0,1,499
2610,5,1,50,32,0,0,1,537
2611,5,1,51,20,0,0,1,532
2612,5,1,52,32,1,1,1,583
2613,5,1,53,5,1,1,1,631
2614,5,1,54,20,1,1,1,519
2615,5,1,55,2,0,0,1,427
2616,5,1,56,1,0,0,1,483
2617,5,1,57,1,1,1,1,399
2618,5,1,58,5,0,0,1,625
2619,5,1,59,2,1,1,1,565
2620,5,1,60,20,1,1,1,663
2621,5,1,61,20,0,0,1,652
2622,5,1,62,2,1,1,1,548
2623,5,1,63,5,1,1,1,986
2624,5,1,64,20,0,0,1,1161
2625,5,1,65,2,0,0,1,860
2626,5,1,66,10,0,0,1,523
2627,5,1,67,5,1,1,1,539
2628,5,1,68,10,0,0,1,496
2629,5,1,69,32,0,0,1,516
2630,5,1,70,10,0,0,1,453
2631,5,1,71,5,0,0,1,664
2632,5,1,72,2,0,0,1,478
2633,5,1,73,2,1,1,1,429
2634,5,1,74,5,0,0,1,482
2635,5,1,75,2,0,0,1,687
2636,5,1,76,5,0,0,1,391
2637,5,1,77,20,0,0,1,492
2638,5,1,78,10,1,1,0,547
2639,5,1,79,20,1,1,1,623
2640,5,1,80,32,1,1,1,598
2641,5,1,81,1,1,1,1,839
2642,5,1,82,5,1,1,1,531
2643,5,1,83,5,0,0,1,676
2644,5,1,84,20,1,1,1,628
2645,5,1,85,10,0,0,1,621
2646,5,1,86,2,0,0,1,555
2647,5,1,87,2,0,0,1,536
2648,5,1,88,2,1,1,1,649
2649,5,1,89,5,1,1,1,475
2650,5,1,90,1,1,1,1,407
2651,5,1,91,5,1,1,1,825
2652,5,1,92,5,1,1,1,564
2653,5,1,93,20,1,1,1,511
2654,5,1,94,20,0,0,1,527
2655,5,1,95,2,0,0,1,674
2656,5,1,96,5,0,0,1,684
2657,5,1,97,32,0,0,1,641
2658,5,1,98,2,0,0,1,501
2659,5,1,99,2,1,1,1,545
2660,5,1,100,5,1,1,1,674
2661,5,1,101,10,0,0,1,547
2662,5,1,102,32,0,0,1,507
2663,5,1,103,32,1,1,1,558
2664,5,1,104,32,1,1,1,1062
2665,5,1,105,5,1,1,1,689
2666,5,1,106,10,1,1,1,570
2667,5,1,107,2,0,0,1,505
2668,5,1,108,10,0,0,1,835
2669,5,1,109,20,1,1,1,694
2670,5,1,110,10,1,1,1,703
2671,5,1,111,5,1,1,1,552
2672,5,1,112,5,1,1,1,599
2673,5,1,113,10,1,1,1,580
2674,5,1,114,32,1,1,1,474
2675,5,1,115,5,0,0,1,628
2676,5,1,116,10,0,0,1,829
2677,5,1,117,20,0,0,1,593
2678,5,1,118,2,0,0,1,510
2679,5,1,119,32,1,1,1,462
2680,5,1,120,10,0,0,1,511
2681,5,1,121,5,0,0,1,898
2682,5,1,122,2,0,0,1,511
2683,5,1,123,32,0,0,1,1160
2684,5,1,124,32,0,0,1,689
2685,5,1,125,10,1,1,1,343
2686,5,1,126,10,0,0,1,745
2687,5,1,127,5,0,0,1,570
2688,5,1,128,1,0,0,1,522
2689,5,1,129,20,0,0,1,441
2690,5,1,130,10,1,1,1,494
2691,5,1,131,2,1,1,1,534
2692,5,1,132,2,0,0,0,430
2693,5,1,133,2,1,1,1,534
2694,5,1,134,1,1,1,1,534
2695,5,1,135,20,1,1,1,643
2696,5,1,136,20,1,1,1,571
2697,5,1,137,20,1,1,1,603
2698,5,1,138,10,1,1,1,662
2699,5,1,139,10,1,1,1,669
2700,5,1,140,20,0,0,1,3861
2701,5,1,141,2,1,1,1,738
2702,5,1,142,10,1,1,1,864
2703,5,1,143,32,0,0,1,1003
2704,5,1,144,2,1,1,1,692
2705,5,1,145,20,0,0,1,659
2706,5,1,146,5,0,0,1,751
2707,5,1,147,20,0,0,1,581
2708,5,1,148,20,1,1,1,590
2709,5,1,149,10,1,1,1,538
2710,5,1,150,32,0,0,1,507
2711,5,1,151,32,1,1,1,891
2712,5,1,152,2,1,1,1,475
2713,5,1,153,2,1,1,1,427
2714,5,1,154,32,1,1,1,586
2715,5,1,155,5,1,1,1,571
2716,5,1,156,1,0,0,1,494
2717,5,1,157,5,0,0,1,472
2718,5,1,158,10,0,0,1,507
2719,5,1,159,20,1,1,1,802
2720,5,1,160,20,1,1,1,534
2721,5,1,161,20,1,1,1,1105
2722,5,1,162,32,0,0,1,702
2723,5,1,163,20,0,0,1,540
2724,5,1,164,5,0,0,1,450
2725,5,1,165,20,1,1,1,545
2726,5,1,166,32,1,1,1,521
2727,5,1,167,10,0,0,1,574
2728,5,1,168,2,0,0,1,664
2729,5,1,169,10,1,1,1,422
2730,5,1,170,32,0,0,1,492
2731,5,1,171,2,1,1,1,444
2732,5,1,172,32,0,0,1,841
2733,5,1,173,5,1,1,1,867
2734,5,1,174,32,0,0,1,1028
2735,5,1,175,10,0,0,1,693
2736,5,1,176,32,0,0,1,582
2737,5,1,177,10,1,1,1,527
2738,5,1,178,2,1,1,1,487
2739,5,1,179,20,0,0,1,710
2740,5,1,180,5,1,1,1,555
2741,5,1,181,2,1,1,1,508
2742,5,1,182,5,0,0,1,609
2743,5,1,183,20,1,1,1,446
2744,5,1,184,10,0,0,1,504
2745,5,1,185,1,1,1,1,429
2746,5,1,186,1,0,0,1,344
2747,5,1,187,10,0,0,1,909
2748,5,1,188,32,0,0,1,609
2749,5,1,189,10,1,1,1,567
2750,5,1,190,32,1,1,1,630
2751,5,1,191,1,1,1,1,472
2752,5,1,192,20,1,1,1,600
2753,5,1,193,10,0,0,1,578
2754,5,1,194,32,1,1,1,605
2755,5,1,195,10,0,0,1,764
2756,5,1,196,32,0,0,1,731
2757,5,1,197,32,1,1,1,471
2758,5,1,198,10,0,0,1,512
2759,5,1,199,2,1,1,1,453
2760,5,1,200,32,0,0,1,610
2761,5,1,201,32,1,1,1,1310
2762,5,1,202,32,0,0,1,935
2763,5,1,203,5,0,0,1,1198
2764,5,1,204,5,0,0,1,427
2765,5,1,205,2,0,0,1,464
2766,5,1,206,32,0,0,1,422
2767,5,1,207,20,0,0,1,429
2768,5,1,208,2,0,0,1,629
2769,5,1,209,32,0,0,1,491
2770,5,1,210,10,1,1,1,521
2771,5,1,211,20,0,0,1,836
2772,5,1,212,1,0,0,1,386
2773,5,1,213,1,0,0,1,524
2774,5,1,214,1,0,0,1,457
2775,5,1,215,20,0,0,1,617
2776,5,1,216,10,0,0,1,463
2777,5,1,217,10,0,0,1,843
2778,5,1,218,2,1,1,1,488
2779,5,1,219,1,0,0,1,418
2780,5,1,220,20,0,0,1,1191
2781,5,1,221,20,0,0,1,355
2782,5,1,222,20,1,1,1,484
2783,5,1,223,20,0,0,1,377
2784,5,1,224,2,0,0,1,340
2785,5,1,225,20,1,1,1,675
2786,5,1,226,5,1,1,1,872
2787,5,1,227,2,0,0,1,493
2788,5,1,228,20,1,1,1,587
2789,5,1,229,10,1,1,1,517
2790,5,1,230,5,0,0,1,470
2791,5,1,231,5,1,1,1,390
2792,5,1,232,20,1,1,1,405
2793,5,1,233,1,1,1,1,581
2794,5,1,234,5,1,1,1,437
2795,5,1,235,5,0,0,1,551
2796,5,1,236,32,0,0,1,410
2797,5,1,237,20,1,1,1,422
2798,5,1,238,2,0,0,1,358
2799,5,1,239,10,1,1,1,482
2800,5,1,240,32,0,0,1,402
2801,5,1,241,10,0,0,1,791
2802,5,1,242,20,1,1,1,807
2803,5,1,243,20,0,0,1,537
2804,5,1,244,2,1,1,1,449
2805,5,1,245,20,1,1,1,598
2806,5,1,246,1,0,0,1,368
2807,5,1,247,32,0,0,1,471
2808,5,1,248,10,1,1,1,647
2809,5,1,249,10,1,1,1,602
2810,5,1,250,5,1,1,1,447
2811,5,1,251,20,0,0,1,518
2812,5,1,252,10,1,1,1,401
2813,5,1,253,32,1,1,1,659
2814,5,1,254,5,1,1,1,450
2815,5,1,255,1,1,1,1,358
2816,5,1,256,5,0,0,1,486
2817,5,1,257,5,0,0,1,682
2818,5,1,258,32,1,1,1,470
2819,5,1,259,1,0,0,1,557
2820,5,1,260,2,1,1,1,341
2821,5,1,261,2,1,1,1,404
2822,5,1,262,5,1,1,1,381
2823,5,1,263,20,1,1,1,422
2824,5,1,264,20,1,1,1,509
2825,5,1,265,5,0,0,1,388
2826,5,1,266,2,0,0,1,362
2827,5,1,267,20,1,1,1,889
2828,5,1,268,2,1,1,1,354
2829,5,1,269,10,1,1,1,519
2830,5,1,270,32,1,1,1,473
2831,5,1,271,5,1,1,1,359
2832,5,1,272,32,0,0,1,489
2833,5,1,273,10,0,0,1,485
2834,5,1,274,10,1,1,1,378
2835,5,1,275,5,0,0,1,394
2836,5,1,276,20,0,0,1,507
2837,5,1,277,10,0,0,1,476
2838,5,1,278,10,1,1,1,411
2839,5,1,279,20,0,0,1,864
2840,5,1,280,10,1,1,1,518
2841,5,1,281,32,1,1,1,701
2842,5,1,282,1,1,1,1,377
2843,5,1,283,2,0,0,1,451
2844,5,1,284,5,0,0,1,613
2845,5,1,285,2,1,1,1,417
2846,5,1,286,2,0,0,1,737
2847,5,1,287,5,0,0,1,581
2848,5,1,288,10,0,0,1,493
2849,5,1,289,10,1,1,1,508
2850,5,1,290,32,1,1,1,383
2851,5,1,291,20,1,1,1,725
2852,5,1,292,32,0,0,1,538
2853,5,1,293,2,0,0,1,545
2854,5,1,294,32,0,0,1,731
2855,5,1,295,10,1,1,1,515
2856,5,1,296,20,0,0,1,618
2857,5,1,297,10,0,0,1,570
2858,5,1,298,10,0,0,1,556
2859,5,1,299,20,1,1,1,658
2860,5,1,300,32,1,1,1,561
2861,5,1,301,2,1,1,1,654
2862,5,1,302,20,1,1,1,636
2863,5,1,303,10,1,1,1,507
2864,5,1,304,2,1,1,1,392
2865,5,1,305,20,1,1,1,545
2866,5,1,306,1,0,0,0,511
2867,5,1,307,10,1,1,1,506
2868,5,1,308,10,0,0,1,632
2869,5,1,309,5,0,0,1,468
2870,5,1,310,5,0,0,1,606
2871,5,1,311,1,1,1,1,595
2872,5,1,312,20,1,1,1,653
2873,5,1,313,2,1,1,1,581
2874,5,1,314,20,0,0,1,582
2875,5,1,315,2,1,1,1,542
2876,5,1,316,20,1,1,1,663
2877,5,1,317,20,0,0,1,1040
2878,5,1,318,10,0,0,1,471
2879,5,1,319,1,1,1,1,489
2880,5,1,320,2,0,0,1,551
2881,5,1,321,1,0,0,1,360
2882,5,1,322,20,1,1,1,536
2883,5,1,323,2,1,1,1,533
2884,5,1,324,32,1,1,1,545
2885,5,1,325,5,0,0,1,411
2886,5,1,326,10,1,1,1,535
2887,5,1,327,2,0,0,1,926
2888,5,1,328,2,1,1,1,441
2889,5,1,329,20,1,1,1,496
2890,5,1,330,5,1,1,1,508
2891,5,1,331,20,1,1,1,568
2892,5,1,332,5,1,1,1,723
2893,5,1,333,2,1,1,1,683
2894,5,1,334,5,0,0,1,1068
2895,5,1,335,2,1,1,1,406
2896,5,1,336,20,0,0,1,543
2897,5,1,337,32,1,1,1,569
2898,5,1,338,2,1,1,1,478
2899,5,1,339,5,1,1,1,584
2900,5,1,340,5,1,1,1,500
2901,5,1,341,10,1,1,1,527
2902,5,1,342,10,0,0,1,492
2903,5,1,343,10,0,0,1,415
2904,5,1,344,2,0,0,1,771
2905,5,1,345,32,1,1,1,621
2906,5,1,346,1,1,1,1,463
2907,5,1,347,10,1,1,1,784
2908,5,1,348,32,0,0,1,724
2909,5,1,349,10,1,1,1,737
2910,5,1,350,2,1,1,1,499
2911,5,1,351,20,1,1,1,515
2912,5,1,352,20,0,0,1,555
2913,5,1,353,2,0,0,1,704
2914,5,1,354,10,0,0,1,547
2915,5,1,355,20,0,0,1,779
2916,5,1,356,10,1,1,1,705
2917,5,1,357,32,0,0,1,607
2918,5,1,358,5,1,1,1,776
2919,5,1,359,5,0,0,1,589
2920,5,1,360,2,1,1,1,594
2921,5,1,361,32,0,0,1,933
2922,5,1,362,32,0,0,1,738
2923,5,1,363,5,0,0,1,474
2924,5,1,364,5,1,1,1,520
2925,5,1,365,10,0,0,1,455
2926,5,1,366,10,1,1,1,468
2927,5,1,367,2,1,1,1,484
2928,5,1,368,20,1,1,1,919
2929,5,1,369,10,1,1,1,456
2930,5,1,370,2,1,1,1,376
2931,5,1,371,32,1,1,1,459
2932,5,1,372,20,1,1,1,445
2933,5,1,373,5,1,1,1,493
2934,5,1,374,5,0,0,1,443
2935,5,1,375,5,0,0,1,462
2936,5,1,376,2,0,0,1,539
2937,5,1,377,5,0,0,1,579
2938,5,1,378,5,1,1,1,592
2939,5,1,379,10,1,1,1,410
2940,5,1,380,32,0,0,1,1010
2941,5,1,381,5,0,0,1,506
2942,5,1,382,20,1,1,1,489
2943,5,1,383,20,1,1,1,492
2944,5,1,384,20,0,0,1,437
2945,5,1,385,20,0,0,1,442
2946,5,1,386,5,1,1,1,502
2947,5,1,387,5,0,0,1,442
2948,5,1,388,2,0,0,1,496
2949,5,1,389,2,1,1,1,639
2950,5,1,390,20,1,1,1,620
2951,5,1,391,5,0,0,1,493
2952,5,1,392,2,1,1,1,855
2953,5,1,393,2,1,1,1,411
2954,5,1,394,32,0,0,1,601
2955,5,1,395,10,0,0,1,495
2956,5,1,396,2,0,0,1,475
2957,5,1,397,5,0,0,1,386
2958,5,1,398,20,0,0,1,870
2959,5,1,399,32,0,0,0,837
2960,5,1,400,5,1,1,1,685
2961,5,1,401,32,1,1,1,648
2962,5,1,402,32,1,1,1,434
2963,5,1,403,20,0,0,1,835
2964,5,1,404,5,0,0,1,417
2965,5,1,405,2,1,1,1,356
2966,5,1,406,32,0,0,1,670
2967,5,1,407,5,0,0,1,473
2968,5,1,408,32,1,1,1,619
2969,5,1,409,5,1,1,1,485
2970,5,1,410,5,1,1,1,668
2971,5,1,411,32,1,1,1,501
2972,5,1,412,32,1,1,1,583
2973,5,1,413,10,1,1,1,416
2974,5,1,414,20,0,0,1,674
2975,5,1,415,10,1,1,1,517
2976,5,1,416,2,0,0,1,770
2977,5,1,417,2,1,1,1,620
2978,5,1,418,2,0,0,1,468
2979,5,1,419,2,1,1,1,493
2980,5,1,420,10,1,1,1,688
2981,5,1,421,5,1,1,1,567
2982,5,1,422,5,0,0,1,476
2983,5,1,423,5,1,1,1,699
2984,5,1,424,32,0,0,1,527
2985,5,1,425,5,0,0,1,554
2986,5,1,426,10,1,1,1,599
2987,5,1,427,32,1,1,1,625
2988,5,1,428,5,1,1,1,537
2989,5,1,429,1,0,0,1,464
2990,5,1,430,20,1,1,1,521
2991,5,1,431,10,0,0,1,444
2992,5,1,432,1,0,0,1,655
2993,5,1,433,20,1,1,1,723
2994,5,1,434,10,1,1,1,864
2995,5,1,435,10,1,1,1,455
2996,5,1,436,20,1,1,1,613
2997,5,1,437,10,0,0,1,882
2998,5,1,438,2,0,0,1,562
2999,5,1,439,1,1,1,1,558
3000,5,1,440,5,1,1,1,566
3001,5,1,441,5,1,1,1,418
3002,5,1,442,20,0,0,1,562
3003,5,1,443,5,0,0,1,709
3004,5,1,444,5,1,1,1,533
3005,5,1,445,32,0,0,1,879
3006,5,1,446,32,1,1,1,860
3007,5,1,447,32,0,0,1,431
3008,5,1,448,32,1,1,1,474
3009,5,1,449,2,1,1,1,421
3010,5,1,450,32,1,1,1,953
3011,5,1,451,2,1,1,1,661
3012,5,1,452,2,0,0,1,431
3013,5,1,453,2,0,0,1,584
3014,5,1,454,1,1,1,1,418
3015,5,1,455,20,0,0,1,530
3016,5,1,456,2,1,1,1,612
3017,5,1,457,2,1,1,1,467
3018,5,1,458,32,1,1,1,1519
3019,5,1,459,10,1,1,1,535
3020,5,1,460,5,1,1,1,487
3021,5,1,461,20,0,0,1,457
3022,5,1,462,5,1,1,1,475
3023,5,1,463,20,1,1,1,544
3024,5,1,464,10,0,0,1,469
3025,5,1,465,2,1,1,1,387
3026,5,1,466,5,0,0,1,379
3027,5,1,467,20,0,0,1,349
3028,5,1,468,2,0,0,0,395
3029,5,1,469,5,1,1,1,401
3030,5,1,470,32,1,1,1,636
3031,5,1,471,20,0,0,1,486
3032,5,1,472,10,0,0,1,667
3033,5,1,473,2,0,0,1,386
3034,5,1,474,32,1,1,1,409
3035,5,1,475,10,1,1,1,551
3036,5,1,476,5,1,1,1,629
3037,5,1,477,1,1,1,1,420
3038,5,1,478,32,0,0,1,540
3039,5,1,479,32,1,1,1,505
3040,5,1,480,5,0,0,1,445
3041,5,1,481,32,1,1,1,555
3042,5,1,482,20,1,1,1,1257
3043,5,1,483,10,0,0,1,738
3044,5,1,484,20,1,1,1,512
3045,5,1,485,32,0,0,1,489
3046,5,1,486,5,1,1,1,464
3047,5,1,487,5,1,1,1,506
3048,5,1,488,10,1,1,1,483
3049,5,1,489,32,0,0,0,607
3050,5,1,490,20,0,0,1,503
3051,5,1,491,32,0,0,1,470
3052,5,1,492,32,1,1,1,518
3053,5,1,493,10,0,0,1,636
3054,5,1,494,2,0,0,1,340
3055,5,1,495,10,0,0,1,386
3056,5,1,496,32,0,0,1,539
3057,5,1,497,32,1,1,1,615
3058,5,1,498,32,0,0,1,540
3059,5,1,499,5,1,1,1,503
3060,5,1,500,2,1,1,1,495
3061,5,1,501,2,1,1,1,437
3062,5,1,502,2,1,1,1,648
3063,5,1,503,2,0,0,1,415
3064,5,1,504,10,1,1,1,964
3065,5,1,505,20,0,0,1,560
3066,5,1,506,32,1,1,1,584
3067,5,1,507,2,0,0,1,352
3068,5,1,508,10,0,0,1,535
3069,5,1,509,2,1,1,1,407
3070,5,1,510,32,0,0,1,405
3071,5,1,511,20,1,1,1,497
3072,5,1,512,2,0,0,1,448
3073,5,1,513,32,1,1,1,445
3074,5,1,514,20,0,0,1,619
3075,5,1,515,32,1,1,1,608
3076,5,1,516,5,1,1,1,430
3077,5,1,517,2,0,0,1,537
3078,5,1,518,32,0,0,1,476
3079,5,1,519,2,1,1,1,640
3080,5,1,520,32,1,1,1,491
3081,5,1,521,1,1,1,1,537
3082,5,1,522,20,1,1,1,447
3083,5,1,523,5,0,0,1,628
3084,5,1,524,2,0,0,1,548
3085,5,1,525,10,0,0,1,496
3086,5,1,526,10,0,0,1,847
3087,5,1,527,5,0,0,1,380
3088,5,1,528,20,1,1,1,451
3089,5,1,529,20,1,1,1,509
3090,5,1,530,10,0,0,1,541
3091,5,1,531,20,0,0,1,418
3092,5,1,532,32,0,0,1,422
3093,5,1,533,2,0,0,1,375
3094,5,1,534,32,0,0,1,357
3095,5,1,535,10,0,0,1,440
3096,5,1,536,10,0,0,1,429
3097,5,1,537,5,0,0,1,344
3098,5,1,538,32,1,1,1,923
3099,5,1,539,20,0,0,1,669
3100,5,1,540,10,1,1,1,657
3101,5,1,541,20,0,0,1,431
3102,5,1,542,32,0,0,1,459
3103,5,1,543,5,1,1,1,390
3104,5,1,544,32,1,1,1,400
3105,5,1,545,20,1,1,1,502
3106,5,1,546,2,1,1,1,528
3107,5,1,547,10,1,1,1,486
3108,5,1,548,32,1,1,1,563
3109,5,1,549,10,1,1,1,431
3110,5,1,550,2,0,0,1,505
3111,5,1,551,32,1,1,1,1166
3112,5,1,552,1,0,0,0,499
3113,5,1,553,5,1,1,1,482
3114,5,1,554,2,0,0,1,673
3115,5,1,555,10,1,1,1,410
3116,5,1,556,5,0,0,1,504
3117,5,1,557,2,1,1,1,494
3118,5,1,558,5,0,0,1,572
3119,5,1,559,2,0,0,1,432
3120,5,1,560,10,0,0,1,717
3121,5,1,561,10,1,1,1,450
3122,5,1,562,10,0,0,1,378
3123,5,1,563,20,0,0,1,479
3124,5,1,564,20,1,1,1,386
3125,5,1,565,20,0,0,1,388
3126,5,1,566,5,1,1,1,594
3127,5,1,567,20,1,1,1,501
3128,5,1,568,10,1,1,1,507
3129,5,1,569,2,1,1,1,446
3130,5,1,570,32,1,1,1,510
3131,5,1,571,10,1,1,1,560
3132,5,1,572,2,1,1,1,517
3133,5,1,573,5,0,0,1,477
3134,5,1,574,10,1,1,1,504
3135,5,1,575,5,0,0,1,518
3136,5,1,576,5,1,1,1,591
3137,5,1,577,20,1,1,1,391
3138,5,1,578,10,1,1,1,523
3139,5,1,579,1,0,0,1,515
3140,5,1,580,5,1,1,1,429
3141,5,1,581,5,0,0,1,753
3142,5,1,582,5,0,0,1,840
3143,5,1,583,20,1,1,1,422
3144,5,1,584,2,1,1,1,452
3145,5,1,585,5,0,0,1,481
3146,5,1,586,10,0,0,1,621
3147,5,1,587,10,0,0,1,437
3148,5,1,588,32,0,0,1,456
3149,5,1,589,10,1,1,1,1035
3150,5,1,590,32,0,0,1,466
3151,5,1,591,5,1,1,1,668
3152,5,1,592,20,0,0,1,496
3153,5,1,593,5,1,1,1,551
3154,5,1,594,32,0,0,1,559
3155,5,1,595,32,1,1,1,496
3156,5,1,596,5,0,0,1,444
3157,5,1,597,10,1,1,1,411
3158,5,1,598,32,0,0,1,419
3159,5,1,599,2,0,0,1,689
3160,5,1,600,32,1,3,0,994
3161,5,1,601,10,0,0,1,679
3162,5,1,602,5,1,1,1,461
3163,5,1,603,32,1,1,1,467
3164,5,1,604,20,0,0,1,457
3165,5,1,605,1,1,1,1,491
3166,5,1,606,1,0,0,1,338
3167,5,1,607,20,0,0,1,619
3168,5,1,608,2,0,0,1,410
3169,5,1,609,5,0,0,1,372
3170,5,1,610,32,0,0,1,464
3171,5,1,611,10,0,0,1,589
3172,5,1,612,20,0,0,1,899
3173,5,1,613,10,1,1,1,507
3174,5,1,614,5,0,0,1,462
3175,5,1,615,10,1,1,1,603
3176,5,1,616,1,1,1,1,352
3177,5,1,617,2,1,1,1,408
3178,5,1,618,10,1,1,1,556
3179,5,1,619,32,0,0,1,391
3180,5,1,620,10,0,0,1,354
3181,5,1,621,5,1,1,1,584
3182,5,1,622,2,0,0,1,477
3183,5,1,623,2,0,0,1,453
3184,5,1,624,32,0,0,1,419
3185,5,1,625,20,0,0,1,484
3186,5,1,626,32,1,1,1,422
3187,5,1,627,1,1,1,1,481
3188,5,1,628,10,0,0,1,516
3189,5,1,629,32,1,1,1,504
3190,5,1,630,5,1,1,1,1096
3191,5,1,631,2,1,1,1,843
3192,5,1,632,1,0,0,1,400
3193,5,1,633,20,0,0,1,433
3194,5,1,634,10,0,0,1,408
3195,5,1,635,5,0,0,1,724
3196,5,1,636,32,0,0,1,767
3197,5,1,637,32,1,1,1,488
3198,5,1,638,20,0,0,1,397
3199,5,1,639,2,0,0,1,413
3200,5,1,640,32,0,0,1,387
3201,7,1,1,32,0,0,1,565
3202,7,1,2,32,1,1,1,548
3203,7,1,3,2,0,0,0,641
3204,7,1,4,20,1,1,1,643
3205,7,1,5,10,1,1,1,894
3206,7,1,6,32,1,1,1,489
3207,7,1,7,20,1,1,1,495
3208,7,1,8,5,0,0,1,435
3209,7,1,9,32,0,0,1,1276
3210,7,1,10,2,1,1,1,616
3211,7,1,11,2,0,0,1,413
3212,7,1,12,5,1,1,1,525
3213,7,1,13,20,1,1,1,827
3214,7,1,14,32,0,0,1,639
3215,7,1,15,2,0,0,1,500
3216,7,1,16,32,1,1,1,930
3217,7,1,17,5,1,1,1,521
3218,7,1,18,1,1,1,1,361
3219,7,1,19,10,1,1,1,537
3220,7,1,20,5,0,0,1,517
3221,7,1,21,20,1,1,1,500
3222,7,1,22,20,0,0,1,765
3223,7,1,23,5,0,0,1,728
3224,7,1,24,32,1,1,1,579
3225,7,1,25,20,1,1,0,565
3226,7,1,26,32,0,0,1,611
3227,7,1,27,2,0,0,1,569
3228,7,1,28,10,1,1,1,643
3229,7,1,29,5,0,0,1,442
3230,7,1,30,2,1,1,1,568
3231,7,1,31,32,0,0,1,558
3232,7,1,32,10,1,1,1,608
3233,7,1,33,10,1,1,1,767
3234,7,1,34,2,0,0,1,878
3235,7,1,35,2,1,1,1,625
3236,7,1,36,32,1,1,1,635
3237,7,1,37,2,1,1,1,623
3238,7,1,38,5,0,0,1,628
3239,7,1,39,2,1,1,1,690
3240,7,1,40,2,0,0,1,744
3241,7,1,41,20,1,1,1,644
3242,7,1,42,1,0,0,1,488
3243,7,1,43,32,1,1,1,620
3244,7,1,44,20,0,0,1,1004
3245,7,1,45,5,0,0,1,622
3246,7,1,46,10,1,1,1,508
3247,7,1,47,32,1,1,1,734
3248,7,1,48,10,0,0,1,544
3249,7,1,49,1,0,0,1,465
3250,7,1,50,32,0,0,1,625
3251,7,1,51,32,0,0,1,564
3252,7,1,52,2,0,0,1,521
3253,7,1,53,10,0,0,1,473
3254,7,1,54,2,1,1,1,409
3255,7,1,55,2,0,0,1,399
3256,7,1,56,5,0,0,1,454
3257,7,1,57,5,1,1,1,529
3258,7,1,58,1,1,1,1,834
3259,7,1,59,2,1,1,1,557
3260,7,1,60,2,1,1,1,381
3261,7,1,61,1,0,0,1,561
3262,7,1,62,32,1,1,1,554
3263,7,1,63,5,0,0,1,510
3264,7,1,64,32,0,0,0,451
3265,7,1,65,20,0,0,1,533
3266,7,1,66,5,0,0,1,409
3267,7,1,67,20,0,0,1,539
3268,7,1,68,5,1,1,1,628
3269,7,1,69,2,1,1,1,574
3270,7,1,70,2,1,1,0,412
3271,7,1,71,10,1,1,1,749
3272,7,1,72,5,1,1,1,982
3273,7,1,73,5,0,0,1,773
3274,7,1,74,2,1,1,1,612
3275,7,1,75,2,1,1,1,714
3276,7,1,76,1,0,0,1,519
3277,7,1,77,20,0,0,1,614
3278,7,1,78,10,0,0,1,611
3279,7,1,79,10,0,0,1,538
3280,7,1,80,2,0,0,1,497
3281,7,1,81,2,1,1,1,597
3282,7,1,82,10,1,1,1,589
3283,7,1,83,20,0,0,1,570
3284,7,1,84,10,1,1,1,572
3285,7,1,85,10,0,0,1,541
3286,7,1,86,20,0,0,1,791
3287,7,1,87,5,1,1,1,675
3288,7,1,88,2,1,1,1,463
3289,7,1,89,32,0,0,1,417
3290,7,1,90,32,1,1,1,739
3291,7,1,91,1,1,1,1,531
3292,7,1,92,2,0,0,1,644
3293,7,1,93,20,0,0,1,622
3294,7,1,94,20,0,0,1,516
3295,7,1,95,10,1,1,1,609
3296,7,1,96,10,0,0,1,574
3297,7,1,97,5,0,0,1,587
3298,7,1,98,20,0,0,1,956
3299,7,1,99,32,1,1,1,616
3300,7,1,100,5,0,0,1,626
3301,7,1,101,5,1,1,1,692
3302,7,1,102,20,0,0,1,587
3303,7,1,103,20,1,1,1,775
3304,7,1,104,10,0,0,1,516
3305,7,1,105,2,1,1,1,475
3306,7,1,106,20,0,0,1,513
3307,7,1,107,10,1,1,1,522
3308,7,1,108,2,1,1,1,582
3309,7,1,109,5,1,1,1,579
3310,7,1,110,10,0,0,1,500
3311,7,1,111,5,0,0,1,420
3312,7,1,112,10,1,1,1,598
3313,7,1,113,10,1,1,1,942
3314,7,1,114,5,0,0,1,727
3315,7,1,115,2,0,0,1,614
3316,7,1,116,2,1,1,1,804
3317,7,1,117,32,1,1,1,478
3318,7,1,118,2,1,1,1,569
3319,7,1,119,32,1,1,1,599
3320,7,1,120,5,0,0,1,497
3321,7,1,121,2,1,1,1,603
3322,7,1,122,32,1,1,1,508
3323,7,1,123,5,0,0,1,610
3324,7,1,124,32,0,0,1,508
3325,7,1,125,20,1,1,1,540
3326,7,1,126,20,1,1,1,721
3327,7,1,127,2,1,1,1,632
3328,7,1,128,32,0,0,1,556
3329,7,1,129,1,1,1,1,593
3330,7,1,130,20,1,1,1,470
3331,7,1,131,5,1,1,1,508
3332,7,1,132,2,1,1,1,431
3333,7,1,133,10,1,1,1,554
3334,7,1,134,10,1,1,1,465
3335,7,1,135,1,0,0,1,629
3336,7,1,136,10,0,0,1,742
3337,7,1,137,5,0,0,1,647
3338,7,1,138,1,0,0,1,500
3339,7,1,139,5,0,0,1,454
3340,7,1,140,5,1,1,1,547
3341,7,1,141,5,0,0,1,425
3342,7,1,142,10,1,1,1,625
3343,7,1,143,32,1,1,1,678
3344,7,1,144,20,1,1,1,669
3345,7,1,145,20,0,0,1,647
3346,7,1,146,2,0,0,1,650
3347,7,1,147,10,0,0,1,590
3348,7,1,148,5,0,0,1,462
3349,7,1,149,20,0,0,1,578
3350,7,1,150,20,0,0,1,481
3351,7,1,151,20,1,1,1,576
3352,7,1,152,2,0,0,1,464
3353,7,1,153,20,1,1,1,622
3354,7,1,154,20,0,0,1,546
3355,7,1,155,10,0,0,1,400
3356,7,1,156,5,1,1,1,704
3357,7,1,157,5,1,1,0,423
3358,7,1,158,10,1,1,1,518
3359,7,1,159,32,0,0,1,715
3360,7,1,160,20,1,1,1,589
3361,7,1,161,32,1,1,1,840
3362,7,1,162,5,1,1,1,505
3363,7,1,163,20,1,1,1,491
3364,7,1,164,2,0,0,0,614
3365,7,1,165,32,1,1,1,867
3366,7,1,166,1,0,0,1,525
3367,7,1,167,2,0,0,1,1156
3368,7,1,168,32,1,1,1,769
3369,7,1,169,5,0,0,1,556
3370,7,1,170,10,1,1,1,733
3371,7,1,171,10,1,1,1,626
3372,7,1,172,20,1,1,1,876
3373,7,1,173,5,1,1,1,722
3374,7,1,174,32,0,0,1,608
3375,7,1,175,2,0,0,1,635
3376,7,1,176,32,1,1,1,596
3377,7,1,177,2,1,1,1,711
3378,7,1,178,5,1,1,1,567
3379,7,1,179,10,1,1,1,561
3380,7,1,180,32,0,0,1,539
3381,7,1,181,20,1,1,1,735
3382,7,1,182,5,0,0,1,702
3383,7,1,183,10,1,1,1,605
3384,7,1,184,5,1,1,1,549
3385,7,1,185,10,1,1,1,546
3386,7,1,186,32,0,0,1,610
3387,7,1,187,2,1,1,1,427
3388,7,1,188,32,1,1,1,756
3389,7,1,189,5,1,1,1,488
3390,7,1,190,32,1,1,1,725
3391,7,1,191,5,1,1,1,531
3392,7,1,192,2,0,0,1,432
3393,7,1,193,2,1,1,1,827
3394,7,1,194,5,0,0,1,498
3395,7,1,195,5,0,0,1,446
3396,7,1,196,1,1,1,1,595
3397,7,1,197,10,0,0,1,672
3398,7,1,198,20,1,1,1,614
3399,7,1,199,1,1,1,1,447
3400,7,1,200,20,0,0,1,699
3401,7,1,201,10,1,1,1,703
3402,7,1,202,2,1,1,1,453
3403,7,1,203,20,1,1,1,451
3404,7,1,204,32,1,1,1,566
3405,7,1,205,32,1,1,1,450
3406,7,1,206,5,1,1,1,632
3407,7,1,207,20,1,1,1,493
3408,7,1,208,5,0,0,1,517
3409,7,1,209,32,0,0,1,752
3410,7,1,210,10,0,0,1,515
3411,7,1,211,10,1,1,1,765
3412,7,1,212,1,1,1,1,521
3413,7,1,213,5,0,0,1,423
3414,7,1,214,20,0,0,1,1158
3415,7,1,215,1,0,0,1,404
3416,7,1,216,5,1,1,0,584
3417,7,1,217,2,0,0,1,592
3418,7,1,218,32,1,1,1,737
3419,7,1,219,2,1,1,1,597
3420,7,1,220,20,1,1,1,511
3421,7,1,221,20,1,1,1,673
3422,7,1,222,32,1,1,1,615
3423,7,1,223,32,1,1,1,595
3424,7,1,224,1,1,1,1,546
3425,7,1,225,32,0,0,1,783
3426,7,1,226,10,1,1,1,604
3427,7,1,227,2,0,0,1,634
3428,7,1,228,2,0,0,1,506
3429,7,1,229,1,1,1,1,476
3430,7,1,230,2,0,0,1,577
3431,7,1,231,20,1,1,1,634
3432,7,1,232,5,1,1,1,717
3433,7,1,233,32,1,1,1,610
3434,7,1,234,5,0,0,1,409
3435,7,1,235,20,0,0,1,487
3436,7,1,236,5,1,1,1,877
3437,7,1,237,5,0,0,1,608
3438,7,1,238,2,0,0,1,491
3439,7,1,239,5,0,0,1,538
3440,7,1,240,2,0,0,1,407
3441,7,1,241,10,0,0,1,492
3442,7,1,242,20,1,1,1,591
3443,7,1,243,1,0,0,1,465
3444,7,1,244,2,1,1,1,643
3445,7,1,245,2,0,0,1,599
3446,7,1,246,10,1,1,1,747
3447,7,1,247,1,0,0,1,436
3448,7,1,248,20,0,0,1,617
3449,7,1,249,32,0,0,1,462
3450,7,1,250,10,0,0,1,465
3451,7,1,251,10,1,1,1,760
3452,7,1,252,2,0,0,1,456
3453,7,1,253,32,1,1,1,1078
3454,7,1,254,2,1,1,1,563
3455,7,1,255,10,1,1,1,541
3456,7,1,256,20,0,0,1,604
3457,7,1,257,10,0,0,1,567
3458,7,1,258,32,0,0,1,530
3459,7,1,259,5,0,0,1,499
3460,7,1,260,32,1,1,1,637
3461,7,1,261,20,1,1,1,611
3462,7,1,262,10,1,1,1,470
3463,7,1,263,20,1,1,1,621
3464,7,1,264,5,0,0,1,438
3465,7,1,265,20,0,0,1,520
3466,7,1,266,2,1,1,1,600
3467,7,1,267,10,1,1,1,537
3468,7,1,268,32,1,1,1,491
3469,7,1,269,1,1,1,1,576
3470,7,1,270,2,1,1,1,679
3471,7,1,271,1,0,0,1,564
3472,7,1,272,20,1,1,1,629
3473,7,1,273,32,0,0,1,859
3474,7,1,274,10,0,0,1,503
3475,7,1,275,32,0,0,1,650
3476,7,1,276,10,1,1,1,1061
3477,7,1,277,5,1,1,1,661
3478,7,1,278,10,1,1,1,831
3479,7,1,279,10,1,1,1,716
3480,7,1,280,2,1,1,1,535
3481,7,1,281,10,1,1,1,506
3482,7,1,282,5,1,1,1,1000
3483,7,1,283,5,0,0,1,567
3484,7,1,284,5,0,0,1,506
3485,7,1,285,20,1,1,1,597
3486,7,1,286,10,0,0,1,855
3487,7,1,287,2,1,1,1,501
3488,7,1,288,32,1,1,1,822
3489,7,1,289,32,0,0,1,615
3490,7,1,290,20,0,0,1,546
3491,7,1,291,2,1,1,1,442
3492,7,1,292,32,1,1,1,1465
3493,7,1,293,20,0,0,1,484
3494,7,1,294,32,1,1,1,809
3495,7,1,295,2,1,1,0,457
3496,7,1,296,10,0,0,1,549
3497,7,1,297,5,1,1,1,518
3498,7,1,298,1,0,0,1,451
3499,7,1,299,32,0,0,1,583
3500,7,1,300,5,0,0,1,723
3501,7,1,301,2,0,0,1,603
3502,7,1,302,2,0,0,1,436
3503,7,1,303,32,0,0,1,499
3504,7,1,304,2,0,0,1,390
3505,7,1,305,5,0,0,1,391
3506,7,1,306,2,0,0,1,410
3507,7,1,307,2,0,0,1,383
3508,7,1,308,20,0,0,1,394
3509,7,1,309,10,1,1,1,571
3510,7,1,310,20,1,1,1,802
3511,7,1,311,10,0,0,1,436
3512,7,1,312,20,0,0,1,480
3513,7,1,313,1,1,1,1,542
3514,7,1,314,10,0,0,1,544
3515,7,1,315,1,1,1,1,478
3516,7,1,316,2,0,0,1,467
3517,7,1,317,5,1,1,1,746
3518,7,1,318,2,0,0,1,556
3519,7,1,319,2,0,0,1,432
3520,7,1,320,20,1,1,1,521
3521,7,1,321,32,1,1,1,701
3522,7,1,322,20,0,0,1,382
3523,7,1,323,10,0,0,1,573
3524,7,1,324,32,1,1,1,569
3525,7,1,325,5,1,1,1,433
3526,7,1,326,5,1,1,1,456
3527,7,1,327,10,0,0,1,437
3528,7,1,328,20,1,1,1,501
3529,7,1,329,10,1,1,1,1117
3530,7,1,330,32,1,1,1,887
3531,7,1,331,32,0,0,1,650
3532,7,1,332,10,0,0,1,549
3533,7,1,333,32,0,0,1,446
3534,7,1,334,20,1,1,1,557
3535,7,1,335,5,1,1,1,689
3536,7,1,336,20,1,1,1,790
3537,7,1,337,10,1,1,1,1020
3538,7,1,338,2,1,1,1,591
3539,7,1,339,5,1,1,1,576
3540,7,1,340,10,1,1,1,446
3541,7,1,341,2,1,1,1,553
3542,7,1,342,10,0,0,1,457
3543,7,1,343,2,0,0,1,442
3544,7,1,344,20,1,1,1,505
3545,7,1,345,32,1,1,0,489
3546,7,1,346,5,0,0,1,576
3547,7,1,347,20,0,0,1,911
3548,7,1,348,10,1,1,1,601
3549,7,1,349,5,0,0,1,609
3550,7,1,350,1,0,0,1,624
3551,7,1,351,32,1,1,1,715
3552,7,1,352,10,1,1,1,563
3553,7,1,353,5,1,1,1,434
3554,7,1,354,32,0,0,1,538
3555,7,1,355,5,1,1,1,701
3556,7,1,356,10,0,0,1,613
3557,7,1,357,20,1,1,1,690
3558,7,1,358,10,0,0,1,462
3559,7,1,359,5,0,0,1,552
3560,7,1,360,20,0,0,1,585
3561,7,1,361,10,1,1,1,551
3562,7,1,362,20,1,1,1,596
3563,7,1,363,5,1,1,1,508
3564,7,1,364,10,0,0,1,567
3565,7,1,365,10,0,0,1,496
3566,7,1,366,2,1,1,1,608
3567,7,1,367,2,1,1,1,435
3568,7,1,368,10,0,0,1,616
3569,7,1,369,5,1,1,1,543
3570,7,1,370,20,0,0,1,634
3571,7,1,371,10,0,0,1,425
3572,7,1,372,10,1,1,1,461
3573,7,1,373,10,1,1,1,728
3574,7,1,374,5,1,1,1,485
3575,7,1,375,32,0,0,1,763
3576,7,1,376,2,1,1,1,527
3577,7,1,377,20,0,0,1,527
3578,7,1,378,32,1,1,1,631
3579,7,1,379,2,1,1,1,460
3580,7,1,380,2,0,0,1,570
3581,7,1,381,32,0,0,1,721
3582,7,1,382,20,1,1,1,695
3583,7,1,383,10,0,0,1,523
3584,7,1,384,10,1,1,1,490
3585,7,1,385,20,0,0,1,771
3586,7,1,386,20,1,1,1,612
3587,7,1,387,2,1,1,1,500
3588,7,1,388,1,1,1,1,634
3589,7,1,389,10,0,0,1,552
3590,7,1,390,32,0,0,1,596
3591,7,1,391,5,1,1,1,786
3592,7,1,392,2,0,0,1,418
3593,7,1,393,20,1,1,1,561
3594,7,1,394,10,0,0,1,571
3595,7,1,395,20,1,1,1,522
3596,7,1,396,10,1,1,1,480
3597,7,1,397,10,0,0,1,554
3598,7,1,398,1,1,1,1,442
3599,7,1,399,10,0,0,1,626
3600,7,1,400,32,1,1,1,579
3601,7,1,401,20,0,0,1,460
3602,7,1,402,20,1,1,1,493
3603,7,1,403,10,0,0,1,381
3604,7,1,404,10,1,1,1,560
3605,7,1,405,20,0,0,1,708
3606,7,1,406,10,1,1,1,554
3607,7,1,407,32,1,1,1,485
3608,7,1,408,20,1,1,1,716
3609,7,1,409,10,0,0,1,618
3610,7,1,410,20,0,0,1,589
3611,7,1,411,5,0,0,1,520
3612,7,1,412,2,0,0,1,523
3613,7,1,413,20,0,0,1,443
3614,7,1,414,1,1,1,0,700
3615,7,1,415,20,0,0,1,473
3616,7,1,416,2,1,1,1,476
3617,7,1,417,20,0,0,1,402
3618,7,1,418,20,0,0,1,599
3619,7,1,419,1,1,1,1,647
3620,7,1,420,32,0,0,1,553
3621,7,1,421,32,1,1,1,1102
3622,7,1,422,20,1,1,1,462
3623,7,1,423,2,1,1,1,605
3624,7,1,424,20,0,0,1,753
3625,7,1,425,20,0,0,1,538
3626,7,1,426,32,0,0,1,740
3627,7,1,427,5,1,1,1,1091
3628,7,1,428,32,1,1,1,498
3629,7,1,429,2,1,1,1,787
3630,7,1,430,20,0,0,1,429
3631,7,1,431,32,1,1,1,432
3632,7,1,432,32,1,1,1,556
3633,7,1,433,32,0,0,1,583
3634,7,1,434,1,1,1,1,557
3635,7,1,435,5,0,0,1,563
3636,7,1,436,5,1,1,1,466
3637,7,1,437,10,0,0,1,581
3638,7,1,438,5,0,0,1,456
3639,7,1,439,20,1,1,1,513
3640,7,1,440,2,1,1,1,713
3641,7,1,441,20,0,0,1,480
3642,7,1,442,20,1,1,1,411
3643,7,1,443,32,0,0,1,565
3644,7,1,444,32,1,1,1,681
3645,7,1,445,32,0,0,1,582
3646,7,1,446,5,0,0,1,536
3647,7,1,447,10,0,0,1,605
3648,7,1,448,10,0,0,1,484
3649,7,1,449,32,0,0,1,645
3650,7,1,450,5,1,1,1,528
3651,7,1,451,1,0,0,1,395
3652,7,1,452,32,0,0,1,1128
3653,7,1,453,32,1,1,1,613
3654,7,1,454,1,0,0,1,506
3655,7,1,455,5,1,1,1,782
3656,7,1,456,2,1,1,1,543
3657,7,1,457,20,0,0,1,795
3658,7,1,458,20,0,0,1,545
3659,7,1,459,5,0,0,1,470
3660,7,1,460,10,1,1,1,839
3661,7,1,461,10,0,0,1,1177
3662,7,1,462,2,1,1,1,583
3663,7,1,463,32,1,1,1,464
3664,7,1,464,20,0,0,1,656
3665,7,1,465,32,0,0,1,538
3666,7,1,466,10,1,1,1,510
3667,7,1,467,32,0,0,1,520
3668,7,1,468,2,0,0,1,534
3669,7,1,469,32,1,1,1,509
3670,7,1,470,2,0,0,1,511
3671,7,1,471,5,1,1,0,688
3672,7,1,472,2,0,0,1,502
3673,7,1,473,2,1,1,1,618
3674,7,1,474,20,0,0,1,520
3675,7,1,475,5,0,0,1,625
3676,7,1,476,10,1,1,0,563
3677,7,1,477,10,0,0,1,709
3678,7,1,478,20,1,1,1,555
3679,7,1,479,5,1,1,1,708
3680,7,1,480,1,0,0,1,435
3681,7,1,481,20,1,1,1,485
3682,7,1,482,10,0,0,1,547
3683,7,1,483,5,0,0,1,508
3684,7,1,484,32,0,0,1,447
3685,7,1,485,32,0,0,1,407
3686,7,1,486,10,1,1,1,556
3687,7,1,487,1,0,0,1,418
3688,7,1,488,2,1,1,1,511
3689,7,1,489,2,0,0,1,477
3690,7,1,490,2,1,1,1,399
3691,7,1,491,2,1,1,1,853
3692,7,1,492,2,0,0,1,492
3693,7,1,493,10,1,1,1,571
3694,7,1,494,5,0,0,1,475
3695,7,1,495,5,0,0,1,559
3696,7,1,496,5,1,1,1,546
3697,7,1,497,2,0,0,1,474
3698,7,1,498,10,0,0,1,629
3699,7,1,499,5,1,1,1,546
3700,7,1,500,2,0,0,1,410
3701,7,1,501,20,1,1,1,1073
3702,7,1,502,2,0,0,1,559
3703,7,1,503,5,0,0,1,669
3704,7,1,504,32,1,1,1,610
3705,7,1,505,32,1,1,1,586
3706,7,1,506,5,1,1,1,537
3707,7,1,507,5,1,1,1,488
3708,7,1,508,32,0,0,1,576
3709,7,1,509,5,0,0,1,606
3710,7,1,510,5,1,1,1,512
3711,7,1,511,5,1,1,1,587
3712,7,1,512,32,0,0,1,605
3713,7,1,513,20,1,1,1,595
3714,7,1,514,20,0,0,1,499
3715,7,1,515,5,0,0,1,492
3716,7,1,516,5,0,0,1,668
3717,7,1,517,5,1,1,1,528
3718,7,1,518,2,0,0,1,598
3719,7,1,519,2,0,0,1,572
3720,7,1,520,10,0,0,1,579
3721,7,1,521,10,0,0,1,479
3722,7,1,522,1,1,1,1,419
3723,7,1,523,2,0,0,1,527
3724,7,1,524,20,0,0,1,537
3725,7,1,525,10,1,1,1,551
3726,7,1,526,10,0,0,1,519
3727,7,1,527,2,0,0,1,410
3728,7,1,528,32,1,1,1,764
3729,7,1,529,20,0,0,1,400
3730,7,1,530,5,1,1,0,438
3731,7,1,531,20,0,0,1,479
3732,7,1,532,20,1,1,1,557
3733,7,1,533,2,1,1,1,524
3734,7,1,534,2,1,1,1,573
3735,7,1,535,32,0,0,1,651
3736,7,1,536,20,0,0,1,525
3737,7,1,537,10,1,1,1,539
3738,7,1,538,2,0,0,1,545
3739,7,1,539,32,1,1,1,598
3740,7,1,540,5,1,1,1,472
3741,7,1,541,10,0,0,1,523
3742,7,1,542,2,0,0,1,410
3743,7,1,543,2,0,0,1,494
3744,7,1,544,10,0,0,1,519
3745,7,1,545,32,1,1,1,635
3746,7,1,546,20,0,0,1,553
3747,7,1,547,1,1,1,1,514
3748,7,1,548,20,1,1,1,542
3749,7,1,549,1,0,0,1,582
3750,7,1,550,32,0,0,1,461
3751,7,1,551,2,0,0,1,425
3752,7,1,552,20,1,1,1,660
3753,7,1,553,32,0,0,1,653
3754,7,1,554,20,1,1,1,814
3755,7,1,555,10,0,0,1,471
3756,7,1,556,20,0,0,1,699
3757,7,1,557,5,1,1,1,766
3758,7,1,558,2,1,1,1,455
3759,7,1,559,20,0,0,1,626
3760,7,1,560,32,1,1,1,649
3761,7,1,561,10,0,0,1,1055
3762,7,1,562,5,0,0,1,473
3763,7,1,563,32,0,0,1,478
3764,7,1,564,5,1,1,1,511
3765,7,1,565,20,1,1,1,725
3766,7,1,566,2,0,0,1,452
3767,7,1,567,32,0,0,1,644
3768,7,1,568,32,0,0,1,518
3769,7,1,569,5,1,1,1,593
3770,7,1,570,10,1,1,1,506
3771,7,1,571,20,0,0,1,585
3772,7,1,572,5,0,0,1,654
3773,7,1,573,2,0,0,1,519
3774,7,1,574,32,1,1,1,693
3775,7,1,575,2,1,1,1,596
3776,7,1,576,10,0,0,1,530
3777,7,1,577,2,1,1,1,639
3778,7,1,578,2,1,1,1,552
3779,7,1,579,20,0,0,1,768
3780,7,1,580,32,0,0,1,500
3781,7,1,581,5,0,0,1,651
3782,7,1,582,32,0,0,1,534
3783,7,1,583,5,1,1,1,558
3784,7,1,584,2,1,1,1,720
3785,7,1,585,32,0,0,1,454
3786,7,1,586,20,1,1,1,636
3787,7,1,587,20,0,0,1,407
3788,7,1,588,2,1,1,1,645
3789,7,1,589,10,1,1,1,693
3790,7,1,590,10,1,1,1,678
3791,7,1,591,32,0,0,1,736
3792,7,1,592,2,0,0,1,426
3793,7,1,593,32,0,0,1,589
3794,7,1,594,20,0,0,1,506
3795,7,1,595,10,0,0,1,576
3796,7,1,596,20,1,1,1,622
3797,7,1,597,10,0,0,1,422
3798,7,1,598,1,1,1,1,536
3799,7,1,599,32,0,0,1,422
3800,7,1,600,32,0,0,1,705
3801,7,1,601,5,0,0,1,572
3802,7,1,602,10,1,1,1,578
3803,7,1,603,5,1,1,1,590
3804,7,1,604,10,1,1,1,627
3805,7,1,605,32,0,0,1,461
3806,7,1,606,32,1,1,1,424
3807,7,1,607,5,0,0,0,404
3808,7,1,608,32,0,0,1,1043
3809,7,1,609,1,0,0,1,408
3810,7,1,610,5,0,0,1,413
3811,7,1,611,10,0,0,1,711
3812,7,1,612,5,1,1,1,495
3813,7,1,613,2,0,0,1,568
3814,7,1,614,2,0,0,1,447
3815,7,1,615,5,1,1,1,620
3816,7,1,616,10,1,1,1,460
3817,7,1,617,32,1,1,1,510
3818,7,1,618,5,0,0,1,976
3819,7,1,619,5,1,1,1,469
3820,7,1,620,32,1,1,1,582
3821,7,1,621,32,0,0,1,716
3822,7,1,622,10,0,0,1,490
3823,7,1,623,10,0,0,0,482
3824,7,1,624,10,0,0,1,472
3825,7,1,625,5,0,0,1,516
3826,7,1,626,5,0,0,1,477
3827,7,1,627,32,1,1,1,590
3828,7,1,628,1,0,0,1,407
3829,7,1,629,2,0,0,1,772
3830,7,1,630,32,0,0,1,1666
3831,7,1,631,20,1,1,1,767
3832,7,1,632,20,0,0,1,476
3833,7,1,633,10,0,0,1,496
3834,7,1,634,2,0,0,1,640
3835,7,1,635,32,1,1,1,642
3836,7,1,636,20,1,1,1,569
3837,7,1,637,5,1,1,1,546
3838,7,1,638,20,1,1,1,1154
3839,7,1,639,20,1,1,1,564
3840,7,1,640,2,1,1,1,527
3841,8,1,1,32,1,1,1,613
3842,8,1,2,2,1,1,1,487
3843,8,1,3,10,1,1,1,580
3844,8,1,4,10,1,1,1,426
3845,8,1,5,5,1,1,1,498
3846,8,1,6,2,0,0,0,610
3847,8,1,7,32,0,0,1,608
3848,8,1,8,2,0,0,1,602
3849,8,1,9,10,1,1,1,546
3850,8,1,10,1,0,0,1,511
3851,8,1,11,32,0,0,1,638
3852,8,1,12,32,1,1,1,581
3853,8,1,13,10,0,0,1,571
3854,8,1,14,1,0,0,1,556
3855,8,1,15,2,0,0,1,663
3856,8,1,16,20,1,1,1,582
3857,8,1,17,2,1,1,1,689
3858,8,1,18,32,1,1,1,834
3859,8,1,19,20,0,0,1,896
3860,8,1,20,5,0,0,1,597
3861,8,1,21,10,0,0,1,643
3862,8,1,22,5,1,1,1,602
3863,8,1,23,10,1,1,1,564
3864,8,1,24,32,1,1,1,581
3865,8,1,25,32,1,1,1,587
3866,8,1,26,2,1,1,1,487
3867,8,1,27,5,1,1,1,597
3868,8,1,28,20,0,0,1,497
3869,8,1,29,32,0,0,1,1310
3870,8,1,30,32,0,0,1,766
3871,8,1,31,2,1,1,1,704
3872,8,1,32,2,0,0,1,723
3873,8,1,33,5,0,0,1,1085
3874,8,1,34,2,1,1,1,1163
3875,8,1,35,10,1,1,1,611
3876,8,1,36,5,1,1,1,499
3877,8,1,37,20,0,0,1,490
3878,8,1,38,10,0,0,1,694
3879,8,1,39,2,1,1,0,678
3880,8,1,40,32,1,1,1,670
3881,8,1,41,32,0,0,1,1146
3882,8,1,42,2,1,1,1,774
3883,8,1,43,10,1,1,1,541
3884,8,1,44,2,1,1,1,565
3885,8,1,45,1,1,1,1,636
3886,8,1,46,32,1,1,1,594
3887,8,1,47,5,0,0,1,583
3888,8,1,48,20,1,1,1,718
3889,8,1,49,1,0,0,1,818
3890,8,1,50,2,0,0,1,546
3891,8,1,51,32,0,0,1,567
3892,8,1,52,10,1,1,1,630
3893,8,1,53,2,1,1,1,626
3894,8,1,54,1,1,1,1,490
3895,8,1,55,32,0,0,1,666
3896,8,1,56,20,0,0,1,558
3897,8,1,57,20,1,1,1,552
3898,8,1,58,32,0,0,1,519
3899,8,1,59,10,1,1,1,799
3900,8,1,60,5,0,0,1,734
3901,8,1,61,20,0,0,1,660
3902,8,1,62,5,0,0,1,582
3903,8,1,63,2,1,1,1,574
3904,8,1,64,1,0,0,1,651
3905,8,1,65,32,1,1,1,685
3906,8,1,66,32,1,1,1,569
3907,8,1,67,20,0,0,1,748
3908,8,1,68,20,0,0,1,498
3909,8,1,69,10,0,0,1,493
3910,8,1,70,20,1,1,1,989
3911,8,1,71,20,0,0,1,539
3912,8,1,72,5,0,0,1,553
3913,8,1,73,2,1,1,1,821
3914,8,1,74,20,1,1,1,506
3915,8,1,75,5,0,0,1,557
3916,8,1,76,5,0,0,1,563
3917,8,1,77,5,0,0,1,551
3918,8,1,78,2,1,1,1,505
3919,8,1,79,5,0,0,1,502
3920,8,1,80,2,1,1,1,439
3921,8,1,81,20,0,0,1,525
3922,8,1,82,5,0,0,1,435
3923,8,1,83,20,1,1,1,481
3924,8,1,84,32,1,1,1,517
3925,8,1,85,2,1,1,1,869
3926,8,1,86,20,1,1,1,536
3927,8,1,87,10,1,1,1,666
3928,8,1,88,5,0,0,1,460
3929,8,1,89,1,1,1,1,363
3930,8,1,90,32,1,1,1,559
3931,8,1,91,32,0,0,1,581
3932,8,1,92,32,1,1,1,585
3933,8,1,93,2,0,0,1,464
3934,8,1,94,20,1,1,1,596
3935,8,1,95,10,0,0,1,714
3936,8,1,96,20,0,0,1,535
3937,8,1,97,5,1,1,1,615
3938,8,1,98,2,0,0,1,702
3939,8,1,99,32,1,1,1,998
3940,8,1,100,10,0,0,1,619
3941,8,1,101,10,1,1,1,552
3942,8,1,102,10,1,1,1,687
3943,8,1,103,32,0,0,1,1072
3944,8,1,104,5,0,0,1,479
3945,8,1,105,10,1,1,1,585
3946,8,1,106,32,0,0,1,528
3947,8,1,107,32,0,0,1,656
3948,8,1,108,32,0,0,1,558
3949,8,1,109,5,0,0,1,564
3950,8,1,110,20,1,1,1,545
3951,8,1,111,5,0,0,1,511
3952,8,1,112,10,0,0,1,586
3953,8,1,113,5,1,1,1,619
3954,8,1,114,32,1,1,1,590
3955,8,1,115,1,0,0,1,450
3956,8,1,116,32,1,1,1,1044
3957,8,1,117,32,0,0,1,517
3958,8,1,118,5,1,1,1,1195
3959,8,1,119,1,0,0,1,553
3960,8,1,120,20,1,1,1,500
3961,8,1,121,10,0,0,1,982
3962,8,1,122,10,0,0,1,586
3963,8,1,123,2,1,1,1,986
3964,8,1,124,10,0,0,1,809
3965,8,1,125,2,1,1,1,746
3966,8,1,126,10,0,0,1,641
3967,8,1,127,10,0,0,1,574
3968,8,1,128,2,1,1,1,597
3969,8,1,129,20,1,1,1,475
3970,8,1,130,2,0,0,1,650
3971,8,1,131,32,1,1,1,557
3972,8,1,132,32,0,0,1,713
3973,8,1,133,32,1,1,1,750
3974,8,1,134,10,0,0,1,862
3975,8,1,135,10,1,1,1,694
3976,8,1,136,1,1,1,1,486
3977,8,1,137,10,0,0,1,540
3978,8,1,138,10,0,0,1,496
