trial_id,Subject,block_n,Trial,set_size,correctResponse,resp,acc,RT
1,1,1,1,1,0,0,1,526
2,1,1,2,20,1,1,1,563
3,1,1,3,10,0,0,1,713
4,1,1,4,5,1,1,1,870
5,1,1,5,2,1,1,1,598
6,1,1,6,20,0,0,1,844
7,1,1,7,5,1,1,1,525
8,1,1,8,10,1,1,1,536
9,1,1,9,32,0,0,1,753
10,1,1,10,2,1,1,0,419
11,1,1,11,20,1,1,1,548
12,1,1,12,5,0,0,1,479
13,1,1,13,20,0,0,1,539
14,1,1,14,2,0,0,1,498
15,1,1,15,10,0,0,1,610
16,1,1,16,5,1,1,1,796
17,1,1,17,32,0,0,1,1051
18,1,1,18,32,0,0,1,605
19,1,1,19,2,1,1,1,550
20,1,1,20,5,1,1,1,522
21,1,1,21,2,1,1,1,575
22,1,1,22,20,0,0,1,500
23,1,1,23,10,1,1,1,794
24,1,1,24,32,0,0,1,521
25,1,1,25,2,1,1,1,913
26,1,1,26,32,0,0,1,552
27,1,1,27,32,0,0,1,932
28,1,1,28,10,0,0,1,496
29,1,1,29,2,1,1,1,837
30,1,1,30,32,1,1,1,809
31,1,1,31,1,1,1,1,535
32,1,1,32,10,0,0,1,601
33,1,1,33,10,0,0,1,680
34,1,1,34,10,1,1,1,721
35,1,1,35,10,1,1,1,680
36,1,1,36,20,1,1,1,738
37,1,1,37,5,0,0,1,595
38,1,1,38,5,0,0,0,401
39,1,1,39,20,0,0,1,692
40,1,1,40,10,0,0,1,605
41,1,1,41,5,1,1,1,1014
42,1,1,42,32,0,0,1,826
43,1,1,43,2,0,0,1,441
44,1,1,44,20,1,1,1,697
45,1,1,45,10,1,1,1,425
46,1,1,46,32,1,1,1,489
47,1,1,47,32,1,1,1,723
48,1,1,48,5,1,1,1,489
49,1,1,49,2,0,0,1,853
50,1,1,50,32,1,1,1,885
51,1,1,51,32,1,1,1,635
52,1,1,52,10,1,1,1,614
53,1,1,53,5,1,1,1,507
54,1,1,54,20,0,0,1,606
55,1,1,55,2,0,0,1,529
56,1,1,56,20,0,0,1,531
57,1,1,57,10,1,1,1,858
58,1,1,58,32,0,0,1,795
59,1,1,59,32,1,1,1,546
60,1,1,60,10,1,1,1,592
61,1,1,61,20,0,0,1,892
62,1,1,62,5,0,0,1,498
63,1,1,63,10,0,0,1,547
64,1,1,64,20,0,0,1,498
65,1,1,65,32,1,1,1,640
66,1,1,66,2,1,1,1,409
67,1,1,67,2,1,1,1,348
68,1,1,68,10,0,0,1,424
69,1,1,69,20,1,1,0,477
70,1,1,70,20,1,1,1,451
71,1,1,71,32,1,1,1,606
72,1,1,72,2,1,1,1,397
73,1,1,73,10,0,0,1,853
74,1,1,74,2,0,0,1,688
75,1,1,75,20,1,1,1,579
76,1,1,76,5,0,0,1,628
77,1,1,77,20,1,1,1,601
78,1,1,78,10,0,0,1,522
79,1,1,79,32,0,0,1,668
80,1,1,80,32,1,1,1,634
81,1,1,81,5,0,0,1,778
82,1,1,82,32,1,1,1,843
83,1,1,83,1,1,1,1,418
84,1,1,84,2,1,1,1,345
85,1,1,85,5,0,0,1,405
86,1,1,86,20,1,1,1,749
87,1,1,87,2,1,1,1,769
88,1,1,88,20,0,0,1,1189
89,1,1,89,10,1,1,1,635
90,1,1,90,10,0,0,1,632
91,1,1,91,32,0,0,1,798
92,1,1,92,20,0,0,1,637
93,1,1,93,5,0,0,1,736
94,1,1,94,1,1,1,1,556
95,1,1,95,32,1,1,1,537
96,1,1,96,20,1,1,1,387
97,1,1,97,1,0,0,1,385
98,1,1,98,5,1,1,1,602
99,1,1,99,10,0,0,1,547
100,1,1,100,32,1,1,1,594
101,1,1,101,1,0,0,1,442
102,1,1,102,32,1,1,1,649
103,1,1,103,5,0,0,1,553
104,1,1,104,32,0,0,1,608
105,1,1,105,20,1,1,1,493
106,1,1,106,5,1,1,1,509
107,1,1,107,32,0,0,1,803
108,1,1,108,32,1,1,1,822
109,1,1,109,32,1,1,1,647
110,1,1,110,5,1,1,0,449
111,1,1,111,5,0,0,1,517
112,1,1,112,10,1,1,1,533
113,1,1,113,2,1,1,1,720
114,1,1,114,2,0,0,1,459
115,1,1,115,2,0,0,1,487
116,1,1,116,2,1,1,1,528
117,1,1,117,5,1,1,1,1194
118,1,1,118,32,0,0,1,1010
119,1,1,119,32,0,0,1,869
120,1,1,120,20,1,1,1,722
121,1,1,121,20,0,0,1,874
122,1,1,122,10,0,0,1,485
123,1,1,123,32,0,0,1,722
124,1,1,124,20,1,1,1,593
125,1,1,125,5,0,0,1,482
126,1,1,126,10,1,1,1,734
127,1,1,127,2,0,0,1,603
128,1,1,128,32,1,1,1,601
129,1,1,129,5,1,1,1,540
130,1,1,130,20,0,0,1,678
131,1,1,131,32,0,0,1,576
132,1,1,132,2,0,0,1,596
133,1,1,133,32,1,1,1,545
134,1,1,134,5,0,0,1,644
135,1,1,135,32,1,1,1,400
136,1,1,136,2,0,0,1,729
137,1,1,137,5,0,0,1,501
138,1,1,138,10,0,0,1,480
139,1,1,139,1,0,0,1,473
140,1,1,140,1,1,1,1,382
141,1,1,141,1,0,0,0,358
142,1,1,142,10,0,0,1,640
143,1,1,143,32,0,0,1,755
144,1,1,144,32,1,1,1,616
145,1,1,145,2,0,0,1,620
146,1,1,146,10,0,0,1,545
147,1,1,147,1,1,1,1,452
148,1,1,148,10,0,0,1,692
149,1,1,149,20,0,0,1,615
150,1,1,150,2,1,1,1,715
151,1,1,151,10,1,1,1,1333
152,1,1,152,5,0,0,1,499
153,1,1,153,20,0,0,1,566
154,1,1,154,32,1,1,1,1155
155,1,1,155,10,1,1,1,527
156,1,1,156,32,0,0,1,576
157,1,1,157,2,0,0,1,467
158,1,1,158,32,0,0,1,593
159,1,1,159,10,1,1,1,675
160,1,1,160,2,0,0,1,456
161,1,1,161,10,0,0,1,874
162,1,1,162,20,1,1,1,593
163,1,1,163,10,1,1,1,690
164,1,1,164,20,1,1,1,601
165,1,1,165,2,1,1,1,692
166,1,1,166,10,1,1,1,873
167,1,1,167,5,0,0,1,633
168,1,1,168,2,0,0,1,874
169,1,1,169,10,1,1,1,714
170,1,1,170,10,1,1,1,449
171,1,1,171,2,0,0,1,557
172,1,1,172,5,0,0,1,573
173,1,1,173,20,0,0,1,682
174,1,1,174,32,0,0,1,647
175,1,1,175,2,0,0,1,408
176,1,1,176,10,0,0,1,481
177,1,1,177,1,0,0,1,553
178,1,1,178,10,0,0,1,682
179,1,1,179,32,0,0,1,681
180,1,1,180,5,0,0,1,528
181,1,1,181,2,1,1,1,1253
182,1,1,182,32,1,1,1,760
183,1,1,183,5,0,0,1,721
184,1,1,184,5,1,1,1,1061
185,1,1,185,10,1,1,1,689
186,1,1,186,10,1,1,1,768
187,1,1,187,32,0,0,1,854
188,1,1,188,10,0,0,1,1196
189,1,1,189,32,0,0,1,642
190,1,1,190,2,1,1,1,614
191,1,1,191,2,0,0,1,602
192,1,1,192,20,0,0,1,721
193,1,1,193,32,0,0,1,852
194,1,1,194,1,0,0,1,577
195,1,1,195,10,1,1,1,673
196,1,1,196,20,0,0,1,1961
197,1,1,197,10,0,0,1,719
198,1,1,198,2,1,1,1,600
199,1,1,199,10,1,1,1,539
200,1,1,200,20,0,0,1,581
201,1,1,201,32,1,1,1,948
202,1,1,202,20,0,0,1,560
203,1,1,203,2,0,0,1,490
204,1,1,204,5,1,1,1,638
205,1,1,205,10,1,1,1,735
206,1,1,206,2,1,1,1,1643
207,1,1,207,5,0,0,1,557
208,1,1,208,5,0,0,1,651
209,1,1,209,10,0,0,1,438
210,1,1,210,5,1,1,1,378
211,1,1,211,5,1,1,1,552
212,1,1,212,32,1,1,1,389
213,1,1,213,10,1,1,1,458
214,1,1,214,1,1,1,1,322
215,1,1,215,2,0,0,1,455
216,1,1,216,32,0,0,1,685
217,1,1,217,2,0,0,1,401
218,1,1,218,10,0,0,1,542
219,1,1,219,32,1,1,1,889
220,1,1,220,20,0,0,1,651
221,1,1,221,32,0,0,1,507
222,1,1,222,10,0,0,1,401
223,1,1,223,5,0,0,1,683
224,1,1,224,32,0,0,1,703
225,1,1,225,20,0,0,1,549
226,1,1,226,2,1,1,1,589
227,1,1,227,5,0,0,1,544
228,1,1,228,10,0,0,1,525
229,1,1,229,20,1,1,1,369
230,1,1,230,20,1,1,1,361
231,1,1,231,20,0,0,1,696
232,1,1,232,32,0,0,1,579
233,1,1,233,32,1,1,1,537
234,1,1,234,2,1,1,1,581
235,1,1,235,32,0,0,1,511
236,1,1,236,32,1,1,1,632
237,1,1,237,2,0,0,1,494
238,1,1,238,2,1,1,1,549
239,1,1,239,20,0,0,1,572
240,1,1,240,32,1,1,1,727
241,1,1,241,10,1,1,1,531
242,1,1,242,2,0,0,1,870
243,1,1,243,32,1,1,1,671
244,1,1,244,32,0,0,1,612
245,1,1,245,5,0,0,1,930
246,1,1,246,20,1,1,1,968
247,1,1,247,32,1,1,1,655
248,1,1,248,2,0,0,1,590
249,1,1,249,32,1,1,1,494
250,1,1,250,20,0,0,1,528
251,1,1,251,10,0,0,1,504
252,1,1,252,5,1,1,1,600
253,1,1,253,20,0,0,1,1010
254,1,1,254,20,0,0,1,1518
255,1,1,255,5,0,0,1,547
256,1,1,256,5,0,0,1,674
257,1,1,257,5,0,0,1,607
258,1,1,258,2,1,1,1,535
259,1,1,259,10,1,1,1,542
260,1,1,260,2,1,1,1,536
261,1,1,261,1,0,0,1,625
262,1,1,262,1,1,1,1,457
263,1,1,263,32,1,1,1,548
264,1,1,264,10,0,0,0,509
265,1,1,265,20,1,1,1,577
266,1,1,266,20,0,0,1,665
267,1,1,267,20,1,1,1,1093
268,1,1,268,32,0,0,1,644
269,1,1,269,2,1,1,1,657
270,1,1,270,2,1,1,1,627
271,1,1,271,20,0,0,1,684
272,1,1,272,10,0,0,1,509
273,1,1,273,20,1,1,1,890
274,1,1,274,10,0,0,1,553
275,1,1,275,2,1,1,1,572
276,1,1,276,10,0,0,1,625
277,1,1,277,2,1,1,1,641
278,1,1,278,2,1,1,1,828
279,1,1,279,20,1,1,1,513
280,1,1,280,20,0,0,1,715
281,1,1,281,10,0,0,1,1343
282,1,1,282,2,0,0,1,564
283,1,1,283,32,0,0,1,575
284,1,1,284,1,0,0,1,599
285,1,1,285,32,1,1,1,683
286,1,1,286,5,1,1,1,757
287,1,1,287,5,0,0,1,635
288,1,1,288,10,0,0,1,735
289,1,1,289,5,0,0,1,972
290,1,1,290,5,1,1,1,486
291,1,1,291,20,0,0,1,744
292,1,1,292,20,0,0,1,453
293,1,1,293,5,0,0,1,433
294,1,1,294,10,1,1,1,1054
295,1,1,295,32,1,1,1,862
296,1,1,296,1,1,1,1,446
297,1,1,297,2,1,1,1,797
298,1,1,298,2,1,1,1,551
299,1,1,299,10,1,1,1,372
300,1,1,300,10,1,1,1,408
301,1,1,301,2,1,1,1,386
302,1,1,302,32,0,0,1,463
303,1,1,303,20,1,1,1,728
304,1,1,304,2,0,0,1,399
305,1,1,305,20,1,1,1,708
306,1,1,306,2,0,0,1,434
307,1,1,307,5,1,1,1,509
308,1,1,308,10,1,1,1,457
309,1,1,309,5,0,0,1,693
310,1,1,310,32,1,1,1,884
311,1,1,311,20,0,0,1,699
312,1,1,312,20,0,0,1,703
313,1,1,313,20,0,0,1,679
314,1,1,314,10,0,0,1,730
315,1,1,315,5,0,0,1,497
316,1,1,316,2,1,1,1,972
317,1,1,317,32,0,0,1,486
318,1,1,318,10,1,1,1,1093
319,1,1,319,20,1,1,1,858
320,1,1,320,20,1,1,1,642
321,1,1,321,20,1,1,1,767
322,1,1,322,32,0,0,1,540
323,1,1,323,10,1,1,1,857
324,1,1,324,5,0,0,1,878
325,1,1,325,32,1,1,1,463
326,1,1,326,10,0,0,0,434
327,1,1,327,10,0,0,1,928
328,1,1,328,1,0,0,1,796
329,1,1,329,5,0,0,1,577
330,1,1,330,5,1,1,1,654
331,1,1,331,5,1,1,1,556
332,1,1,332,5,0,0,1,504
333,1,1,333,5,1,1,1,851
334,1,1,334,20,1,1,1,527
335,1,1,335,32,1,1,1,636
336,1,1,336,20,1,1,1,605
337,1,1,337,2,0,0,1,794
338,1,1,338,5,0,0,1,994
339,1,1,339,2,1,1,1,375
340,1,1,340,10,0,0,1,675
341,1,1,341,10,0,0,1,806
342,1,1,342,20,0,0,1,639
343,1,1,343,20,0,0,1,445
344,1,1,344,32,1,1,1,696
345,1,1,345,2,0,0,1,811
346,1,1,346,2,1,1,1,481
347,1,1,347,2,1,1,1,440
348,1,1,348,5,1,1,1,728
349,1,1,349,10,0,0,1,800
350,1,1,350,5,0,0,1,908
351,1,1,351,32,1,1,1,702
352,1,1,352,5,0,0,1,1060
353,1,1,353,10,0,0,1,737
354,1,1,354,5,0,0,1,596
355,1,1,355,20,0,0,1,616
356,1,1,356,5,1,1,1,719
357,1,1,357,32,0,0,1,900
358,1,1,358,32,0,0,1,751
359,1,1,359,20,1,1,1,574
360,1,1,360,20,1,1,1,432
361,1,1,361,10,0,0,1,974
362,1,1,362,20,1,1,1,593
363,1,1,363,10,1,1,1,375
364,1,1,364,2,1,1,1,365
365,1,1,365,10,0,0,1,562
366,1,1,366,10,0,0,1,575
367,1,1,367,20,0,0,1,570
368,1,1,368,32,1,1,1,663
369,1,1,369,5,1,1,1,457
370,1,1,370,32,1,1,1,489
371,1,1,371,5,0,0,1,600
372,1,1,372,2,0,0,1,458
373,1,1,373,5,1,1,1,432
374,1,1,374,5,1,1,1,549
375,1,1,375,2,0,0,1,786
376,1,1,376,32,0,0,1,530
377,1,1,377,1,0,0,1,585
378,1,1,378,10,0,0,1,558
379,1,1,379,32,1,1,1,409
380,1,1,380,20,1,1,1,555
381,1,1,381,32,0,0,1,490
382,1,1,382,20,0,0,0,378
383,1,1,383,32,0,0,1,861
384,1,1,384,5,1,1,1,561
385,1,1,385,5,1,1,1,467
386,1,1,386,2,1,1,1,421
387,1,1,387,10,0,0,1,478
388,1,1,388,32,0,0,1,649
389,1,1,389,5,0,0,1,513
390,1,1,390,32,0,0,1,449
391,1,1,391,20,0,0,0,377
392,1,1,392,5,1,1,1,395
393,1,1,393,32,0,0,1,574
394,1,1,394,20,1,1,1,525
395,1,1,395,2,1,1,1,818
396,1,1,396,2,1,1,1,684
397,1,1,397,2,1,1,1,584
398,1,1,398,10,1,1,1,505
399,1,1,399,5,0,0,1,480
400,1,1,400,32,0,0,1,597
401,1,1,401,5,0,0,1,690
402,1,1,402,2,0,0,1,461
403,1,1,403,10,0,0,1,432
404,1,1,404,5,0,0,1,416
405,1,1,405,32,1,1,1,510
406,1,1,406,20,1,1,1,743
407,1,1,407,2,0,0,1,422
408,1,1,408,10,0,0,1,457
409,1,1,409,32,1,1,1,579
410,1,1,410,32,1,1,1,819
411,1,1,411,1,0,0,1,474
412,1,1,412,32,1,1,1,462
413,1,1,413,2,0,0,1,648
414,1,1,414,10,0,0,0,600
415,1,1,415,20,1,1,1,659
416,1,1,416,10,0,0,1,623
417,1,1,417,32,0,0,1,623
418,1,1,418,2,0,0,1,549
419,1,1,419,2,1,1,1,417
420,1,1,420,20,0,0,1,610
421,1,1,421,2,0,0,1,391
422,1,1,422,10,1,1,1,542
423,1,1,423,10,1,1,1,398
424,1,1,424,5,1,1,1,632
425,1,1,425,20,0,0,1,581
426,1,1,426,20,0,0,1,450
427,1,1,427,10,1,1,1,479
428,1,1,428,20,1,1,1,616
429,1,1,429,32,1,1,1,865
430,1,1,430,2,0,0,1,418
431,1,1,431,2,0,0,1,566
432,1,1,432,1,1,1,1,660
433,1,1,433,2,0,0,1,547
434,1,1,434,20,1,1,0,638
435,1,1,435,5,0,0,1,533
436,1,1,436,10,1,1,1,1196
437,1,1,437,10,1,1,1,627
438,1,1,438,5,0,0,1,906
439,1,1,439,2,1,1,1,741
440,1,1,440,32,0,0,1,921
441,1,1,441,1,1,1,1,2101
442,1,1,442,5,1,1,1,531
443,1,1,443,20,1,1,1,509
444,1,1,444,1,0,0,1,403
445,1,1,445,5,1,1,1,893
446,1,1,446,5,1,1,1,416
447,1,1,447,32,1,1,1,605
448,1,1,448,10,0,0,1,596
449,1,1,449,10,1,1,1,489
450,1,1,450,20,0,0,1,574
451,1,1,451,5,1,1,1,467
452,1,1,452,10,1,1,1,555
453,1,1,453,5,0,0,1,625
454,1,1,454,20,1,1,1,924
455,1,1,455,2,0,0,0,469
456,1,1,456,10,1,1,1,616
457,1,1,457,2,0,0,1,554
458,1,1,458,2,0,0,1,561
459,1,1,459,5,1,1,1,698
460,1,1,460,2,0,0,1,977
461,1,1,461,5,1,1,1,856
462,1,1,462,20,1,1,1,662
463,1,1,463,5,0,0,1,569
464,1,1,464,5,1,1,1,765
465,1,1,465,1,0,0,1,656
466,1,1,466,1,1,1,1,418
467,1,1,467,10,1,1,1,506
468,1,1,468,5,1,1,1,502
469,1,1,469,32,0,0,1,638
470,1,1,470,32,1,1,1,485
471,1,1,471,10,1,1,1,505
472,1,1,472,20,1,1,1,533
473,1,1,473,1,1,1,1,418
474,1,1,474,20,1,1,1,469
475,1,1,475,5,1,1,1,637
476,1,1,476,5,0,0,1,895
477,1,1,477,2,1,1,1,526
478,1,1,478,32,0,0,1,628
479,1,1,479,5,0,0,1,507
480,1,1,480,32,1,1,1,424
481,1,1,481,32,0,0,1,1083
482,1,1,482,20,1,1,1,619
483,1,1,483,1,1,1,1,1152
484,1,1,484,2,1,1,1,505
485,1,1,485,5,1,1,1,409
486,1,1,486,32,1,1,1,592
487,1,1,487,10,1,1,0,361
488,1,1,488,20,0,0,1,731
489,1,1,489,2,1,1,1,841
490,1,1,490,5,1,1,1,571
491,1,1,491,5,0,0,1,733
492,1,1,492,20,1,1,1,1021
493,1,1,493,2,0,0,1,508
494,1,1,494,5,0,0,1,476
495,1,1,495,10,1,1,1,496
496,1,1,496,20,1,1,1,534
497,1,1,497,1,0,0,1,694
498,1,1,498,32,0,0,1,608
499,1,1,499,10,1,1,1,676
500,1,1,500,20,1,1,1,852
501,1,1,501,10,0,0,1,1707
502,1,1,502,20,1,1,1,738
503,1,1,503,20,0,0,1,971
504,1,1,504,2,1,1,1,510
505,1,1,505,32,1,1,1,949
506,1,1,506,32,0,0,1,628
507,1,1,507,2,0,0,1,623
508,1,1,508,10,1,1,1,788
509,1,1,509,10,1,1,1,610
510,1,1,510,1,0,0,1,568
511,1,1,511,20,1,1,1,627
512,1,1,512,5,1,1,1,757
513,1,1,513,20,1,1,1,582
514,1,1,514,5,1,1,1,684
515,1,1,515,32,1,1,1,655
516,1,1,516,20,1,1,1,722
517,1,1,517,5,0,0,1,816
518,1,1,518,20,0,0,1,748
519,1,1,519,5,1,1,1,787
520,1,1,520,20,0,0,1,1167
521,1,1,521,1,1,1,1,953
522,1,1,522,10,1,1,1,505
523,1,1,523,20,0,0,1,491
524,1,1,524,10,0,0,1,416
525,1,1,525,5,1,1,1,473
526,1,1,526,5,1,1,1,515
527,1,1,527,10,1,1,1,676
528,1,1,528,5,1,1,1,474
529,1,1,529,32,0,0,1,578
530,1,1,530,20,0,0,1,578
531,1,1,531,5,1,1,1,445
532,1,1,532,5,1,1,1,571
533,1,1,533,20,1,1,1,647
534,1,1,534,20,0,0,1,691
535,1,1,535,20,0,0,1,579
536,1,1,536,2,1,1,1,473
537,1,1,537,1,1,1,1,646
538,1,1,538,5,0,0,1,711
539,1,1,539,2,0,0,1,499
540,1,1,540,32,1,1,1,522
541,1,1,541,20,0,0,1,528
542,1,1,542,32,0,0,1,1041
543,1,1,543,32,1,1,1,586
544,1,1,544,2,0,0,1,620
545,1,1,545,2,1,1,1,870
546,1,1,546,20,0,0,1,605
547,1,1,547,10,1,1,1,644
548,1,1,548,20,1,1,1,536
549,1,1,549,5,1,1,1,408
550,1,1,550,32,0,0,1,880
551,1,1,551,20,0,0,1,607
552,1,1,552,2,0,0,1,753
553,1,1,553,10,1,1,1,741
554,1,1,554,5,0,0,1,656
555,1,1,555,2,0,0,1,559
556,1,1,556,5,0,0,1,671
557,1,1,557,5,1,1,1,512
558,1,1,558,2,1,1,1,984
559,1,1,559,5,0,0,1,490
560,1,1,560,2,0,0,1,619
561,1,1,561,2,1,1,1,1391
562,1,1,562,20,1,1,1,714
563,1,1,563,20,1,1,1,624
564,1,1,564,10,0,0,1,1105
565,1,1,565,2,1,1,1,539
566,1,1,566,5,1,1,1,581
567,1,1,567,5,0,0,1,605
568,1,1,568,20,0,0,1,582
569,1,1,569,20,0,0,1,402
570,1,1,570,10,1,1,0,572
571,1,1,571,5,1,1,0,603
572,1,1,572,32,0,0,1,600
573,1,1,573,1,1,1,1,557
574,1,1,574,2,0,0,1,677
575,1,1,575,2,1,1,1,544
576,1,1,576,1,1,1,1,492
577,1,1,577,2,1,1,1,405
578,1,1,578,10,0,0,1,620
579,1,1,579,5,1,1,1,557
580,1,1,580,2,0,0,1,634
581,1,1,581,1,0,0,1,392
582,1,1,582,20,0,0,1,506
583,1,1,583,10,1,1,0,446
584,1,1,584,5,1,1,1,340
585,1,1,585,10,1,1,1,652
586,1,1,586,32,0,0,1,649
587,1,1,587,32,1,1,1,818
588,1,1,588,10,0,0,1,651
589,1,1,589,10,0,0,1,698
590,1,1,590,10,1,1,1,513
591,1,1,591,1,0,0,1,469
592,1,1,592,32,0,0,1,660
593,1,1,593,1,0,0,1,568
594,1,1,594,10,0,0,1,452
595,1,1,595,32,1,1,1,610
596,1,1,596,10,1,1,1,605
597,1,1,597,2,0,0,1,732
598,1,1,598,1,0,0,1,483
599,1,1,599,2,1,1,1,483
600,1,1,600,2,0,0,1,797
601,1,1,601,32,0,0,1,729
602,1,1,602,2,0,0,1,479
603,1,1,603,5,1,1,1,509
604,1,1,604,20,1,1,1,1051
605,1,1,605,10,0,0,1,459
606,1,1,606,20,1,1,1,750
607,1,1,607,2,0,0,1,753
608,1,1,608,10,0,0,1,489
609,1,1,609,32,1,1,1,398
610,1,1,610,20,0,0,1,517
611,1,1,611,32,1,1,1,575
612,1,1,612,10,1,1,1,562
613,1,1,613,20,1,1,1,361
614,1,1,614,1,1,1,1,565
615,1,1,615,2,0,0,1,647
616,1,1,616,5,1,1,1,460
617,1,1,617,2,0,0,1,737
618,1,1,618,10,0,0,1,505
619,1,1,619,32,1,1,1,727
620,1,1,620,2,0,0,1,579
621,1,1,621,5,0,0,1,545
622,1,1,622,32,0,0,1,549
623,1,1,623,2,1,1,1,472
624,1,1,624,5,1,1,1,584
625,1,1,625,1,1,1,1,577
626,1,1,626,32,1,1,1,486
627,1,1,627,2,1,1,1,392
628,1,1,628,2,1,1,1,679
629,1,1,629,2,0,0,1,520
630,1,1,630,5,0,0,1,519
631,1,1,631,20,1,1,1,462
632,1,1,632,5,0,0,1,464
633,1,1,633,32,0,0,1,549
634,1,1,634,2,0,0,1,871
635,1,1,635,1,1,1,1,382
636,1,1,636,2,1,1,1,519
637,1,1,637,20,0,0,1,502
638,1,1,638,20,1,1,1,668
639,1,1,639,2,1,1,1,506
640,1,1,640,10,1,1,1,640
641,2,1,1,32,0,0,1,915
642,2,1,2,5,1,1,1,656
643,2,1,3,10,1,1,1,772
644,2,1,4,10,1,1,1,883
645,2,1,5,20,1,1,1,758
646,2,1,6,32,0,0,1,704
647,2,1,7,2,1,1,1,501
648,2,1,8,32,1,1,1,718
649,2,1,9,10,1,1,1,651
650,2,1,10,10,1,1,1,848
651,2,1,11,2,1,1,1,554
652,2,1,12,10,0,0,1,706
653,2,1,13,20,1,1,1,639
654,2,1,14,20,1,1,1,582
655,2,1,15,10,1,1,1,644
656,2,1,16,2,0,0,1,925
657,2,1,17,1,0,0,1,837
658,2,1,18,5,0,0,1,751
659,2,1,19,2,0,0,1,829
660,2,1,20,32,0,0,1,822
661,2,1,21,5,0,0,1,981
662,2,1,22,2,1,1,1,881
663,2,1,23,10,1,1,1,772
664,2,1,24,5,0,0,1,657
665,2,1,25,10,0,0,1,852
666,2,1,26,10,1,1,1,677
667,2,1,27,10,0,0,1,905
668,2,1,28,10,0,0,1,718
669,2,1,29,32,1,1,1,603
670,2,1,30,20,1,1,1,910
671,2,1,31,32,0,0,1,683
672,2,1,32,10,1,1,1,631
673,2,1,33,2,1,1,1,714
674,2,1,34,32,0,0,1,846
675,2,1,35,5,1,1,1,560
676,2,1,36,32,1,1,1,904
677,2,1,37,2,1,1,1,839
678,2,1,38,2,0,0,0,566
679,2,1,39,2,0,0,1,1051
680,2,1,40,2,0,0,1,584
681,2,1,41,32,1,1,1,853
682,2,1,42,5,1,1,1,652
683,2,1,43,1,1,1,1,705
684,2,1,44,20,0,0,1,683
685,2,1,45,2,0,0,1,639
686,2,1,46,10,1,1,1,740
687,2,1,47,1,1,1,1,692
688,2,1,48,20,1,1,1,780
689,2,1,49,32,1,1,1,836
690,2,1,50,20,0,0,1,699
691,2,1,51,10,0,0,1,741
692,2,1,52,5,0,0,1,674
693,2,1,53,20,1,1,1,561
694,2,1,54,10,0,0,1,614
695,2,1,55,1,1,1,1,779
696,2,1,56,20,0,0,1,1122
697,2,1,57,10,0,0,1,538
698,2,1,58,1,0,0,1,606
699,2,1,59,20,0,0,1,1312
700,2,1,60,2,0,0,1,595
701,2,1,61,20,0,0,1,616
702,2,1,62,2,0,0,1,572
703,2,1,63,5,0,0,1,1067
704,2,1,64,5,0,0,1,1057
705,2,1,65,32,1,1,1,742
706,2,1,66,10,1,1,1,897
707,2,1,67,10,1,1,1,1031
708,2,1,68,2,0,0,1,704
709,2,1,69,32,1,1,1,1091
710,2,1,70,5,1,1,1,1239
711,2,1,71,10,1,1,1,793
712,2,1,72,10,1,1,1,670
713,2,1,73,32,1,1,1,984
714,2,1,74,32,0,0,1,1048
715,2,1,75,2,0,0,1,615
716,2,1,76,20,1,1,1,904
717,2,1,77,2,0,0,1,736
718,2,1,78,32,0,0,1,1188
719,2,1,79,10,1,1,1,891
720,2,1,80,5,1,1,1,735
721,2,1,81,1,1,1,1,846
722,2,1,82,5,1,1,1,764
723,2,1,83,5,1,1,1,696
724,2,1,84,5,1,1,1,739
725,2,1,85,32,1,1,1,641
726,2,1,86,10,0,0,1,521
727,2,1,87,32,1,1,1,773
728,2,1,88,20,1,1,1,696
729,2,1,89,20,0,0,1,949
730,2,1,90,5,0,0,1,720
731,2,1,91,5,1,1,1,949
732,2,1,92,2,1,1,1,757
733,2,1,93,5,1,1,1,554
734,2,1,94,10,1,1,1,713
735,2,1,95,10,0,0,1,551
736,2,1,96,32,0,0,1,852
737,2,1,97,32,1,1,1,836
738,2,1,98,2,0,0,1,642
739,2,1,99,2,1,1,1,590
740,2,1,100,5,1,1,1,759
741,2,1,101,10,0,0,1,864
742,2,1,102,2,0,0,1,952
743,2,1,103,5,1,1,1,959
744,2,1,104,20,0,0,1,843
745,2,1,105,2,0,0,1,761
746,2,1,106,5,1,1,1,737
747,2,1,107,20,1,1,1,903
748,2,1,108,10,1,1,1,1382
749,2,1,109,2,0,0,1,872
750,2,1,110,32,1,1,1,918
751,2,1,111,1,0,0,1,954
752,2,1,112,5,1,1,1,703
753,2,1,113,32,0,0,1,756
754,2,1,114,2,0,0,1,808
755,2,1,115,2,1,1,1,680
756,2,1,116,20,0,0,1,1002
757,2,1,117,2,1,1,1,1033
758,2,1,118,5,0,0,1,771
759,2,1,119,2,0,0,1,588
760,2,1,120,10,1,1,1,656
761,2,1,121,5,0,0,1,590
762,2,1,122,20,1,1,1,603
763,2,1,123,5,1,1,1,657
764,2,1,124,2,0,0,1,778
765,2,1,125,32,1,1,1,771
766,2,1,126,10,0,0,1,927
767,2,1,127,5,1,1,1,741
768,2,1,128,5,0,0,1,677
769,2,1,129,5,1,1,1,567
770,2,1,130,10,0,0,1,578
771,2,1,131,20,1,1,1,555
772,2,1,132,1,0,0,0,556
773,2,1,133,2,1,1,1,714
774,2,1,134,5,1,1,1,575
775,2,1,135,2,1,1,1,577
776,2,1,136,10,1,1,1,1052
777,2,1,137,1,1,1,1,871
778,2,1,138,2,0,0,1,565
779,2,1,139,10,0,0,1,667
780,2,1,140,10,1,1,1,1335
781,2,1,141,20,1,1,1,704
782,2,1,142,10,0,0,1,507
783,2,1,143,2,0,0,1,745
784,2,1,144,10,0,0,1,961
785,2,1,145,10,0,0,1,636
786,2,1,146,10,0,0,1,525
787,2,1,147,2,1,1,1,493
788,2,1,148,1,1,1,1,715
789,2,1,149,1,0,0,1,537
790,2,1,150,5,1,1,1,612
791,2,1,151,10,1,1,1,664
792,2,1,152,2,1,1,1,585
793,2,1,153,32,0,0,1,1071
794,2,1,154,10,1,1,1,890
795,2,1,155,32,0,0,1,796
796,2,1,156,5,1,1,1,535
797,2,1,157,5,1,1,1,651
798,2,1,158,5,0,0,1,487
799,2,1,159,5,0,0,1,715
800,2,1,160,20,0,0,1,605
801,2,1,161,10,1,1,1,702
802,2,1,162,32,1,1,1,532
803,2,1,163,20,1,1,1,847
804,2,1,164,1,0,0,1,565
805,2,1,165,2,0,0,1,650
806,2,1,166,32,0,0,1,737
807,2,1,167,5,0,0,1,687
808,2,1,168,10,0,0,1,782
809,2,1,169,10,1,1,1,601
810,2,1,170,20,0,0,1,691
811,2,1,171,32,0,0,1,859
812,2,1,172,10,0,0,1,626
813,2,1,173,2,0,0,1,537
814,2,1,174,10,1,1,1,995
815,2,1,175,20,1,1,1,659
816,2,1,176,2,0,0,1,544
817,2,1,177,2,1,1,1,633
818,2,1,178,10,0,0,1,636
819,2,1,179,10,0,0,1,694
820,2,1,180,10,1,1,1,758
821,2,1,181,20,1,1,1,966
822,2,1,182,20,0,0,1,717
823,2,1,183,2,1,1,1,576
824,2,1,184,2,1,1,1,471
825,2,1,185,10,0,0,1,557
826,2,1,186,2,1,1,1,492
827,2,1,187,20,0,0,1,553
828,2,1,188,10,1,1,1,687
829,2,1,189,10,1,1,1,606
830,2,1,190,20,0,0,1,612
831,2,1,191,2,0,0,1,798
832,2,1,192,5,1,1,1,846
833,2,1,193,2,1,1,1,682
834,2,1,194,20,1,1,1,994
835,2,1,195,5,0,0,1,603
836,2,1,196,1,0,0,1,561
837,2,1,197,5,1,1,1,641
838,2,1,198,2,0,0,1,823
839,2,1,199,5,1,1,1,1420
840,2,1,200,10,0,0,1,706
841,2,1,201,5,0,0,1,488
842,2,1,202,2,1,1,1,605
843,2,1,203,5,1,1,1,588
844,2,1,204,10,0,0,1,599
845,2,1,205,2,1,1,1,630
846,2,1,206,20,0,0,1,583
847,2,1,207,20,1,1,1,640
848,2,1,208,20,0,0,1,552
849,2,1,209,20,1,1,1,624
850,2,1,210,32,0,0,1,462
851,2,1,211,10,0,0,1,605
852,2,1,212,2,1,1,1,742
853,2,1,213,2,0,0,0,1322
854,2,1,214,32,0,0,1,577
855,2,1,215,32,1,1,1,539
856,2,1,216,20,0,0,1,521
857,2,1,217,5,0,0,1,840
858,2,1,218,2,1,1,1,700
859,2,1,219,20,1,1,1,1016
860,2,1,220,20,0,0,1,582
861,2,1,221,2,1,1,1,1324
862,2,1,222,32,1,1,1,801
863,2,1,223,10,0,0,1,770
864,2,1,224,5,0,0,1,564
865,2,1,225,5,1,1,1,633
866,2,1,226,2,1,1,1,754
867,2,1,227,32,1,1,1,803
868,2,1,228,2,1,1,1,653
869,2,1,229,10,0,0,1,611
870,2,1,230,5,0,0,1,692
871,2,1,231,32,0,0,1,976
872,2,1,232,20,1,1,1,591
873,2,1,233,32,0,0,1,987
874,2,1,234,5,0,0,1,756
875,2,1,235,32,0,0,1,943
876,2,1,236,32,1,1,1,672
877,2,1,237,2,0,0,1,495
878,2,1,238,5,0,0,1,764
879,2,1,239,32,1,1,1,591
880,2,1,240,2,0,0,1,787
881,2,1,241,20,0,0,1,653
882,2,1,242,10,0,0,1,652
883,2,1,243,5,0,0,1,825
884,2,1,244,5,0,0,1,700
885,2,1,245,5,0,0,1,605
886,2,1,246,2,0,0,1,715
887,2,1,247,32,0,0,1,1138
888,2,1,248,1,0,0,1,591
889,2,1,249,2,1,1,1,757
890,2,1,250,32,1,1,1,846
891,2,1,251,10,0,0,1,562
892,2,1,252,32,0,0,1,735
893,2,1,253,32,0,0,1,1192
894,2,1,254,10,1,1,1,1296
895,2,1,255,32,0,0,1,792
896,2,1,256,2,1,1,1,633
897,2,1,257,1,1,1,1,728
898,2,1,258,10,1,1,1,575
899,2,1,259,2,1,1,1,655
900,2,1,260,20,0,0,1,802
901,2,1,261,5,0,0,1,709
902,2,1,262,20,0,0,1,944
903,2,1,263,32,1,1,1,539
904,2,1,264,20,0,0,1,1147
905,2,1,265,1,0,0,1,636
906,2,1,266,20,1,1,1,1342
907,2,1,267,5,0,0,1,787
908,2,1,268,20,1,1,1,839
909,2,1,269,1,1,1,1,1010
910,2,1,270,32,1,1,1,651
911,2,1,271,1,0,0,1,761
912,2,1,272,20,1,1,1,609
913,2,1,273,5,1,1,1,702
914,2,1,274,1,1,1,1,608
915,2,1,275,32,0,0,1,776
916,2,1,276,20,0,0,1,613
917,2,1,277,1,1,1,1,643
918,2,1,278,5,1,1,1,668
919,2,1,279,32,1,1,1,758
920,2,1,280,20,0,0,1,583
921,2,1,281,32,0,0,1,743
922,2,1,282,5,1,1,1,681
923,2,1,283,32,1,1,1,682
924,2,1,284,5,1,1,1,655
925,2,1,285,10,0,0,1,656
926,2,1,286,2,0,0,1,644
927,2,1,287,5,0,0,1,844
928,2,1,288,20,1,1,1,745
929,2,1,289,10,0,0,1,744
930,2,1,290,5,1,1,1,735
931,2,1,291,32,0,0,1,682
932,2,1,292,32,0,0,1,786
933,2,1,293,32,0,0,1,596
934,2,1,294,32,0,0,1,747
935,2,1,295,5,1,1,1,979
936,2,1,296,20,0,0,1,973
937,2,1,297,5,0,0,1,474
938,2,1,298,32,0,0,1,634
939,2,1,299,1,1,1,1,638
940,2,1,300,2,1,1,1,633
941,2,1,301,1,1,1,1,646
942,2,1,302,10,1,1,1,716
943,2,1,303,2,0,0,1,684
944,2,1,304,10,0,0,1,843
945,2,1,305,32,0,0,1,1052
946,2,1,306,10,1,1,1,879
947,2,1,307,32,1,1,1,1210
948,2,1,308,5,1,1,1,1117
949,2,1,309,2,1,1,1,850
950,2,1,310,5,1,1,1,945
951,2,1,311,5,0,0,1,762
952,2,1,312,10,1,1,1,1320
953,2,1,313,20,0,0,1,757
954,2,1,314,5,1,1,1,595
955,2,1,315,20,1,1,1,660
956,2,1,316,10,1,1,1,837
957,2,1,317,1,1,1,1,572
958,2,1,318,1,1,1,1,677
959,2,1,319,5,1,1,1,818
960,2,1,320,32,1,1,1,674
961,2,1,321,10,1,1,1,654
962,2,1,322,5,0,0,1,856
963,2,1,323,1,0,0,1,640
964,2,1,324,10,0,0,1,1043
965,2,1,325,32,0,0,1,1236
966,2,1,326,32,1,1,1,791
967,2,1,327,10,1,1,1,634
968,2,1,328,5,0,0,1,697
969,2,1,329,2,0,0,1,608
970,2,1,330,20,0,0,1,566
971,2,1,331,20,1,1,1,617
972,2,1,332,32,0,0,1,1189
973,2,1,333,10,1,1,1,1894
974,2,1,334,10,1,1,1,1133
975,2,1,335,10,1,1,1,1330
976,2,1,336,20,0,0,1,680
977,2,1,337,32,0,0,1,2634
978,2,1,338,10,1,1,1,839
979,2,1,339,32,1,1,1,1546
980,2,1,340,32,1,1,1,638
981,2,1,341,1,1,1,1,834
982,2,1,342,10,0,0,1,851
983,2,1,343,5,1,1,1,1189
984,2,1,344,20,1,1,1,878
985,2,1,345,5,0,0,1,1047
986,2,1,346,5,1,1,1,770
987,2,1,347,2,0,0,1,846
988,2,1,348,10,0,0,1,973
989,2,1,349,5,0,0,1,734
990,2,1,350,20,1,1,1,1017
991,2,1,351,20,0,0,1,1084
992,2,1,352,2,1,1,1,1148
993,2,1,353,10,0,0,1,891
994,2,1,354,32,0,0,1,1201
995,2,1,355,2,0,0,1,938
996,2,1,356,20,0,0,1,1042
997,2,1,357,20,1,1,1,928
998,2,1,358,2,0,0,1,826
999,2,1,359,1,1,1,1,678
1000,2,1,360,10,0,0,1,708
1001,2,1,361,20,1,1,1,610
1002,2,1,362,2,0,0,1,892
1003,2,1,363,32,1,1,1,715
1004,2,1,364,32,1,1,1,936
1005,2,1,365,32,0,0,1,659
1006,2,1,366,32,0,0,1,880
1007,2,1,367,2,1,1,1,627
1008,2,1,368,5,1,1,1,789
1009,2,1,369,20,0,0,1,912
1010,2,1,370,5,0,0,0,721
1011,2,1,371,32,1,1,1,652
1012,2,1,372,5,1,1,1,880
1013,2,1,373,5,1,1,1,592
1014,2,1,374,2,1,1,1,712
1015,2,1,375,10,0,0,1,684
1016,2,1,376,32,0,0,1,679
1017,2,1,377,20,1,1,1,1176
1018,2,1,378,20,0,0,1,601
1019,2,1,379,20,1,1,1,963
1020,2,1,380,2,1,1,1,1013
1021,2,1,381,10,0,0,1,637
1022,2,1,382,10,1,1,1,727
1023,2,1,383,32,1,1,1,1018
1024,2,1,384,32,0,0,1,797
1025,2,1,385,32,0,0,1,918
1026,2,1,386,5,0,0,1,588
1027,2,1,387,32,0,0,1,549
1028,2,1,388,2,1,1,1,618
1029,2,1,389,5,1,1,1,586
1030,2,1,390,20,0,0,1,772
1031,2,1,391,2,0,0,1,622
1032,2,1,392,5,0,0,1,672
1033,2,1,393,20,1,1,1,642
1034,2,1,394,2,1,1,1,733
1035,2,1,395,32,1,1,1,805
1036,2,1,396,10,1,1,1,733
1037,2,1,397,32,1,1,1,1075
1038,2,1,398,2,1,1,1,691
1039,2,1,399,20,1,1,1,1076
1040,2,1,400,10,1,1,1,837
1041,2,1,401,2,0,0,1,608
1042,2,1,402,20,1,1,1,661
1043,2,1,403,32,0,0,1,524
1044,2,1,404,10,1,1,1,563
1045,2,1,405,10,0,0,1,543
1046,2,1,406,2,0,0,1,494
1047,2,1,407,2,1,1,1,890
1048,2,1,408,10,1,1,1,725
1049,2,1,409,20,0,0,1,551
1050,2,1,410,2,1,1,1,783
1051,2,1,411,20,1,1,1,556
1052,2,1,412,10,0,0,1,770
1053,2,1,413,32,0,0,1,669
1054,2,1,414,10,1,1,1,797
1055,2,1,415,20,0,0,1,759
1056,2,1,416,32,1,1,1,616
1057,2,1,417,2,0,0,1,686
1058,2,1,418,32,1,1,1,1578
1059,2,1,419,5,0,0,1,475
1060,2,1,420,32,1,1,1,655
1061,2,1,421,1,1,1,1,525
1062,2,1,422,5,1,1,1,746
1063,2,1,423,2,0,0,1,566
1064,2,1,424,1,0,0,1,568
1065,2,1,425,20,0,0,1,679
1066,2,1,426,20,0,0,1,678
1067,2,1,427,10,1,1,1,585
1068,2,1,428,1,0,0,1,806
1069,2,1,429,20,0,0,1,707
1070,2,1,430,5,0,0,1,970
1071,2,1,431,20,0,0,1,903
1072,2,1,432,2,1,1,1,929
1073,2,1,433,32,1,1,1,742
1074,2,1,434,10,1,1,1,1126
1075,2,1,435,20,0,0,1,1152
1076,2,1,436,10,1,1,1,869
1077,2,1,437,20,1,1,1,1057
1078,2,1,438,32,1,1,1,1072
1079,2,1,439,10,0,0,1,915
1080,2,1,440,2,1,1,1,626
1081,2,1,441,32,1,1,1,803
1082,2,1,442,20,0,0,1,1041
1083,2,1,443,5,0,0,0,647
1084,2,1,444,2,1,1,1,648
1085,2,1,445,10,0,0,1,628
1086,2,1,446,5,0,0,1,574
1087,2,1,447,5,1,1,1,599
1088,2,1,448,2,1,1,1,800
1089,2,1,449,32,1,1,1,895
1090,2,1,450,10,0,0,1,619
1091,2,1,451,20,0,0,1,837
1092,2,1,452,10,0,0,1,981
1093,2,1,453,10,1,1,1,816
1094,2,1,454,1,0,0,1,669
1095,2,1,455,2,1,1,1,550
1096,2,1,456,32,0,0,1,599
1097,2,1,457,20,1,1,1,615
1098,2,1,458,32,1,1,1,1047
1099,2,1,459,10,1,1,1,749
1100,2,1,460,5,0,0,1,796
1101,2,1,461,32,1,1,1,712
1102,2,1,462,10,0,0,1,867
1103,2,1,463,10,0,0,1,770
1104,2,1,464,5,1,1,1,601
1105,2,1,465,1,1,1,1,656
1106,2,1,466,10,1,1,1,644
1107,2,1,467,32,0,0,1,715
1108,2,1,468,20,1,1,1,604
1109,2,1,469,32,0,0,1,635
1110,2,1,470,10,1,1,1,703
1111,2,1,471,2,1,1,1,585
1112,2,1,472,32,0,0,1,757
1113,2,1,473,5,0,0,1,613
1114,2,1,474,20,0,0,1,516
1115,2,1,475,2,0,0,1,578
1116,2,1,476,32,1,1,1,825
1117,2,1,477,10,1,1,1,920
1118,2,1,478,2,1,1,1,759
1119,2,1,479,2,1,1,1,615
1120,2,1,480,20,1,1,1,618
1121,2,1,481,2,1,1,1,1182
1122,2,1,482,2,0,0,1,474
1123,2,1,483,5,1,1,1,541
1124,2,1,484,20,0,0,1,724
1125,2,1,485,5,0,0,1,532
1126,2,1,486,32,1,1,1,774
1127,2,1,487,32,1,1,1,909
1128,2,1,488,32,1,1,1,928
1129,2,1,489,10,0,0,1,478
1130,2,1,490,5,0,0,1,737
1131,2,1,491,1,0,0,1,905
1132,2,1,492,2,1,1,1,1055
1133,2,1,493,5,0,0,1,699
1134,2,1,494,5,1,1,1,1084
1135,2,1,495,20,1,1,1,702
1136,2,1,496,5,0,0,1,529
1137,2,1,497,32,0,0,1,1526
1138,2,1,498,1,0,0,1,990
1139,2,1,499,20,0,0,1,1051
1140,2,1,500,5,1,1,1,1027
1141,2,1,501,2,1,1,1,755
1142,2,1,502,10,1,1,1,874
1143,2,1,503,32,1,1,1,669
1144,2,1,504,20,0,0,1,709
1145,2,1,505,20,0,0,1,1222
1146,2,1,506,10,1,1,1,1294
1147,2,1,507,32,1,1,1,941
1148,2,1,508,10,0,0,1,1093
1149,2,1,509,20,1,1,1,1152
1150,2,1,510,2,1,1,1,958
1151,2,1,511,5,1,1,1,728
1152,2,1,512,20,1,1,1,738
1153,2,1,513,2,0,0,1,609
1154,2,1,514,10,0,0,1,790
1155,2,1,515,2,0,0,1,864
1156,2,1,516,5,1,1,1,600
1157,2,1,517,10,0,0,1,860
1158,2,1,518,5,0,0,1,710
1159,2,1,519,32,1,1,1,827
1160,2,1,520,20,1,1,1,862
1161,2,1,521,1,0,0,1,563
1162,2,1,522,5,0,0,1,841
1163,2,1,523,32,1,1,1,557
1164,2,1,524,2,1,1,1,581
1165,2,1,525,20,0,0,1,696
1166,2,1,526,2,0,0,1,764
1167,2,1,527,10,0,0,1,706
1168,2,1,528,32,0,0,1,576
1169,2,1,529,20,1,1,1,594
1170,2,1,530,32,0,0,1,1170
1171,2,1,531,32,0,0,1,724
1172,2,1,532,5,1,1,1,536
1173,2,1,533,20,1,1,1,1398
1174,2,1,534,32,0,0,1,664
1175,2,1,535,10,0,0,1,628
1176,2,1,536,2,0,0,1,1003
1177,2,1,537,32,0,0,1,729
1178,2,1,538,1,0,0,1,1188
1179,2,1,539,32,1,1,1,1085
1180,2,1,540,20,0,0,1,1321
1181,2,1,541,2,0,0,1,585
1182,2,1,542,2,1,1,1,590
1183,2,1,543,20,1,1,1,2561
1184,2,1,544,2,1,1,1,817
1185,2,1,545,2,1,1,1,2230
1186,2,1,546,32,1,1,1,743
1187,2,1,547,20,0,0,1,911
1188,2,1,548,2,1,1,1,1336
1189,2,1,549,1,0,0,1,840
1190,2,1,550,2,0,0,1,944
1191,2,1,551,20,1,1,1,685
1192,2,1,552,32,1,1,1,1237
1193,2,1,553,5,0,0,1,717
1194,2,1,554,32,0,0,1,787
1195,2,1,555,20,0,0,1,671
1196,2,1,556,2,1,1,1,895
1197,2,1,557,5,0,0,1,780
1198,2,1,558,20,1,1,1,682
1199,2,1,559,10,1,1,1,1289
1200,2,1,560,2,0,0,1,585
1201,2,1,561,32,0,0,1,588
1202,2,1,562,2,0,0,1,833
1203,2,1,563,5,0,0,1,686
1204,2,1,564,2,0,0,1,748
1205,2,1,565,20,0,0,1,697
1206,2,1,566,10,1,1,1,1244
1207,2,1,567,32,0,0,1,692
1208,2,1,568,10,1,1,1,2091
1209,2,1,569,20,1,1,1,624
1210,2,1,570,5,0,0,1,629
1211,2,1,571,32,1,1,1,785
1212,2,1,572,20,1,1,1,2019
1213,2,1,573,20,0,0,1,681
1214,2,1,574,5,1,1,1,691
1215,2,1,575,1,1,1,1,554
1216,2,1,576,20,0,0,1,663
1217,2,1,577,20,0,0,1,828
1218,2,1,578,10,0,0,1,691
1219,2,1,579,20,0,0,1,668
1220,2,1,580,32,0,0,1,814
1221,2,1,581,1,0,0,1,626
1222,2,1,582,5,1,1,1,511
1223,2,1,583,20,1,1,1,796
1224,2,1,584,10,0,0,1,532
1225,2,1,585,10,0,0,1,1165
1226,2,1,586,20,0,0,1,1640
1227,2,1,587,32,1,1,1,649
1228,2,1,588,10,0,0,1,1271
1229,2,1,589,5,1,1,1,1152
1230,2,1,590,32,0,0,1,663
1231,2,1,591,32,1,1,1,642
1232,2,1,592,5,0,0,1,548
1233,2,1,593,32,0,0,1,541
1234,2,1,594,2,0,0,1,673
1235,2,1,595,10,1,1,1,926
1236,2,1,596,1,1,1,1,1297
1237,2,1,597,20,1,1,1,1037
1238,2,1,598,20,1,1,1,723
1239,2,1,599,2,0,0,1,683
1240,2,1,600,5,1,1,1,739
1241,2,1,601,2,0,0,1,652
1242,2,1,602,5,1,1,1,625
1243,2,1,603,20,1,1,1,752
1244,2,1,604,20,1,1,1,1266
1245,2,1,605,2,0,0,1,1379
1246,2,1,606,2,0,0,1,1310
1247,2,1,607,2,1,1,1,664
1248,2,1,608,2,0,0,1,631
1249,2,1,609,5,0,0,1,603
1250,2,1,610,5,0,0,1,669
1251,2,1,611,32,1,1,1,696
1252,2,1,612,5,1,1,1,628
1253,2,1,613,5,1,1,1,643
1254,2,1,614,10,0,0,1,1067
1255,2,1,615,32,0,0,1,772
1256,2,1,616,5,0,0,1,641
1257,2,1,617,5,0,0,1,587
1258,2,1,618,5,0,0,1,710
1259,2,1,619,2,1,1,1,819
1260,2,1,620,5,0,0,1,592
1261,2,1,621,5,1,1,1,1101
1262,2,1,622,32,0,0,1,603
1263,2,1,623,5,0,0,1,487
1264,2,1,624,2,0,0,1,689
1265,2,1,625,20,0,0,1,635
1266,2,1,626,2,0,0,1,568
1267,2,1,627,20,0,0,1,1228
1268,2,1,628,20,1,1,1,586
1269,2,1,629,20,1,1,1,721
1270,2,1,630,10,1,1,1,818
1271,2,1,631,5,0,0,1,644
1272,2,1,632,20,0,0,1,784
1273,2,1,633,10,0,0,1,574
1274,2,1,634,20,1,1,1,775
1275,2,1,635,20,1,1,1,478
1276,2,1,636,10,0,0,1,801
1277,2,1,637,32,1,1,1,1398
1278,2,1,638,5,1,1,1,535
1279,2,1,639,20,0,0,1,710
1280,2,1,640,2,1,1,1,977
1281,3,1,1,2,0,0,1,763
1282,3,1,2,32,0,0,1,515
1283,3,1,3,10,1,1,1,492
1284,3,1,4,20,1,1,1,1549
1285,3,1,5,20,1,1,1,455
1286,3,1,6,10,0,0,1,556
1287,3,1,7,20,0,0,1,492
1288,3,1,8,20,0,0,0,392
1289,3,1,9,32,0,0,1,581
1290,3,1,10,5,0,0,1,427
1291,3,1,11,1,0,0,1,522
1292,3,1,12,5,1,1,1,864
1293,3,1,13,2,1,1,1,616
1294,3,1,14,2,0,0,1,534
1295,3,1,15,32,1,1,1,597
1296,3,1,16,32,0,0,1,456
1297,3,1,17,5,0,0,1,611
1298,3,1,18,32,1,1,1,526
1299,3,1,19,5,1,1,1,515
1300,3,1,20,1,1,1,1,456
1301,3,1,21,5,0,0,1,467
1302,3,1,22,32,0,0,1,1878
1303,3,1,23,5,0,0,1,447
1304,3,1,24,32,1,1,1,400
1305,3,1,25,2,1,1,1,552
1306,3,1,26,2,0,0,1,358
1307,3,1,27,32,0,0,1,822
1308,3,1,28,1,0,0,1,468
1309,3,1,29,32,0,0,1,751
1310,3,1,30,32,1,1,1,593
1311,3,1,31,32,0,0,1,557
1312,3,1,32,20,0,0,0,418
1313,3,1,33,10,0,0,1,431
1314,3,1,34,5,1,1,1,474
1315,3,1,35,5,1,1,0,360
1316,3,1,36,1,0,0,1,404
1317,3,1,37,2,1,1,1,711
1318,3,1,38,10,0,0,1,365
1319,3,1,39,2,1,1,1,559
1320,3,1,40,5,1,1,1,511
1321,3,1,41,20,1,1,1,509
1322,3,1,42,20,0,0,1,461
1323,3,1,43,32,0,0,1,477
1324,3,1,44,20,1,1,1,467
1325,3,1,45,10,1,1,1,443
1326,3,1,46,1,0,0,1,384
1327,3,1,47,5,1,1,1,523
1328,3,1,48,20,1,1,1,432
1329,3,1,49,32,1,1,1,502
1330,3,1,50,32,1,1,1,954
1331,3,1,51,5,1,1,1,525
1332,3,1,52,1,1,1,1,520
1333,3,1,53,5,1,1,1,424
1334,3,1,54,10,1,1,1,535
1335,3,1,55,20,0,0,1,613
1336,3,1,56,32,0,0,1,885
1337,3,1,57,1,1,1,1,741
1338,3,1,58,32,1,1,1,647
1339,3,1,59,20,1,1,1,523
1340,3,1,60,5,1,1,1,623
1341,3,1,61,32,1,1,1,472
1342,3,1,62,10,1,1,1,490
1343,3,1,63,10,0,0,1,490
1344,3,1,64,1,0,0,1,507
1345,3,1,65,2,0,0,1,427
1346,3,1,66,10,0,0,1,893
1347,3,1,67,32,0,0,1,572
1348,3,1,68,20,0,0,1,794
1349,3,1,69,20,1,1,1,691
1350,3,1,70,20,0,0,1,545
1351,3,1,71,10,1,1,1,451
1352,3,1,72,10,0,0,1,529
1353,3,1,73,1,0,0,1,530
1354,3,1,74,5,0,0,1,728
1355,3,1,75,20,0,0,1,466
1356,3,1,76,32,1,1,1,506
1357,3,1,77,2,1,1,1,519
1358,3,1,78,32,1,1,1,554
1359,3,1,79,5,0,0,1,393
1360,3,1,80,10,0,0,1,631
1361,3,1,81,5,0,0,1,494
1362,3,1,82,5,0,0,1,501
1363,3,1,83,2,1,1,1,531
1364,3,1,84,5,1,1,1,598
1365,3,1,85,20,0,0,1,695
1366,3,1,86,2,1,1,1,512
1367,3,1,87,5,1,1,1,585
1368,3,1,88,5,1,1,1,505
1369,3,1,89,5,0,0,1,551
1370,3,1,90,2,0,0,1,365
1371,3,1,91,5,0,0,0,422
1372,3,1,92,20,1,1,1,528
1373,3,1,93,5,1,1,1,567
1374,3,1,94,1,1,1,1,454
1375,3,1,95,10,0,0,1,453
1376,3,1,96,10,0,0,1,446
1377,3,1,97,10,0,0,1,810
1378,3,1,98,10,1,1,1,514
1379,3,1,99,20,1,1,1,569
1380,3,1,100,20,0,0,1,656
1381,3,1,101,32,0,0,1,496
1382,3,1,102,2,1,1,1,573
1383,3,1,103,1,1,1,1,622
1384,3,1,104,2,0,0,1,424
1385,3,1,105,10,1,1,1,531
1386,3,1,106,5,0,0,1,540
1387,3,1,107,5,0,0,1,508
1388,3,1,108,32,1,1,1,718
1389,3,1,109,1,1,1,1,430
1390,3,1,110,5,0,0,1,464
1391,3,1,111,2,0,0,1,395
1392,3,1,112,1,1,1,1,2096
1393,3,1,113,10,1,1,1,496
1394,3,1,114,10,1,1,1,581
1395,3,1,115,20,0,0,1,582
1396,3,1,116,20,0,0,1,603
1397,3,1,117,32,0,0,1,673
1398,3,1,118,1,1,1,1,784
1399,3,1,119,10,1,1,1,436
1400,3,1,120,20,1,1,1,533
1401,3,1,121,10,1,1,1,498
1402,3,1,122,10,1,1,1,533
1403,3,1,123,1,0,0,1,408
1404,3,1,124,20,0,0,0,419
1405,3,1,125,20,1,1,1,522
1406,3,1,126,5,0,0,1,529
1407,3,1,127,20,1,1,1,455
1408,3,1,128,2,1,1,1,519
1409,3,1,129,2,1,1,1,587
1410,3,1,130,2,1,1,1,442
1411,3,1,131,32,1,1,1,559
1412,3,1,132,32,0,0,1,1377
1413,3,1,133,2,0,0,1,616
1414,3,1,134,2,1,1,1,526
1415,3,1,135,2,1,1,1,507
1416,3,1,136,20,1,1,1,461
1417,3,1,137,20,0,0,1,623
1418,3,1,138,32,1,1,1,720
1419,3,1,139,32,1,1,1,497
1420,3,1,140,5,0,0,1,455
1421,3,1,141,20,0,0,1,505
1422,3,1,142,10,0,0,1,508
1423,3,1,143,2,1,1,1,570
1424,3,1,144,10,1,1,1,732
1425,3,1,145,20,0,0,1,572
1426,3,1,146,5,0,0,1,447
1427,3,1,147,5,0,0,1,450
1428,3,1,148,20,0,0,1,625
1429,3,1,149,20,0,0,1,688
1430,3,1,150,20,1,1,1,465
1431,3,1,151,2,1,1,1,448
1432,3,1,152,2,0,0,1,802
1433,3,1,153,20,0,0,1,627
1434,3,1,154,2,1,1,1,471
1435,3,1,155,10,1,1,1,575
1436,3,1,156,5,0,0,1,425
1437,3,1,157,32,0,0,1,511
1438,3,1,158,5,0,0,1,561
1439,3,1,159,10,1,1,1,594
1440,3,1,160,32,0,0,1,441
1441,3,1,161,5,0,0,1,590
1442,3,1,162,20,1,1,1,1057
1443,3,1,163,32,1,1,1,846
1444,3,1,164,5,1,1,1,469
1445,3,1,165,10,1,1,1,558
1446,3,1,166,10,1,1,1,533
1447,3,1,167,32,1,1,1,943
1448,3,1,168,5,0,0,1,731
1449,3,1,169,2,0,0,1,387
1450,3,1,170,2,1,1,1,621
1451,3,1,171,5,1,1,1,582
1452,3,1,172,2,0,0,1,806
1453,3,1,173,20,1,1,1,522
1454,3,1,174,32,1,1,1,592
1455,3,1,175,5,1,1,1,500
1456,3,1,176,5,0,0,1,366
1457,3,1,177,5,0,0,1,528
1458,3,1,178,5,1,1,0,485
1459,3,1,179,10,1,1,1,594
1460,3,1,180,2,1,1,1,605
1461,3,1,181,32,1,1,1,562
1462,3,1,182,20,1,1,1,685
1463,3,1,183,2,0,0,1,616
1464,3,1,184,5,0,0,1,488
1465,3,1,185,1,1,1,1,451
1466,3,1,186,32,1,1,1,659
1467,3,1,187,10,0,0,1,497
1468,3,1,188,5,1,1,1,538
1469,3,1,189,5,0,0,1,758
1470,3,1,190,20,0,0,1,509
1471,3,1,191,32,1,1,1,491
1472,3,1,192,20,1,1,1,584
1473,3,1,193,20,1,1,1,573
1474,3,1,194,5,0,0,1,539
1475,3,1,195,2,1,1,1,534
1476,3,1,196,10,1,1,1,609
1477,3,1,197,2,1,1,1,999
1478,3,1,198,32,0,0,1,479
1479,3,1,199,10,1,1,1,618
1480,3,1,200,1,1,1,1,465
1481,3,1,201,32,1,1,1,667
1482,3,1,202,10,0,0,1,443
1483,3,1,203,10,0,0,1,508
1484,3,1,204,32,1,1,1,505
1485,3,1,205,10,1,1,1,512
1486,3,1,206,5,0,0,1,525
1487,3,1,207,10,1,1,1,673
1488,3,1,208,32,0,0,1,508
1489,3,1,209,5,1,1,1,576
1490,3,1,210,2,1,1,1,527
1491,3,1,211,20,1,1,1,482
1492,3,1,212,20,1,1,1,455
1493,3,1,213,2,0,0,1,396
1494,3,1,214,10,0,0,1,607
1495,3,1,215,2,0,0,1,421
1496,3,1,216,20,1,1,1,611
1497,3,1,217,2,0,0,1,781
1498,3,1,218,20,1,1,1,981
1499,3,1,219,20,0,0,1,897
1500,3,1,220,20,0,0,1,1195
1501,3,1,221,2,1,1,1,451
1502,3,1,222,32,1,1,1,607
1503,3,1,223,10,0,0,1,622
1504,3,1,224,10,0,0,1,500
1505,3,1,225,10,1,1,1,730
1506,3,1,226,10,0,0,1,646
1507,3,1,227,5,0,0,1,841
1508,3,1,228,5,1,1,1,609
1509,3,1,229,20,1,1,1,531
1510,3,1,230,5,1,1,1,537
1511,3,1,231,20,1,1,1,446
1512,3,1,232,32,1,1,1,563
1513,3,1,233,10,0,0,1,535
1514,3,1,234,20,0,0,1,513
1515,3,1,235,10,0,0,1,526
1516,3,1,236,20,1,1,1,898
1517,3,1,237,2,0,0,1,749
1518,3,1,238,10,1,1,1,460
1519,3,1,239,2,1,1,1,462
1520,3,1,240,2,1,1,1,371
1521,3,1,241,32,1,1,1,511
1522,3,1,242,5,0,0,1,486
1523,3,1,243,20,1,1,1,563
1524,3,1,244,2,0,0,1,1364
1525,3,1,245,20,1,1,1,413
1526,3,1,246,2,0,0,1,416
1527,3,1,247,10,1,1,1,456
1528,3,1,248,20,0,0,1,682
1529,3,1,249,5,1,1,1,471
1530,3,1,250,32,0,0,1,398
1531,3,1,251,32,1,1,1,1201
1532,3,1,252,10,0,0,1,474
1533,3,1,253,10,1,1,1,670
1534,3,1,254,32,1,1,1,1329
1535,3,1,255,20,1,1,1,619
1536,3,1,256,5,1,1,1,538
1537,3,1,257,20,0,0,1,754
1538,3,1,258,20,0,0,1,607
1539,3,1,259,10,1,1,1,658
1540,3,1,260,5,1,1,1,636
1541,3,1,261,2,1,1,1,640
1542,3,1,262,5,1,1,1,522
1543,3,1,263,10,1,1,1,568
1544,3,1,264,2,0,0,1,539
1545,3,1,265,32,0,0,1,666
1546,3,1,266,20,0,0,1,610
1547,3,1,267,5,1,1,1,714
1548,3,1,268,2,0,0,1,527
1549,3,1,269,2,0,0,1,494
1550,3,1,270,32,1,1,1,615
1551,3,1,271,5,1,1,1,624
1552,3,1,272,1,1,1,1,513
1553,3,1,273,10,1,1,1,483
1554,3,1,274,10,1,1,1,519
1555,3,1,275,2,0,0,1,707
1556,3,1,276,10,1,1,1,531
1557,3,1,277,10,0,0,1,981
1558,3,1,278,32,1,1,1,477
1559,3,1,279,32,0,0,1,700
1560,3,1,280,32,0,0,1,1037
1561,3,1,281,2,0,0,1,540
1562,3,1,282,32,1,1,1,610
1563,3,1,283,20,0,0,1,511
1564,3,1,284,5,0,0,1,935
1565,3,1,285,5,0,0,1,537
1566,3,1,286,5,0,0,1,510
1567,3,1,287,2,0,0,1,398
1568,3,1,288,10,1,1,1,555
1569,3,1,289,5,0,0,1,495
1570,3,1,290,2,0,0,1,442
1571,3,1,291,10,0,0,0,647
1572,3,1,292,10,0,0,1,544
1573,3,1,293,1,0,0,1,724
1574,3,1,294,20,1,1,1,569
1575,3,1,295,2,0,0,1,749
1576,3,1,296,5,0,0,1,394
1577,3,1,297,5,1,1,1,448
1578,3,1,298,5,1,1,1,518
1579,3,1,299,5,1,1,1,559
1580,3,1,300,20,1,1,1,607
1581,3,1,301,5,0,0,1,507
1582,3,1,302,32,1,1,1,627
1583,3,1,303,2,1,1,1,536
1584,3,1,304,1,1,1,1,639
1585,3,1,305,20,1,1,1,558
1586,3,1,306,10,1,1,1,506
1587,3,1,307,5,0,0,1,697
1588,3,1,308,5,1,1,1,646
1589,3,1,309,10,0,0,1,453
1590,3,1,310,10,0,0,1,484
1591,3,1,311,5,0,0,1,634
1592,3,1,312,32,0,0,1,480
1593,3,1,313,32,1,1,1,542
1594,3,1,314,5,0,0,1,558
1595,3,1,315,32,0,0,1,932
1596,3,1,316,2,0,0,1,540
1597,3,1,317,10,1,1,1,615
1598,3,1,318,20,1,1,1,657
1599,3,1,319,2,0,0,1,399
1600,3,1,320,32,0,0,1,518
1601,3,1,321,2,1,1,1,572
1602,3,1,322,32,1,1,1,533
1603,3,1,323,10,0,0,1,419
1604,3,1,324,10,0,0,1,469
1605,3,1,325,20,0,0,1,562
1606,3,1,326,20,0,0,1,440
1607,3,1,327,10,1,1,1,466
1608,3,1,328,5,1,1,1,524
1609,3,1,329,20,1,1,1,433
1610,3,1,330,5,1,1,1,690
1611,3,1,331,20,1,1,1,577
1612,3,1,332,10,1,1,1,477
1613,3,1,333,32,0,0,1,618
1614,3,1,334,2,1,1,1,543
1615,3,1,335,1,1,1,1,417
1616,3,1,336,2,1,1,1,442
1617,3,1,337,2,0,0,1,499
1618,3,1,338,10,0,0,1,638
1619,3,1,339,10,1,1,1,554
1620,3,1,340,32,0,0,1,505
1621,3,1,341,2,1,1,1,490
1622,3,1,342,2,0,0,1,388
1623,3,1,343,20,1,1,1,452
1624,3,1,344,32,1,1,1,615
1625,3,1,345,32,1,1,1,447
1626,3,1,346,2,1,1,1,421
1627,3,1,347,2,1,1,1,547
1628,3,1,348,20,1,1,1,935
1629,3,1,349,2,0,0,1,697
1630,3,1,350,5,0,0,1,967
1631,3,1,351,2,1,1,1,693
1632,3,1,352,5,1,1,1,774
1633,3,1,353,20,0,0,1,518
1634,3,1,354,2,1,1,1,438
1635,3,1,355,10,0,0,1,534
1636,3,1,356,10,1,1,1,845
1637,3,1,357,2,0,0,1,1460
1638,3,1,358,2,0,0,1,623
1639,3,1,359,20,0,0,1,660
1640,3,1,360,10,0,0,1,678
1641,3,1,361,32,0,0,1,471
1642,3,1,362,5,1,1,1,515
1643,3,1,363,10,1,1,1,405
1644,3,1,364,2,0,0,1,645
1645,3,1,365,10,1,1,1,593
1646,3,1,366,20,0,0,1,480
1647,3,1,367,10,0,0,1,671
1648,3,1,368,10,0,0,1,611
1649,3,1,369,10,1,1,1,606
1650,3,1,370,20,1,1,1,536
1651,3,1,371,32,1,1,1,545
1652,3,1,372,20,0,0,1,1581
1653,3,1,373,2,0,0,1,518
1654,3,1,374,32,1,1,1,900
1655,3,1,375,20,1,1,1,528
1656,3,1,376,1,0,0,1,636
1657,3,1,377,32,1,1,1,813
1658,3,1,378,10,1,1,1,838
1659,3,1,379,2,1,1,1,458
1660,3,1,380,5,1,1,1,776
1661,3,1,381,10,1,1,1,494
1662,3,1,382,32,0,0,1,547
1663,3,1,383,32,1,1,1,433
1664,3,1,384,20,1,1,1,883
1665,3,1,385,5,1,1,1,671
1666,3,1,386,32,0,0,1,541
1667,3,1,387,2,1,1,1,440
1668,3,1,388,5,0,0,1,368
1669,3,1,389,20,1,1,1,807
1670,3,1,390,20,0,0,1,708
1671,3,1,391,20,0,0,0,445
1672,3,1,392,10,0,0,1,487
1673,3,1,393,2,0,0,1,832
1674,3,1,394,1,1,1,1,494
1675,3,1,395,20,0,0,1,599
1676,3,1,396,5,1,1,1,555
1677,3,1,397,5,1,1,1,653
1678,3,1,398,5,1,1,1,654
1679,3,1,399,32,1,1,1,803
1680,3,1,400,10,0,0,1,564
1681,3,1,401,10,0,0,1,653
1682,3,1,402,10,1,1,1,651
1683,3,1,403,20,1,1,1,464
1684,3,1,404,20,1,1,1,449
1685,3,1,405,2,1,1,1,578
1686,3,1,406,32,1,1,1,611
1687,3,1,407,32,0,0,1,620
1688,3,1,408,20,1,1,1,722
1689,3,1,409,10,0,0,1,567
1690,3,1,410,5,0,0,1,495
1691,3,1,411,20,1,1,1,445
1692,3,1,412,32,0,0,1,455
1693,3,1,413,2,1,1,1,828
1694,3,1,414,2,0,0,1,505
1695,3,1,415,10,0,0,1,411
1696,3,1,416,1,0,0,1,564
1697,3,1,417,5,1,1,1,830
1698,3,1,418,5,0,0,1,573
1699,3,1,419,10,0,0,1,596
1700,3,1,420,32,0,0,1,529
1701,3,1,421,10,1,1,0,452
1702,3,1,422,32,0,0,1,516
1703,3,1,423,2,0,0,1,614
1704,3,1,424,5,1,1,1,482
1705,3,1,425,32,0,0,1,488
1706,3,1,426,20,1,1,1,553
1707,3,1,427,32,0,0,1,636
1708,3,1,428,10,0,0,1,509
1709,3,1,429,1,0,0,1,507
1710,3,1,430,2,0,0,1,462
1711,3,1,431,10,0,0,1,539
1712,3,1,432,20,1,1,1,838
1713,3,1,433,32,0,0,1,447
1714,3,1,434,10,1,1,1,517
1715,3,1,435,32,0,0,1,425
1716,3,1,436,2,0,0,1,495
1717,3,1,437,5,0,0,1,521
1718,3,1,438,1,0,0,1,420
1719,3,1,439,32,1,1,1,646
1720,3,1,440,32,0,0,1,492
1721,3,1,441,20,0,0,1,720
1722,3,1,442,5,1,1,1,557
1723,3,1,443,32,0,0,1,446
1724,3,1,444,20,0,0,0,610
1725,3,1,445,32,0,0,1,656
1726,3,1,446,32,0,0,1,691
1727,3,1,447,2,0,0,1,432
1728,3,1,448,20,1,1,1,509
1729,3,1,449,32,0,0,1,629
1730,3,1,450,32,0,0,1,482
1731,3,1,451,2,0,0,1,446
1732,3,1,452,10,0,0,1,559
1733,3,1,453,2,1,1,1,506
1734,3,1,454,10,0,0,1,509
1735,3,1,455,10,1,1,1,545
1736,3,1,456,20,1,1,1,541
1737,3,1,457,1,0,0,1,401
1738,3,1,458,10,0,0,1,791
1739,3,1,459,5,0,0,1,518
1740,3,1,460,10,1,1,1,609
1741,3,1,461,20,0,0,1,535
1742,3,1,462,32,0,0,1,545
1743,3,1,463,32,1,1,0,555
1744,3,1,464,5,1,1,1,1103
1745,3,1,465,32,1,1,1,646
1746,3,1,466,5,0,0,1,664
1747,3,1,467,2,0,0,1,604
1748,3,1,468,20,1,1,1,816
1749,3,1,469,5,1,1,1,690
1750,3,1,470,20,0,0,1,544
1751,3,1,471,20,0,0,1,613
1752,3,1,472,10,0,0,1,565
1753,3,1,473,20,0,0,1,555
1754,3,1,474,32,0,0,1,530
1755,3,1,475,2,1,1,1,779
1756,3,1,476,2,0,0,1,463
1757,3,1,477,20,0,0,1,593
1758,3,1,478,5,1,1,1,686
1759,3,1,479,32,0,0,1,841
1760,3,1,480,20,0,0,1,816
1761,3,1,481,10,0,0,1,929
1762,3,1,482,2,1,1,1,510
1763,3,1,483,32,1,1,1,529
1764,3,1,484,10,0,0,1,451
1765,3,1,485,2,1,1,1,421
1766,3,1,486,2,0,0,1,430
1767,3,1,487,10,1,1,1,436
1768,3,1,488,2,0,0,1,390
1769,3,1,489,5,0,0,1,470
1770,3,1,490,2,1,1,1,440
1771,3,1,491,20,1,1,1,561
1772,3,1,492,1,1,1,1,456
1773,3,1,493,5,0,0,1,630
1774,3,1,494,1,0,0,1,420
1775,3,1,495,2,1,1,1,582
1776,3,1,496,10,0,0,1,577
1777,3,1,497,10,1,1,1,692
1778,3,1,498,32,1,1,1,641
1779,3,1,499,10,1,1,1,551
1780,3,1,500,2,0,0,1,422
1781,3,1,501,32,0,0,1,663
1782,3,1,502,2,1,1,1,640
1783,3,1,503,2,1,1,1,560
1784,3,1,504,32,1,1,1,557
1785,3,1,505,5,0,0,1,680
1786,3,1,506,10,0,0,1,498
1787,3,1,507,5,0,0,1,459
1788,3,1,508,2,1,1,1,560
1789,3,1,509,10,0,0,1,560
1790,3,1,510,20,0,0,1,1400
1791,3,1,511,20,0,0,1,798
1792,3,1,512,10,1,1,1,677
1793,3,1,513,32,1,1,1,520
1794,3,1,514,5,0,0,1,642
1795,3,1,515,32,0,0,1,681
1796,3,1,516,10,1,1,1,655
1797,3,1,517,20,1,1,1,694
1798,3,1,518,5,1,1,1,718
1799,3,1,519,10,0,0,1,502
1800,3,1,520,20,0,0,1,478
1801,3,1,521,32,0,0,1,689
1802,3,1,522,2,0,0,1,509
1803,3,1,523,2,0,0,1,520
1804,3,1,524,20,1,1,1,553
1805,3,1,525,2,1,1,1,501
1806,3,1,526,5,0,0,1,1207
1807,3,1,527,10,0,0,1,606
1808,3,1,528,32,1,1,1,754
1809,3,1,529,2,1,1,1,776
1810,3,1,530,32,0,0,1,616
1811,3,1,531,10,0,0,1,519
1812,3,1,532,2,0,0,1,612
1813,3,1,533,20,1,1,1,1140
1814,3,1,534,2,1,1,1,754
1815,3,1,535,2,1,1,1,622
1816,3,1,536,20,0,0,1,691
1817,3,1,537,5,1,1,1,772
1818,3,1,538,5,0,0,1,667
1819,3,1,539,5,0,0,1,443
1820,3,1,540,20,1,1,1,446
1821,3,1,541,5,1,1,1,486
1822,3,1,542,20,1,1,1,431
1823,3,1,543,2,1,1,1,569
1824,3,1,544,2,1,1,1,752
1825,3,1,545,2,0,0,1,777
1826,3,1,546,10,0,0,1,717
1827,3,1,547,10,0,0,1,1050
1828,3,1,548,20,1,1,1,587
1829,3,1,549,1,0,0,1,586
1830,3,1,550,10,0,0,1,642
1831,3,1,551,32,0,0,1,777
1832,3,1,552,32,1,1,1,553
1833,3,1,553,5,1,1,1,577
1834,3,1,554,10,1,1,1,684
1835,3,1,555,20,0,0,1,979
1836,3,1,556,10,1,1,1,750
1837,3,1,557,2,0,0,1,1099
1838,3,1,558,5,0,0,1,651
1839,3,1,559,2,1,1,1,542
1840,3,1,560,2,0,0,1,550
1841,3,1,561,5,0,0,1,755
1842,3,1,562,10,0,0,1,528
1843,3,1,563,20,0,0,1,898
1844,3,1,564,1,0,0,1,326
1845,3,1,565,2,0,0,1,454
1846,3,1,566,5,0,0,1,373
1847,3,1,567,1,1,1,1,450
1848,3,1,568,20,1,1,1,526
1849,3,1,569,5,1,1,1,468
1850,3,1,570,10,0,0,1,480
1851,3,1,571,2,0,0,1,363
1852,3,1,572,32,1,1,1,799
1853,3,1,573,5,0,0,1,486
1854,3,1,574,32,0,0,1,533
1855,3,1,575,20,1,1,1,772
1856,3,1,576,32,0,0,1,760
1857,3,1,577,32,0,0,1,610
1858,3,1,578,5,1,1,1,620
1859,3,1,579,10,0,0,1,418
1860,3,1,580,2,0,0,1,448
1861,3,1,581,10,1,1,1,416
1862,3,1,582,2,1,1,1,428
1863,3,1,583,5,1,1,1,411
1864,3,1,584,32,0,0,1,563
1865,3,1,585,2,1,1,1,470
1866,3,1,586,1,0,0,1,486
1867,3,1,587,32,1,1,1,575
1868,3,1,588,32,1,1,1,549
1869,3,1,589,32,1,1,1,475
1870,3,1,590,2,0,0,1,574
1871,3,1,591,32,1,1,1,458
1872,3,1,592,5,1,1,1,709
1873,3,1,593,10,1,1,1,431
1874,3,1,594,5,1,1,1,558
1875,3,1,595,5,0,0,1,464
1876,3,1,596,10,1,1,1,594
1877,3,1,597,2,1,1,1,726
1878,3,1,598,20,0,0,1,571
1879,3,1,599,20,0,0,1,502
1880,3,1,600,32,0,0,1,414
1881,3,1,601,20,0,0,1,535
1882,3,1,602,1,1,1,1,402
1883,3,1,603,32,1,1,1,532
1884,3,1,604,20,1,1,1,442
1885,3,1,605,10,1,1,1,938
1886,3,1,606,32,1,1,1,525
1887,3,1,607,2,1,1,1,665
1888,3,1,608,5,1,1,1,517
1889,3,1,609,1,0,0,1,601
1890,3,1,610,2,1,1,1,645
1891,3,1,611,32,0,0,1,526
1892,3,1,612,10,1,1,1,603
1893,3,1,613,1,1,1,1,455
1894,3,1,614,5,0,0,1,794
1895,3,1,615,5,1,1,1,696
1896,3,1,616,32,1,1,1,540
1897,3,1,617,1,0,0,1,593
1898,3,1,618,5,0,0,1,604
1899,3,1,619,20,0,0,1,1096
1900,3,1,620,2,0,0,1,518
1901,3,1,621,2,1,1,1,462
1902,3,1,622,1,1,1,1,520
1903,3,1,623,20,0,0,1,790
1904,3,1,624,5,1,1,1,612
1905,3,1,625,20,0,0,1,479
1906,3,1,626,20,0,0,1,718
1907,3,1,627,10,0,0,1,585
1908,3,1,628,20,0,0,1,386
1909,3,1,629,2,0,0,1,545
1910,3,1,630,20,0,0,1,403
1911,3,1,631,32,0,0,1,455
1912,3,1,632,32,1,1,1,687
1913,3,1,633,5,1,1,1,687
1914,3,1,634,1,1,1,1,647
1915,3,1,635,32,0,0,1,420
1916,3,1,636,1,0,0,1,390
1917,3,1,637,32,1,1,1,498
1918,3,1,638,5,1,1,1,520
1919,3,1,639,2,0,0,1,513
1920,3,1,640,32,0,0,1,536
1921,4,1,1,10,1,1,1,693
1922,4,1,2,10,1,1,1,566
1923,4,1,3,32,0,0,1,599
1924,4,1,4,20,1,1,1,484
1925,4,1,5,2,1,1,1,520
1926,4,1,6,2,1,1,1,677
1927,4,1,7,20,0,0,1,536
1928,4,1,8,32,0,0,1,534
1929,4,1,9,2,1,1,1,551
1930,4,1,10,10,1,1,1,625
1931,4,1,11,10,0,0,1,522
1932,4,1,12,5,1,1,1,689
1933,4,1,13,10,0,0,1,450
1934,4,1,14,20,1,1,1,504
1935,4,1,15,32,0,0,1,462
1936,4,1,16,10,0,0,1,579
1937,4,1,17,5,1,1,1,500
1938,4,1,18,32,0,0,1,563
1939,4,1,19,20,0,0,1,547
1940,4,1,20,2,0,0,1,450
1941,4,1,21,32,0,0,1,500
1942,4,1,22,5,0,0,1,501
1943,4,1,23,32,0,0,1,538
1944,4,1,24,20,1,1,1,631
1945,4,1,25,5,0,0,1,592
1946,4,1,26,2,1,1,1,498
1947,4,1,27,32,1,1,1,524
1948,4,1,28,20,1,1,1,593
1949,4,1,29,20,0,0,1,428
1950,4,1,30,5,0,0,1,499
1951,4,1,31,5,0,0,1,456
1952,4,1,32,5,0,0,1,496
1953,4,1,33,20,0,0,1,764
1954,4,1,34,5,0,0,1,489
1955,4,1,35,5,0,0,1,441
1956,4,1,36,2,0,0,1,556
1957,4,1,37,20,0,0,1,561
1958,4,1,38,2,1,1,1,565
1959,4,1,39,10,1,1,1,522
1960,4,1,40,20,0,0,1,608
1961,4,1,41,5,0,0,1,512
1962,4,1,42,20,0,0,1,469
1963,4,1,43,5,0,0,1,488
1964,4,1,44,32,1,1,1,527
1965,4,1,45,2,1,1,1,431
1966,4,1,46,20,0,0,1,646
1967,4,1,47,10,0,0,1,507
1968,4,1,48,32,1,1,1,606
1969,4,1,49,5,0,0,1,540
1970,4,1,50,2,0,0,1,521
1971,4,1,51,20,1,1,1,520
1972,4,1,52,2,1,1,1,472
1973,4,1,53,20,1,1,1,524
1974,4,1,54,1,1,1,1,541
1975,4,1,55,32,1,1,1,452
1976,4,1,56,10,0,0,1,520
1977,4,1,57,10,1,1,1,824
1978,4,1,58,32,1,1,1,503
1979,4,1,59,10,1,1,1,597
1980,4,1,60,20,0,0,1,585
1981,4,1,61,20,0,0,1,525
1982,4,1,62,10,1,1,1,497
1983,4,1,63,2,0,0,1,532
1984,4,1,64,20,1,1,1,444
1985,4,1,65,20,0,0,1,542
1986,4,1,66,2,1,1,1,521
1987,4,1,67,32,0,0,1,579
1988,4,1,68,1,0,0,1,514
1989,4,1,69,2,0,0,1,502
1990,4,1,70,2,0,0,1,732
1991,4,1,71,32,1,1,1,642
1992,4,1,72,5,1,1,1,636
1993,4,1,73,10,1,1,1,528
1994,4,1,74,20,1,1,1,483
1995,4,1,75,1,1,1,1,370
1996,4,1,76,32,0,0,1,631
1997,4,1,77,5,1,1,1,574
1998,4,1,78,32,0,0,1,662
1999,4,1,79,32,0,0,1,609
2000,4,1,80,10,1,1,1,549
2001,4,1,81,2,0,0,1,576
2002,4,1,82,10,1,1,1,422
2003,4,1,83,10,1,1,1,497
2004,4,1,84,5,1,1,1,399
2005,4,1,85,2,1,1,1,472
2006,4,1,86,1,1,1,1,517
2007,4,1,87,5,1,1,1,493
2008,4,1,88,32,0,0,1,537
2009,4,1,89,10,1,1,1,490
2010,4,1,90,32,1,1,1,448
2011,4,1,91,2,1,1,1,426
2012,4,1,92,5,0,0,1,962
2013,4,1,93,10,0,0,1,450
2014,4,1,94,1,0,0,1,368
2015,4,1,95,2,1,1,1,486
2016,4,1,96,20,0,0,1,526
2017,4,1,97,20,1,1,1,381
2018,4,1,98,10,0,0,1,561
2019,4,1,99,20,0,0,1,606
2020,4,1,100,32,0,0,1,558
2021,4,1,101,32,1,1,1,584
2022,4,1,102,5,0,0,1,530
2023,4,1,103,20,0,0,1,513
2024,4,1,104,5,0,0,1,427
2025,4,1,105,20,1,1,1,702
2026,4,1,106,5,0,0,1,515
2027,4,1,107,32,1,1,1,643
2028,4,1,108,10,0,0,1,482
2029,4,1,109,5,0,0,1,476
2030,4,1,110,2,0,0,1,449
2031,4,1,111,20,1,1,1,525
2032,4,1,112,32,0,0,1,504
2033,4,1,113,5,0,0,1,514
2034,4,1,114,10,1,1,1,579
2035,4,1,115,10,0,0,1,604
2036,4,1,116,10,1,1,1,497
2037,4,1,117,20,0,0,1,467
2038,4,1,118,20,0,0,1,592
2039,4,1,119,32,0,0,1,547
2040,4,1,120,32,1,1,1,540
2041,4,1,121,5,1,1,1,577
2042,4,1,122,32,1,1,1,614
2043,4,1,123,2,0,0,1,529
2044,4,1,124,10,1,1,1,527
2045,4,1,125,5,0,0,1,578
2046,4,1,126,1,0,0,1,490
2047,4,1,127,1,0,0,1,354
2048,4,1,128,32,0,0,1,569
2049,4,1,129,32,0,0,1,556
2050,4,1,130,20,1,1,1,537
2051,4,1,131,2,1,1,1,506
2052,4,1,132,32,1,1,1,731
2053,4,1,133,10,0,0,1,779
2054,4,1,134,5,1,1,1,568
2055,4,1,135,10,1,1,1,555
2056,4,1,136,5,1,1,1,520
2057,4,1,137,5,1,1,1,499
2058,4,1,138,5,1,1,1,553
2059,4,1,139,1,0,0,1,447
2060,4,1,140,32,1,1,1,526
2061,4,1,141,5,1,1,1,588
2062,4,1,142,20,0,0,1,464
2063,4,1,143,5,0,0,1,538
2064,4,1,144,20,0,0,1,662
2065,4,1,145,10,0,0,1,654
2066,4,1,146,5,1,1,1,517
2067,4,1,147,20,0,0,1,540
2068,4,1,148,32,1,1,1,429
2069,4,1,149,2,0,0,1,539
2070,4,1,150,10,0,0,1,461
2071,4,1,151,10,1,1,1,478
2072,4,1,152,1,0,0,1,504
2073,4,1,153,1,1,1,1,495
2074,4,1,154,32,0,0,1,718
2075,4,1,155,32,0,0,1,592
2076,4,1,156,2,1,1,1,646
2077,4,1,157,32,0,0,1,541
2078,4,1,158,5,1,1,1,570
2079,4,1,159,20,1,1,1,626
2080,4,1,160,2,0,0,1,542
2081,4,1,161,2,1,1,1,791
2082,4,1,162,5,1,1,1,566
2083,4,1,163,20,1,1,1,389
2084,4,1,164,2,1,1,1,651
2085,4,1,165,20,0,0,1,671
2086,4,1,166,2,1,1,1,478
2087,4,1,167,2,0,0,1,473
2088,4,1,168,2,0,0,1,477
2089,4,1,169,2,1,1,1,538
2090,4,1,170,10,1,1,1,559
2091,4,1,171,10,1,1,1,613
2092,4,1,172,10,1,1,1,534
2093,4,1,173,2,1,1,1,590
2094,4,1,174,20,0,0,1,567
2095,4,1,175,10,1,1,1,578
2096,4,1,176,5,1,1,1,486
2097,4,1,177,32,1,1,1,578
2098,4,1,178,32,0,0,1,477
2099,4,1,179,2,1,1,1,439
2100,4,1,180,5,1,1,1,699
2101,4,1,181,32,0,0,1,513
2102,4,1,182,2,1,1,1,492
2103,4,1,183,5,0,0,1,623
2104,4,1,184,20,1,1,1,597
2105,4,1,185,10,0,0,1,571
2106,4,1,186,10,1,1,1,503
2107,4,1,187,2,0,0,1,496
2108,4,1,188,10,1,1,1,583
2109,4,1,189,32,0,0,1,483
2110,4,1,190,32,1,1,1,597
2111,4,1,191,2,0,0,1,614
2112,4,1,192,10,0,0,1,808
2113,4,1,193,10,0,0,1,588
2114,4,1,194,1,1,1,1,500
2115,4,1,195,10,0,0,1,627
2116,4,1,196,32,1,1,1,447
2117,4,1,197,2,1,1,1,719
2118,4,1,198,5,0,0,1,523
2119,4,1,199,2,0,0,1,528
2120,4,1,200,2,1,1,1,450
2121,4,1,201,2,1,1,1,592
2122,4,1,202,2,1,1,1,432
2123,4,1,203,32,1,1,1,517
2124,4,1,204,2,0,0,1,512
2125,4,1,205,32,0,0,1,619
2126,4,1,206,20,1,1,1,552
2127,4,1,207,2,1,1,1,461
2128,4,1,208,1,0,0,1,451
2129,4,1,209,5,1,1,1,589
2130,4,1,210,2,0,0,1,489
2131,4,1,211,10,0,0,1,505
2132,4,1,212,20,1,1,1,536
2133,4,1,213,32,1,1,1,533
2134,4,1,214,5,0,0,1,488
2135,4,1,215,10,0,0,1,611
2136,4,1,216,32,0,0,1,500
2137,4,1,217,10,1,1,1,578
2138,4,1,218,2,0,0,1,392
2139,4,1,219,20,1,1,1,442
2140,4,1,220,10,0,0,1,590
2141,4,1,221,32,1,1,1,536
2142,4,1,222,32,0,0,1,460
2143,4,1,223,32,1,1,1,669
2144,4,1,224,5,0,0,1,466
2145,4,1,225,32,0,0,1,522
2146,4,1,226,32,0,0,1,509
2147,4,1,227,32,1,1,1,520
2148,4,1,228,2,0,0,1,544
2149,4,1,229,20,1,1,1,517
2150,4,1,230,32,1,1,1,462
2151,4,1,231,5,1,1,1,404
2152,4,1,232,20,0,0,1,540
2153,4,1,233,2,1,1,1,574
2154,4,1,234,5,1,1,1,415
2155,4,1,235,5,0,0,1,619
2156,4,1,236,10,0,0,1,550
2157,4,1,237,2,1,1,1,477
2158,4,1,238,32,1,1,1,530
2159,4,1,239,5,0,0,1,443
2160,4,1,240,5,1,1,1,469
2161,4,1,241,20,0,0,1,575
2162,4,1,242,5,1,1,1,515
2163,4,1,243,20,0,0,1,524
2164,4,1,244,20,1,1,1,457
2165,4,1,245,20,0,0,1,603
2166,4,1,246,5,0,0,1,563
2167,4,1,247,2,0,0,1,474
2168,4,1,248,1,0,0,1,455
2169,4,1,249,20,1,1,1,640
2170,4,1,250,32,0,0,1,522
2171,4,1,251,32,0,0,1,474
2172,4,1,252,2,0,0,1,479
2173,4,1,253,5,1,1,1,475
2174,4,1,254,32,0,0,1,643
2175,4,1,255,2,0,0,1,452
2176,4,1,256,10,0,0,1,665
2177,4,1,257,5,1,1,1,536
2178,4,1,258,20,1,1,1,537
2179,4,1,259,20,1,1,1,658
2180,4,1,260,20,0,0,1,568
2181,4,1,261,10,0,0,1,517
2182,4,1,262,2,1,1,1,604
2183,4,1,263,20,1,1,1,567
2184,4,1,264,2,0,0,1,416
2185,4,1,265,1,0,0,1,515
2186,4,1,266,20,1,1,1,521
2187,4,1,267,2,0,0,1,477
2188,4,1,268,10,0,0,1,662
2189,4,1,269,2,1,1,1,404
2190,4,1,270,10,0,0,1,520
2191,4,1,271,20,1,1,1,445
2192,4,1,272,5,1,1,1,587
2193,4,1,273,32,0,0,1,432
2194,4,1,274,5,1,1,1,506
2195,4,1,275,10,1,1,1,481
2196,4,1,276,32,1,1,1,392
2197,4,1,277,20,0,0,1,508
2198,4,1,278,5,0,0,1,456
2199,4,1,279,5,0,0,1,494
2200,4,1,280,5,1,1,1,522
2201,4,1,281,20,1,1,1,521
2202,4,1,282,5,1,1,1,464
2203,4,1,283,32,0,0,1,440
2204,4,1,284,20,0,0,1,639
2205,4,1,285,32,0,0,1,461
2206,4,1,286,10,1,1,1,492
2207,4,1,287,32,0,0,1,516
2208,4,1,288,10,1,1,1,458
2209,4,1,289,10,1,1,1,475
2210,4,1,290,20,0,0,1,495
2211,4,1,291,32,1,1,1,509
2212,4,1,292,2,0,0,1,434
2213,4,1,293,32,1,1,1,498
2214,4,1,294,5,1,1,1,544
2215,4,1,295,2,0,0,1,565
2216,4,1,296,10,1,1,1,581
2217,4,1,297,10,1,1,1,432
2218,4,1,298,32,1,1,1,469
2219,4,1,299,20,0,0,1,529
2220,4,1,300,20,0,0,1,482
2221,4,1,301,2,1,1,1,608
2222,4,1,302,2,0,0,1,458
2223,4,1,303,5,1,1,1,472
2224,4,1,304,2,0,0,1,478
2225,4,1,305,10,1,1,1,427
2226,4,1,306,5,1,1,1,578
2227,4,1,307,2,0,0,1,392
2228,4,1,308,2,0,0,1,435
2229,4,1,309,2,1,1,1,551
2230,4,1,310,10,0,0,1,596
2231,4,1,311,20,1,1,1,495
2232,4,1,312,1,1,1,1,602
2233,4,1,313,20,1,1,1,621
2234,4,1,314,1,1,1,1,511
2235,4,1,315,2,1,1,1,718
2236,4,1,316,32,0,0,1,581
2237,4,1,317,5,1,1,1,597
2238,4,1,318,32,1,1,1,562
2239,4,1,319,2,1,1,1,692
2240,4,1,320,32,1,1,1,549
2241,4,1,321,5,1,1,1,577
2242,4,1,322,10,0,0,1,461
2243,4,1,323,2,1,1,1,362
2244,4,1,324,5,1,1,1,662
2245,4,1,325,10,1,1,1,486
2246,4,1,326,2,0,0,1,592
2247,4,1,327,1,0,0,1,526
2248,4,1,328,2,0,0,1,701
2249,4,1,329,2,1,1,1,631
2250,4,1,330,20,0,0,1,548
2251,4,1,331,1,0,0,1,372
2252,4,1,332,5,0,0,1,549
2253,4,1,333,2,1,1,1,560
2254,4,1,334,1,1,1,1,431
2255,4,1,335,20,1,1,1,507
2256,4,1,336,5,1,1,1,697
2257,4,1,337,32,0,0,1,534
2258,4,1,338,20,0,0,1,530
2259,4,1,339,2,0,0,1,550
2260,4,1,340,20,1,1,1,487
2261,4,1,341,5,1,1,1,554
2262,4,1,342,32,1,1,1,545
2263,4,1,343,5,0,0,1,425
2264,4,1,344,32,1,1,1,502
2265,4,1,345,20,1,1,1,658
2266,4,1,346,2,1,1,1,339
2267,4,1,347,10,1,1,1,604
2268,4,1,348,2,1,1,1,367
2269,4,1,349,20,1,1,1,421
2270,4,1,350,32,1,1,1,465
2271,4,1,351,32,1,1,1,457
2272,4,1,352,10,1,1,1,423
2273,4,1,353,2,0,0,1,414
2274,4,1,354,20,1,1,1,469
2275,4,1,355,2,0,0,1,437
2276,4,1,356,32,0,0,1,553
2277,4,1,357,10,1,1,1,843
2278,4,1,358,2,0,0,1,452
2279,4,1,359,20,0,0,1,574
2280,4,1,360,20,0,0,1,453
2281,4,1,361,20,1,1,1,520
2282,4,1,362,5,0,0,1,415
2283,4,1,363,32,0,0,1,464
2284,4,1,364,10,0,0,1,495
2285,4,1,365,2,1,1,1,372
2286,4,1,366,32,0,0,1,586
2287,4,1,367,10,0,0,1,401
2288,4,1,368,5,1,1,1,420
2289,4,1,369,20,1,1,1,545
2290,4,1,370,10,1,1,1,502
2291,4,1,371,32,1,1,1,371
2292,4,1,372,1,1,1,1,457
2293,4,1,373,32,1,1,1,496
2294,4,1,374,32,0,0,1,464
2295,4,1,375,1,0,0,1,432
2296,4,1,376,32,1,1,1,458
2297,4,1,377,10,1,1,1,421
2298,4,1,378,10,1,1,1,459
2299,4,1,379,20,1,1,1,415
2300,4,1,380,5,0,0,1,430
2301,4,1,381,32,1,1,1,424
2302,4,1,382,32,1,1,1,479
2303,4,1,383,32,0,0,1,463
2304,4,1,384,2,1,1,1,450
2305,4,1,385,5,1,1,1,731
2306,4,1,386,5,0,0,1,616
2307,4,1,387,5,1,1,1,505
2308,4,1,388,20,0,0,1,621
2309,4,1,389,32,0,0,1,678
2310,4,1,390,10,0,0,1,861
2311,4,1,391,20,1,1,1,430
2312,4,1,392,32,1,1,1,512
2313,4,1,393,10,1,1,1,484
2314,4,1,394,10,0,0,1,473
2315,4,1,395,10,1,1,1,636
2316,4,1,396,20,0,0,1,521
2317,4,1,397,10,1,1,1,461
2318,4,1,398,2,1,1,1,405
2319,4,1,399,10,0,0,1,528
2320,4,1,400,2,1,1,1,492
2321,4,1,401,32,1,1,1,530
2322,4,1,402,20,1,1,1,535
2323,4,1,403,1,1,1,1,428
2324,4,1,404,10,1,1,1,748
2325,4,1,405,5,0,0,0,305
2326,4,1,406,20,0,0,1,562
2327,4,1,407,10,1,1,1,364
2328,4,1,408,20,1,1,1,470
2329,4,1,409,10,0,0,1,420
2330,4,1,410,20,1,1,1,481
2331,4,1,411,20,0,0,1,451
2332,4,1,412,2,0,0,1,373
2333,4,1,413,20,1,1,1,416
2334,4,1,414,2,0,0,1,500
2335,4,1,415,10,0,0,1,630
2336,4,1,416,10,1,1,1,715
2337,4,1,417,2,1,1,1,532
2338,4,1,418,5,1,1,1,424
2339,4,1,419,5,0,0,1,460
2340,4,1,420,10,0,0,1,391
2341,4,1,421,10,0,0,1,532
2342,4,1,422,5,0,0,1,431
2343,4,1,423,10,1,1,1,653
2344,4,1,424,20,1,1,1,479
2345,4,1,425,32,0,0,1,528
2346,4,1,426,20,1,1,1,375
2347,4,1,427,32,0,0,1,451
2348,4,1,428,2,1,1,1,430
2349,4,1,429,2,0,0,1,604
2350,4,1,430,20,0,0,1,590
2351,4,1,431,32,1,1,1,601
2352,4,1,432,20,0,0,1,504
2353,4,1,433,2,0,0,1,508
2354,4,1,434,32,1,1,1,528
2355,4,1,435,32,1,1,0,563
2356,4,1,436,5,0,0,1,499
2357,4,1,437,5,1,1,1,531
2358,4,1,438,20,1,1,1,629
2359,4,1,439,10,0,0,1,553
2360,4,1,440,2,0,0,1,521
2361,4,1,441,1,1,1,1,525
2362,4,1,442,10,1,1,1,559
2363,4,1,443,32,0,0,1,453
2364,4,1,444,2,0,0,1,532
2365,4,1,445,20,1,1,1,489
2366,4,1,446,10,0,0,1,480
2367,4,1,447,10,0,0,1,558
2368,4,1,448,5,0,0,1,501
2369,4,1,449,2,1,1,1,748
2370,4,1,450,2,1,1,1,533
2371,4,1,451,5,1,1,1,496
2372,4,1,452,5,0,0,1,573
2373,4,1,453,1,0,0,1,425
2374,4,1,454,10,1,1,1,551
2375,4,1,455,20,0,0,1,630
2376,4,1,456,5,1,1,1,554
2377,4,1,457,2,1,1,1,454
2378,4,1,458,20,0,0,1,511
2379,4,1,459,10,0,0,1,664
2380,4,1,460,32,1,1,1,531
2381,4,1,461,32,1,1,1,581
2382,4,1,462,5,0,0,1,460
2383,4,1,463,2,1,1,1,525
2384,4,1,464,1,0,0,1,415
2385,4,1,465,10,1,1,1,552
2386,4,1,466,2,0,0,1,454
2387,4,1,467,5,1,1,1,705
2388,4,1,468,2,0,0,1,1032
2389,4,1,469,2,1,1,1,484
2390,4,1,470,20,1,1,1,457
2391,4,1,471,2,0,0,1,472
2392,4,1,472,10,1,1,1,496
2393,4,1,473,20,0,0,1,539
2394,4,1,474,1,1,1,1,501
2395,4,1,475,32,0,0,1,401
2396,4,1,476,5,0,0,1,419
2397,4,1,477,20,1,1,1,499
2398,4,1,478,10,0,0,1,432
2399,4,1,479,32,0,0,1,512
2400,4,1,480,32,0,0,1,697
2401,4,1,481,10,1,1,1,514
2402,4,1,482,32,1,1,1,510
2403,4,1,483,2,1,1,1,438
2404,4,1,484,32,1,1,1,540
2405,4,1,485,32,0,0,1,611
2406,4,1,486,32,0,0,1,541
2407,4,1,487,20,1,1,1,408
2408,4,1,488,2,1,1,1,459
2409,4,1,489,32,0,0,1,497
2410,4,1,490,5,0,0,1,376
2411,4,1,491,2,1,1,1,404
2412,4,1,492,20,1,1,1,626
2413,4,1,493,5,1,1,1,606
2414,4,1,494,10,1,1,1,575
2415,4,1,495,5,0,0,1,531
2416,4,1,496,5,1,1,1,506
2417,4,1,497,5,0,0,1,484
2418,4,1,498,10,0,0,1,500
2419,4,1,499,5,0,0,1,365
2420,4,1,500,10,0,0,1,466
2421,4,1,501,32,0,0,1,684
2422,4,1,502,5,0,0,1,526
2423,4,1,503,10,1,1,1,515
2424,4,1,504,20,0,0,1,623
2425,4,1,505,5,0,0,1,466
2426,4,1,506,32,1,1,1,496
2427,4,1,507,2,0,0,1,438
2428,4,1,508,32,1,1,1,515
2429,4,1,509,32,1,1,1,439
2430,4,1,510,10,0,0,1,406
2431,4,1,511,32,1,1,1,483
2432,4,1,512,5,0,0,1,400
2433,4,1,513,10,0,0,1,502
2434,4,1,514,10,0,0,1,537
2435,4,1,515,10,0,0,1,514
2436,4,1,516,10,0,0,1,423
2437,4,1,517,10,0,0,1,405
2438,4,1,518,2,1,1,1,438
2439,4,1,519,10,0,0,1,428
2440,4,1,520,10,1,1,1,583
2441,4,1,521,10,1,1,1,461
2442,4,1,522,10,1,1,1,477
2443,4,1,523,2,0,0,1,532
2444,4,1,524,32,0,0,1,513
2445,4,1,525,1,1,1,1,400
2446,4,1,526,5,1,1,1,609
2447,4,1,527,10,0,0,1,348
2448,4,1,528,10,1,1,1,394
2449,4,1,529,10,1,1,1,364
2450,4,1,530,2,1,1,1,441
2451,4,1,531,20,1,1,1,351
2452,4,1,532,32,0,0,1,498
2453,4,1,533,5,0,0,1,592
2454,4,1,534,2,1,1,1,398
2455,4,1,535,2,0,0,1,348
2456,4,1,536,1,0,0,1,450
2457,4,1,537,32,0,0,1,524
2458,4,1,538,1,1,1,1,465
2459,4,1,539,20,0,0,1,475
2460,4,1,540,2,0,0,1,461
2461,4,1,541,20,0,0,1,483
2462,4,1,542,20,0,0,1,472
2463,4,1,543,5,0,0,1,635
2464,4,1,544,10,0,0,1,433
2465,4,1,545,20,1,1,1,542
2466,4,1,546,1,0,0,1,458
2467,4,1,547,32,1,1,1,429
2468,4,1,548,2,0,0,1,402
2469,4,1,549,5,1,1,1,434
2470,4,1,550,10,0,0,1,496
2471,4,1,551,32,0,0,1,436
2472,4,1,552,20,0,0,1,526
2473,4,1,553,2,0,0,1,488
2474,4,1,554,20,1,1,1,541
2475,4,1,555,10,1,1,1,566
2476,4,1,556,2,0,0,1,763
2477,4,1,557,20,0,0,1,530
2478,4,1,558,5,1,1,1,635
2479,4,1,559,2,1,1,1,472
2480,4,1,560,5,1,1,1,494
2481,4,1,561,20,0,0,1,584
2482,4,1,562,20,1,1,1,402
2483,4,1,563,1,0,0,1,328
2484,4,1,564,5,0,0,1,461
2485,4,1,565,32,1,1,1,466
2486,4,1,566,2,0,0,1,586
2487,4,1,567,32,1,1,1,484
2488,4,1,568,20,0,0,1,577
2489,4,1,569,20,1,1,1,427
2490,4,1,570,20,0,0,1,466
2491,4,1,571,1,0,0,1,453
2492,4,1,572,2,0,0,1,413
2493,4,1,573,5,1,1,1,392
2494,4,1,574,1,0,0,1,398
2495,4,1,575,5,1,1,1,389
2496,4,1,576,32,0,0,1,468
2497,4,1,577,20,1,1,1,324
2498,4,1,578,32,0,0,1,597
2499,4,1,579,5,1,1,1,440
2500,4,1,580,20,0,0,1,636
2501,4,1,581,10,0,0,1,376
2502,4,1,582,5,1,1,1,383
2503,4,1,583,2,0,0,1,340
2504,4,1,584,5,1,1,1,352
2505,4,1,585,2,0,0,1,419
2506,4,1,586,1,1,1,1,342
2507,4,1,587,10,0,0,1,359
2508,4,1,588,2,1,1,1,541
2509,4,1,589,32,1,1,1,649
2510,4,1,590,10,0,0,1,501
2511,4,1,591,32,1,1,1,525
2512,4,1,592,32,0,0,1,552
2513,4,1,593,5,1,1,1,552
2514,4,1,594,2,1,1,1,486
2515,4,1,595,5,0,0,1,572
2516,4,1,596,1,1,1,1,333
2517,4,1,597,20,0,0,1,468
2518,4,1,598,5,1,1,1,411
2519,4,1,599,5,1,1,1,597
2520,4,1,600,1,0,0,1,393
2521,4,1,601,20,1,1,1,505
2522,4,1,602,5,0,0,1,360
2523,4,1,603,10,0,0,1,436
2524,4,1,604,2,0,0,1,336
2525,4,1,605,32,0,0,1,560
2526,4,1,606,2,1,1,1,549
2527,4,1,607,5,1,1,1,528
2528,4,1,608,20,0,0,1,665
2529,4,1,609,1,1,1,1,628
2530,4,1,610,20,0,0,1,532
2531,4,1,611,1,1,1,1,386
2532,4,1,612,1,1,1,1,423
2533,4,1,613,10,0,0,1,413
2534,4,1,614,2,0,0,1,393
2535,4,1,615,10,0,0,1,440
2536,4,1,616,10,1,1,1,419
2537,4,1,617,5,0,0,1,453
2538,4,1,618,20,0,0,1,417
2539,4,1,619,10,0,0,1,428
2540,4,1,620,32,1,1,1,510
2541,4,1,621,5,0,0,1,498
2542,4,1,622,10,0,0,1,426
2543,4,1,623,5,0,0,1,611
2544,4,1,624,5,0,0,1,436
2545,4,1,625,20,1,1,1,572
2546,4,1,626,5,0,0,1,522
2547,4,1,627,20,1,1,1,581
2548,4,1,628,5,0,0,1,522
2549,4,1,629,1,1,1,1,434
2550,4,1,630,5,0,0,1,379
2551,4,1,631,10,1,1,1,392
2552,4,1,632,20,1,1,1,547
2553,4,1,633,2,1,1,1,423
2554,4,1,634,5,0,0,1,457
2555,4,1,635,32,1,1,1,478
2556,4,1,636,32,1,1,1,441
2557,4,1,637,2,0,0,1,430
2558,4,1,638,20,0,0,1,466
2559,4,1,639,5,1,1,1,428
2560,4,1,640,20,0,0,1,436
2561,5,1,1,32,0,0,1,629
2562,5,1,2,10,1,1,1,411
2563,5,1,3,10,0,0,1,547
2564,5,1,4,10,1,1,1,638
2565,5,1,5,20,1,1,1,537
2566,5,1,6,10,0,0,1,793
2567,5,1,7,20,1,1,1,538
2568,5,1,8,20,0,0,1,666
2569,5,1,9,32,1,1,1,450
2570,5,1,10,20,0,0,1,442
2571,5,1,11,32,0,0,1,587
2572,5,1,12,20,0,0,1,539
2573,5,1,13,10,0,0,1,431
2574,5,1,14,10,0,0,1,475
2575,5,1,15,10,0,0,1,450
2576,5,1,16,2,1,1,1,510
2577,5,1,17,2,0,0,1,462
2578,5,1,18,20,1,1,1,383
2579,5,1,19,5,1,1,1,663
2580,5,1,20,2,1,1,1,565
2581,5,1,21,5,1,1,1,414
2582,5,1,22,1,1,1,1,398
2583,5,1,23,20,1,1,1,434
2584,5,1,24,20,1,1,1,464
2585,5,1,25,10,0,0,1,601
2586,5,1,26,10,0,0,1,498
2587,5,1,27,32,1,1,1,487
2588,5,1,28,5,1,1,1,984
2589,5,1,29,20,0,0,1,682
2590,5,1,30,20,1,1,1,667
2591,5,1,31,1,0,0,1,648
2592,5,1,32,5,0,0,1,568
2593,5,1,33,20,0,0,1,799
2594,5,1,34,5,0,0,1,539
2595,5,1,35,10,0,0,1,753
2596,5,1,36,10,0,0,1,460
2597,5,1,37,2,0,0,1,606
2598,5,1,38,20,1,1,1,665
2599,5,1,39,20,1,1,1,582
2600,5,1,40,20,1,1,1,603
2601,5,1,41,5,0,0,1,599
2602,5,1,42,1,0,0,1,506
2603,5,1,43,10,0,0,1,637
2604,5,1,44,20,1,1,1,517
2605,5,1,45,5,1,1,1,555
2606,5,1,46,32,1,1,1,565
2607,5,1,47,20,0,0,1,583
2608,5,1,48,1,0,0,1,489
2609,5,1,49,20,1,1,1,475
2610,5,1,50,32,0,0,1,535
2611,5,1,51,32,0,0,1,597
2612,5,1,52,10,1,1,1,442
2613,5,1,53,2,0,0,1,421
2614,5,1,54,2,0,0,1,691
2615,5,1,55,5,1,1,1,519
2616,5,1,56,32,0,0,1,545
2617,5,1,57,5,0,0,1,529
2618,5,1,58,2,0,0,1,600
2619,5,1,59,20,1,1,1,493
2620,5,1,60,20,1,1,1,464
2621,5,1,61,32,1,1,1,534
2622,5,1,62,1,0,0,1,421
2623,5,1,63,32,0,0,1,584
2624,5,1,64,10,1,1,1,519
2625,5,1,65,10,0,0,1,550
2626,5,1,66,2,1,1,1,682
2627,5,1,67,10,0,0,1,616
2628,5,1,68,10,0,0,1,519
2629,5,1,69,5,0,0,1,666
2630,5,1,70,5,1,1,1,546
2631,5,1,71,10,0,0,1,517
2632,5,1,72,5,1,1,1,579
2633,5,1,73,1,0,0,1,416
2634,5,1,74,20,0,0,1,588
2635,5,1,75,1,1,1,1,392
2636,5,1,76,32,1,1,1,642
2637,5,1,77,32,1,1,1,565
2638,5,1,78,5,1,1,1,478
2639,5,1,79,10,1,1,1,469
2640,5,1,80,2,1,1,1,622
2641,5,1,81,2,0,0,1,566
2642,5,1,82,2,0,0,1,443
2643,5,1,83,20,0,0,1,498
2644,5,1,84,10,0,0,1,572
2645,5,1,85,1,0,0,1,353
2646,5,1,86,2,1,1,1,553
2647,5,1,87,20,0,0,1,507
2648,5,1,88,10,0,0,1,568
2649,5,1,89,5,1,1,1,458
2650,5,1,90,32,1,1,1,530
2651,5,1,91,1,0,0,1,480
2652,5,1,92,5,0,0,1,478
2653,5,1,93,32,0,0,1,555
2654,5,1,94,20,0,0,1,514
2655,5,1,95,10,1,1,1,543
2656,5,1,96,1,1,1,1,394
2657,5,1,97,2,1,1,1,565
2658,5,1,98,5,0,0,1,619
2659,5,1,99,2,0,0,1,444
2660,5,1,100,2,1,1,1,623
2661,5,1,101,10,0,0,1,568
2662,5,1,102,10,0,0,1,566
2663,5,1,103,32,0,0,1,480
2664,5,1,104,2,1,1,1,445
2665,5,1,105,20,1,1,1,481
2666,5,1,106,2,1,1,1,544
2667,5,1,107,20,1,1,1,514
2668,5,1,108,32,0,0,1,615
2669,5,1,109,32,1,1,1,430
2670,5,1,110,20,1,1,1,550
2671,5,1,111,20,0,0,1,506
2672,5,1,112,5,0,0,1,753
2673,5,1,113,32,0,0,1,815
2674,5,1,114,10,0,0,1,609
2675,5,1,115,2,1,1,1,409
2676,5,1,116,5,0,0,1,464
2677,5,1,117,10,1,1,1,602
2678,5,1,118,10,0,0,1,458
2679,5,1,119,1,0,0,1,415
2680,5,1,120,2,0,0,1,368
2681,5,1,121,32,1,1,1,465
2682,5,1,122,5,0,0,1,483
2683,5,1,123,5,0,0,0,446
2684,5,1,124,1,1,1,1,397
2685,5,1,125,20,0,0,1,530
2686,5,1,126,2,1,1,1,436
2687,5,1,127,5,0,0,1,470
2688,5,1,128,20,1,1,1,592
2689,5,1,129,10,1,1,1,477
2690,5,1,130,32,0,0,1,602
2691,5,1,131,10,1,1,1,627
2692,5,1,132,5,1,1,1,432
2693,5,1,133,20,0,0,1,537
2694,5,1,134,5,1,1,1,416
2695,5,1,135,10,1,1,1,616
2696,5,1,136,2,1,1,1,609
2697,5,1,137,2,1,1,1,651
2698,5,1,138,2,0,0,1,527
2699,5,1,139,5,0,0,1,683
2700,5,1,140,5,1,1,1,471
2701,5,1,141,32,0,0,1,604
2702,5,1,142,32,0,0,1,634
2703,5,1,143,32,1,1,1,475
2704,5,1,144,32,1,1,1,536
2705,5,1,145,1,1,1,1,484
2706,5,1,146,5,0,0,1,587
2707,5,1,147,2,0,0,1,721
2708,5,1,148,10,1,1,1,525
2709,5,1,149,10,1,1,1,575
2710,5,1,150,32,1,1,1,532
2711,5,1,151,32,1,1,1,570
2712,5,1,152,2,1,1,1,421
2713,5,1,153,32,0,0,1,542
2714,5,1,154,2,1,1,1,476
2715,5,1,155,20,0,0,1,602
2716,5,1,156,5,1,1,1,525
2717,5,1,157,1,1,1,1,423
2718,5,1,158,20,0,0,1,566
2719,5,1,159,20,0,0,1,583
2720,5,1,160,20,0,0,1,576
2721,5,1,161,32,1,1,1,537
2722,5,1,162,20,0,0,1,519
2723,5,1,163,10,1,1,1,598
2724,5,1,164,1,0,0,1,555
2725,5,1,165,2,0,0,1,543
2726,5,1,166,32,1,1,1,568
2727,5,1,167,5,0,0,1,580
2728,5,1,168,20,0,0,1,462
2729,5,1,169,10,1,1,1,625
2730,5,1,170,20,1,1,1,707
2731,5,1,171,5,0,0,1,567
2732,5,1,172,20,0,0,1,628
2733,5,1,173,5,1,1,1,534
2734,5,1,174,20,1,1,1,509
2735,5,1,175,20,0,0,1,592
2736,5,1,176,20,0,0,1,518
2737,5,1,177,20,1,1,1,398
2738,5,1,178,2,1,1,1,659
2739,5,1,179,5,0,0,1,554
2740,5,1,180,10,1,1,1,548
2741,5,1,181,5,1,1,1,457
2742,5,1,182,1,1,1,1,479
2743,5,1,183,10,0,0,1,547
2744,5,1,184,10,1,1,1,401
2745,5,1,185,5,1,1,1,479
2746,5,1,186,32,0,0,1,490
2747,5,1,187,20,1,1,1,409
2748,5,1,188,10,0,0,1,520
2749,5,1,189,20,0,0,1,656
2750,5,1,190,32,0,0,1,609
2751,5,1,191,32,0,0,1,654
2752,5,1,192,20,1,1,1,686
2753,5,1,193,1,0,0,1,538
2754,5,1,194,2,1,1,1,538
2755,5,1,195,32,0,0,1,564
2756,5,1,196,5,1,1,1,498
2757,5,1,197,5,1,1,1,623
2758,5,1,198,5,0,0,1,459
2759,5,1,199,2,1,1,1,463
2760,5,1,200,5,0,0,1,543
2761,5,1,201,32,1,1,1,467
2762,5,1,202,32,0,0,1,622
2763,5,1,203,32,0,0,1,650
2764,5,1,204,32,0,0,1,573
2765,5,1,205,32,0,0,1,544
2766,5,1,206,20,1,1,1,505
2767,5,1,207,5,0,0,1,475
2768,5,1,208,5,1,1,1,415
2769,5,1,209,2,1,1,1,421
2770,5,1,210,5,0,0,1,490
2771,5,1,211,5,0,0,1,542
2772,5,1,212,2,1,1,1,579
2773,5,1,213,32,0,0,1,578
2774,5,1,214,5,0,0,1,625
2775,5,1,215,2,0,0,1,750
2776,5,1,216,10,1,1,1,566
2777,5,1,217,2,0,0,1,441
2778,5,1,218,10,1,1,1,430
2779,5,1,219,10,0,0,1,437
2780,5,1,220,10,0,0,1,509
2781,5,1,221,1,0,0,1,518
2782,5,1,222,32,0,0,1,620
2783,5,1,223,2,1,1,1,408
2784,5,1,224,10,1,1,1,462
2785,5,1,225,32,1,1,1,627
2786,5,1,226,32,0,0,1,494
2787,5,1,227,32,1,1,1,550
2788,5,1,228,2,0,0,1,529
2789,5,1,229,2,1,1,1,504
2790,5,1,230,2,1,1,1,597
2791,5,1,231,2,1,1,1,500
2792,5,1,232,32,0,0,1,738
2793,5,1,233,2,1,1,1,589
2794,5,1,234,2,1,1,1,563
2795,5,1,235,32,0,0,1,589
2796,5,1,236,20,0,0,1,576
2797,5,1,237,32,0,0,1,831
2798,5,1,238,5,1,1,1,527
2799,5,1,239,20,1,1,1,620
2800,5,1,240,32,0,0,1,547
2801,5,1,241,5,0,0,1,610
2802,5,1,242,2,1,1,1,506
2803,5,1,243,10,0,0,1,919
2804,5,1,244,1,1,1,1,456
2805,5,1,245,32,0,0,1,1013
2806,5,1,246,2,1,1,1,762
2807,5,1,247,32,0,0,1,637
2808,5,1,248,5,0,0,1,851
2809,5,1,249,32,0,0,1,735
2810,5,1,250,5,1,1,1,802
2811,5,1,251,32,0,0,1,582
2812,5,1,252,2,0,0,1,1120
2813,5,1,253,2,0,0,1,437
2814,5,1,254,10,1,1,1,490
2815,5,1,255,10,0,0,1,435
2816,5,1,256,20,1,1,1,489
2817,5,1,257,5,1,1,1,670
2818,5,1,258,5,1,1,1,544
2819,5,1,259,20,1,1,1,505
2820,5,1,260,32,1,1,1,401
2821,5,1,261,32,1,1,1,394
2822,5,1,262,20,1,1,1,418
2823,5,1,263,5,0,0,1,478
2824,5,1,264,5,0,0,1,456
2825,5,1,265,5,0,0,1,533
2826,5,1,266,20,0,0,1,711
2827,5,1,267,5,0,0,1,720
2828,5,1,268,10,1,1,1,509
2829,5,1,269,20,1,1,1,790
2830,5,1,270,10,1,1,1,677
2831,5,1,271,2,0,0,1,513
2832,5,1,272,5,1,1,1,506
2833,5,1,273,2,0,0,1,470
2834,5,1,274,10,0,0,1,646
2835,5,1,275,20,0,0,1,652
2836,5,1,276,32,0,0,1,594
2837,5,1,277,2,1,1,1,519
2838,5,1,278,32,1,1,1,729
2839,5,1,279,10,0,0,1,798
2840,5,1,280,32,1,1,1,444
2841,5,1,281,2,0,0,1,506
2842,5,1,282,2,0,0,1,641
2843,5,1,283,32,1,1,1,652
2844,5,1,284,2,0,0,1,404
2845,5,1,285,32,1,1,1,590
2846,5,1,286,20,1,1,0,518
2847,5,1,287,1,0,0,1,423
2848,5,1,288,10,0,0,1,624
2849,5,1,289,20,1,1,1,401
2850,5,1,290,2,0,0,1,557
2851,5,1,291,20,1,1,1,575
2852,5,1,292,20,0,0,1,596
2853,5,1,293,2,0,0,1,604
2854,5,1,294,2,1,1,1,399
2855,5,1,295,2,0,0,1,509
2856,5,1,296,5,1,1,1,417
2857,5,1,297,32,0,0,1,642
2858,5,1,298,5,1,1,1,592
2859,5,1,299,32,0,0,1,413
2860,5,1,300,1,1,1,1,374
2861,5,1,301,32,0,0,1,465
2862,5,1,302,10,1,1,1,486
2863,5,1,303,10,1,1,1,465
2864,5,1,304,2,1,1,1,421
2865,5,1,305,10,0,0,1,681
2866,5,1,306,10,0,0,1,569
2867,5,1,307,5,1,1,1,411
2868,5,1,308,32,1,1,1,478
2869,5,1,309,20,1,1,1,553
2870,5,1,310,5,0,0,1,412
2871,5,1,311,2,1,1,1,392
2872,5,1,312,2,1,1,1,457
2873,5,1,313,10,1,1,1,420
2874,5,1,314,1,1,1,1,445
2875,5,1,315,20,1,1,1,627
2876,5,1,316,10,1,1,1,457
2877,5,1,317,5,1,1,1,683
2878,5,1,318,2,0,0,1,574
2879,5,1,319,32,0,0,1,597
2880,5,1,320,5,0,0,1,669
2881,5,1,321,5,1,1,1,433
2882,5,1,322,10,0,0,1,429
2883,5,1,323,32,1,1,1,532
2884,5,1,324,20,1,1,1,598
2885,5,1,325,10,1,1,1,543
2886,5,1,326,10,1,1,1,549
2887,5,1,327,32,1,1,1,510
2888,5,1,328,20,0,0,1,693
2889,5,1,329,2,1,1,1,452
2890,5,1,330,5,0,0,1,391
2891,5,1,331,10,0,0,1,558
2892,5,1,332,2,0,0,1,550
2893,5,1,333,5,0,0,1,631
2894,5,1,334,5,1,1,1,608
2895,5,1,335,20,1,1,1,533
2896,5,1,336,1,0,0,1,503
2897,5,1,337,5,0,0,1,516
2898,5,1,338,20,1,1,1,491
2899,5,1,339,10,1,1,1,426
2900,5,1,340,10,1,1,1,466
2901,5,1,341,20,0,0,1,474
2902,5,1,342,2,1,1,1,363
2903,5,1,343,5,1,1,1,508
2904,5,1,344,10,0,0,1,571
2905,5,1,345,10,1,1,1,561
2906,5,1,346,2,1,1,1,590
2907,5,1,347,2,0,0,1,514
2908,5,1,348,5,1,1,1,593
2909,5,1,349,10,0,0,1,434
2910,5,1,350,2,0,0,1,440
2911,5,1,351,10,0,0,1,514
2912,5,1,352,5,1,1,1,610
2913,5,1,353,32,0,0,1,619
2914,5,1,354,20,0,0,1,533
2915,5,1,355,32,0,0,1,597
2916,5,1,356,2,0,0,1,749
2917,5,1,357,5,1,1,1,522
2918,5,1,358,1,0,0,1,547
2919,5,1,359,10,1,1,1,687
2920,5,1,360,32,0,0,1,589
2921,5,1,361,20,1,1,1,647
2922,5,1,362,5,1,1,1,660
2923,5,1,363,32,0,0,1,561
2924,5,1,364,2,1,1,1,401
2925,5,1,365,10,1,1,1,645
2926,5,1,366,10,1,1,1,485
2927,5,1,367,20,0,0,1,585
2928,5,1,368,20,1,1,1,513
2929,5,1,369,2,1,1,1,557
2930,5,1,370,32,1,1,1,458
2931,5,1,371,10,0,0,1,571
2932,5,1,372,2,0,0,0,406
2933,5,1,373,5,1,1,1,511
2934,5,1,374,5,0,0,1,602
2935,5,1,375,2,0,0,1,549
2936,5,1,376,10,1,1,1,529
2937,5,1,377,32,1,1,1,476
2938,5,1,378,20,1,1,1,485
2939,5,1,379,32,1,1,1,504
2940,5,1,380,5,0,0,1,414
2941,5,1,381,10,0,0,1,939
2942,5,1,382,32,1,1,1,533
2943,5,1,383,20,0,0,1,515
2944,5,1,384,20,0,0,1,530
2945,5,1,385,1,0,0,1,407
2946,5,1,386,2,1,1,1,381
2947,5,1,387,5,0,0,1,390
2948,5,1,388,2,0,0,1,509
2949,5,1,389,2,1,1,1,436
2950,5,1,390,10,1,1,1,618
2951,5,1,391,20,0,0,1,431
2952,5,1,392,20,0,0,1,672
2953,5,1,393,10,0,0,1,493
2954,5,1,394,2,0,0,1,524
2955,5,1,395,2,1,1,1,382
2956,5,1,396,32,0,0,1,502
2957,5,1,397,32,1,1,1,466
2958,5,1,398,2,1,1,1,459
2959,5,1,399,32,1,1,1,640
2960,5,1,400,5,1,1,1,589
2961,5,1,401,32,0,0,1,538
2962,5,1,402,20,1,1,1,756
2963,5,1,403,10,0,0,1,529
2964,5,1,404,10,1,1,1,485
2965,5,1,405,5,1,1,1,434
2966,5,1,406,5,0,0,1,565
2967,5,1,407,20,1,1,1,394
2968,5,1,408,20,1,1,1,439
2969,5,1,409,1,1,1,1,384
2970,5,1,410,2,0,0,0,436
2971,5,1,411,32,1,1,1,509
2972,5,1,412,5,1,1,1,529
2973,5,1,413,5,0,0,1,464
2974,5,1,414,5,1,1,1,445
2975,5,1,415,5,1,1,1,401
2976,5,1,416,20,0,0,1,476
2977,5,1,417,32,1,1,1,436
2978,5,1,418,32,1,1,1,585
2979,5,1,419,10,0,0,1,481
2980,5,1,420,20,1,1,1,541
2981,5,1,421,10,0,0,1,568
2982,5,1,422,32,1,1,1,503
2983,5,1,423,32,0,0,1,604
2984,5,1,424,20,0,0,1,486
2985,5,1,425,20,1,1,1,704
2986,5,1,426,20,1,1,1,551
2987,5,1,427,1,0,0,1,496
2988,5,1,428,32,1,1,1,789
2989,5,1,429,20,0,0,1,514
2990,5,1,430,20,0,0,1,762
2991,5,1,431,2,0,0,1,530
2992,5,1,432,20,1,1,1,513
2993,5,1,433,10,1,1,1,488
2994,5,1,434,32,0,0,1,464
2995,5,1,435,5,0,0,1,532
2996,5,1,436,10,1,1,1,402
2997,5,1,437,10,1,1,1,440
2998,5,1,438,32,1,1,1,530
2999,5,1,439,32,1,1,1,683
3000,5,1,440,1,1,1,1,501
3001,5,1,441,5,1,1,1,579
3002,5,1,442,1,1,1,1,564
3003,5,1,443,5,0,0,1,569
3004,5,1,444,1,1,1,1,455
3005,5,1,445,20,0,0,1,597
3006,5,1,446,5,0,0,1,539
3007,5,1,447,5,1,1,1,474
3008,5,1,448,20,0,0,1,729
3009,5,1,449,5,0,0,1,619
3010,5,1,450,20,0,0,1,559
3011,5,1,451,32,1,1,1,532
3012,5,1,452,1,1,1,1,495
3013,5,1,453,2,0,0,1,523
3014,5,1,454,1,1,1,1,553
3015,5,1,455,10,0,0,1,546
3016,5,1,456,2,0,0,1,724
3017,5,1,457,2,1,1,1,503
3018,5,1,458,20,0,0,1,720
3019,5,1,459,32,1,1,1,635
3020,5,1,460,2,1,1,1,444
3021,5,1,461,20,1,1,1,411
3022,5,1,462,5,1,1,1,533
3023,5,1,463,2,1,1,1,384
3024,5,1,464,32,1,1,1,421
3025,5,1,465,10,0,0,1,528
3026,5,1,466,2,1,1,1,495
3027,5,1,467,20,1,1,1,471
3028,5,1,468,32,0,0,1,478
3029,5,1,469,32,1,1,1,423
3030,5,1,470,2,0,0,1,454
3031,5,1,471,20,0,0,1,523
3032,5,1,472,2,1,1,1,563
3033,5,1,473,5,1,1,1,501
3034,5,1,474,20,0,0,1,657
3035,5,1,475,5,1,1,1,696
3036,5,1,476,32,0,0,1,596
3037,5,1,477,10,0,0,1,478
3038,5,1,478,5,0,0,0,418
3039,5,1,479,10,1,1,1,434
3040,5,1,480,5,0,0,1,416
3041,5,1,481,10,0,0,1,582
3042,5,1,482,20,1,1,1,511
3043,5,1,483,1,1,1,1,520
3044,5,1,484,10,1,1,1,508
3045,5,1,485,2,0,0,1,648
3046,5,1,486,2,1,1,1,589
3047,5,1,487,10,0,0,1,501
3048,5,1,488,20,0,0,1,658
3049,5,1,489,1,1,1,1,419
3050,5,1,490,2,0,0,1,517
3051,5,1,491,5,0,0,1,517
3052,5,1,492,1,1,1,1,358
3053,5,1,493,5,1,1,1,448
3054,5,1,494,20,1,1,1,512
3055,5,1,495,20,0,0,1,442
3056,5,1,496,2,1,1,1,513
3057,5,1,497,20,0,0,1,605
3058,5,1,498,20,0,0,1,502
3059,5,1,499,20,0,0,1,508
3060,5,1,500,2,0,0,1,573
3061,5,1,501,2,1,1,1,528
3062,5,1,502,10,1,1,1,645
3063,5,1,503,2,0,0,1,439
3064,5,1,504,5,1,1,1,600
3065,5,1,505,32,0,0,1,505
3066,5,1,506,5,1,1,1,593
3067,5,1,507,32,1,1,1,474
3068,5,1,508,2,0,0,1,566
3069,5,1,509,2,1,1,1,439
3070,5,1,510,2,0,0,1,421
3071,5,1,511,20,1,1,1,379
3072,5,1,512,32,0,0,1,563
3073,5,1,513,2,0,0,1,500
3074,5,1,514,2,1,1,1,382
3075,5,1,515,32,0,0,1,570
3076,5,1,516,2,1,1,1,386
3077,5,1,517,5,1,1,1,543
3078,5,1,518,20,1,1,1,485
3079,5,1,519,32,0,0,1,659
3080,5,1,520,2,0,0,1,518
3081,5,1,521,32,0,0,1,584
3082,5,1,522,20,1,1,0,551
3083,5,1,523,2,0,0,1,669
3084,5,1,524,20,0,0,1,551
3085,5,1,525,10,0,0,1,932
3086,5,1,526,10,0,0,1,634
3087,5,1,527,20,1,1,1,1019
3088,5,1,528,10,0,0,1,633
3089,5,1,529,2,0,0,0,390
3090,5,1,530,32,1,1,1,503
3091,5,1,531,2,0,0,1,532
3092,5,1,532,10,1,1,1,467
3093,5,1,533,2,1,1,1,516
3094,5,1,534,20,0,0,1,619
3095,5,1,535,10,1,1,1,394
3096,5,1,536,20,0,0,1,419
3097,5,1,537,32,0,0,1,851
3098,5,1,538,2,0,0,1,803
3099,5,1,539,32,0,0,1,509
3100,5,1,540,5,0,0,1,1007
3101,5,1,541,10,1,1,1,535
3102,5,1,542,5,1,1,1,549
3103,5,1,543,1,0,0,1,352
3104,5,1,544,5,1,1,1,457
3105,5,1,545,10,1,1,1,552
3106,5,1,546,2,0,0,1,458
3107,5,1,547,32,1,1,1,501
3108,5,1,548,5,0,0,1,540
3109,5,1,549,20,1,1,1,523
3110,5,1,550,10,0,0,1,486
3111,5,1,551,10,1,1,1,480
3112,5,1,552,10,1,1,1,467
3113,5,1,553,2,1,1,1,509
3114,5,1,554,5,1,1,1,453
3115,5,1,555,2,1,1,1,488
3116,5,1,556,2,1,1,1,459
3117,5,1,557,32,1,1,1,625
3118,5,1,558,10,0,0,1,643
3119,5,1,559,20,0,0,1,659
3120,5,1,560,2,1,1,1,759
3121,5,1,561,20,1,1,1,441
3122,5,1,562,32,0,0,1,588
3123,5,1,563,32,1,1,1,685
3124,5,1,564,20,0,0,1,495
3125,5,1,565,2,0,0,1,630
3126,5,1,566,32,0,0,1,614
3127,5,1,567,32,1,1,1,462
3128,5,1,568,5,0,0,1,921
3129,5,1,569,5,0,0,1,640
3130,5,1,570,5,1,1,1,518
3131,5,1,571,1,0,0,1,531
3132,5,1,572,5,0,0,1,668
3133,5,1,573,5,1,1,1,486
3134,5,1,574,5,0,0,1,735
3135,5,1,575,10,1,1,1,662
3136,5,1,576,20,0,0,1,627
3137,5,1,577,32,1,1,1,571
3138,5,1,578,5,1,1,1,466
3139,5,1,579,32,1,1,1,734
3140,5,1,580,32,0,0,1,630
3141,5,1,581,10,0,0,1,550
3142,5,1,582,32,1,1,1,463
3143,5,1,583,2,1,1,1,529
3144,5,1,584,1,0,0,1,603
3145,5,1,585,20,1,1,1,539
3146,5,1,586,10,1,1,1,518
3147,5,1,587,10,0,0,1,559
3148,5,1,588,5,1,1,1,493
3149,5,1,589,10,1,1,1,675
3150,5,1,590,20,0,0,1,571
3151,5,1,591,2,1,1,1,520
3152,5,1,592,5,0,0,1,570
3153,5,1,593,32,1,1,1,496
3154,5,1,594,2,0,0,1,478
3155,5,1,595,10,0,0,1,515
3156,5,1,596,1,0,0,1,482
3157,5,1,597,5,0,0,1,678
3158,5,1,598,32,1,1,1,580
3159,5,1,599,32,1,1,1,804
3160,5,1,600,2,0,0,1,441
3161,5,1,601,20,1,1,1,487
3162,5,1,602,5,0,0,1,386
3163,5,1,603,10,1,1,1,479
3164,5,1,604,10,0,0,1,601
3165,5,1,605,32,0,0,1,535
3166,5,1,606,2,0,0,1,469
3167,5,1,607,32,1,1,1,489
3168,5,1,608,10,1,1,1,511
3169,5,1,609,32,0,0,1,621
3170,5,1,610,2,0,0,1,574
3171,5,1,611,20,1,1,1,424
3172,5,1,612,5,0,0,1,497
3173,5,1,613,5,0,0,1,610
3174,5,1,614,10,0,0,1,634
3175,5,1,615,10,1,1,1,751
3176,5,1,616,10,0,0,1,486
3177,5,1,617,20,1,1,1,421
3178,5,1,618,2,0,0,1,563
3179,5,1,619,10,1,1,1,733
3180,5,1,620,10,0,0,1,799
3181,5,1,621,10,1,1,1,535
3182,5,1,622,5,1,1,1,853
3183,5,1,623,5,0,0,1,559
3184,5,1,624,10,1,1,1,580
3185,5,1,625,5,0,0,1,754
3186,5,1,626,5,1,1,1,484
3187,5,1,627,32,1,1,1,539
3188,5,1,628,20,0,0,1,699
3189,5,1,629,1,1,1,1,488
3190,5,1,630,2,0,0,1,594
3191,5,1,631,32,1,1,1,600
3192,5,1,632,2,0,0,1,572
3193,5,1,633,10,0,0,1,660
3194,5,1,634,5,1,1,1,502
3195,5,1,635,10,1,1,1,589
3196,5,1,636,32,1,1,1,527
3197,5,1,637,20,0,0,1,558
3198,5,1,638,20,0,0,1,668
3199,5,1,639,10,1,1,1,896
3200,5,1,640,5,0,0,1,491
3201,6,1,1,20,0,0,1,624
3202,6,1,2,5,1,1,1,484
3203,6,1,3,32,0,0,1,466
3204,6,1,4,1,1,1,1,453
3205,6,1,5,10,0,0,1,512
3206,6,1,6,32,1,1,1,636
3207,6,1,7,2,0,0,1,628
3208,6,1,8,20,0,0,1,574
3209,6,1,9,32,0,0,1,506
3210,6,1,10,10,1,1,1,563
3211,6,1,11,10,0,0,1,510
3212,6,1,12,20,0,0,1,552
3213,6,1,13,32,1,1,1,737
3214,6,1,14,32,1,1,1,584
3215,6,1,15,2,0,0,1,650
3216,6,1,16,32,1,1,1,562
3217,6,1,17,20,0,0,1,602
3218,6,1,18,32,1,1,1,605
3219,6,1,19,10,0,0,1,483
3220,6,1,20,2,1,1,1,516
3221,6,1,21,32,1,1,1,555
3222,6,1,22,5,1,1,1,488
3223,6,1,23,2,1,1,1,460
3224,6,1,24,2,1,1,1,564
3225,6,1,25,32,0,0,1,797
3226,6,1,26,32,0,0,1,951
3227,6,1,27,5,1,1,1,733
3228,6,1,28,1,0,0,1,401
3229,6,1,29,1,0,0,1,438
3230,6,1,30,5,1,1,1,478
3231,6,1,31,20,0,0,1,503
3232,6,1,32,32,1,1,1,487
3233,6,1,33,32,1,1,1,551
3234,6,1,34,10,1,1,1,551
3235,6,1,35,32,0,0,1,749
3236,6,1,36,20,1,1,1,607
3237,6,1,37,10,0,0,1,447
3238,6,1,38,5,1,1,1,516
3239,6,1,39,32,0,0,1,578
3240,6,1,40,2,0,0,1,375
3241,6,1,41,5,0,0,1,541
3242,6,1,42,5,0,0,1,546
3243,6,1,43,32,1,1,1,426
3244,6,1,44,10,0,0,1,494
3245,6,1,45,10,0,0,1,476
3246,6,1,46,2,1,1,1,436
3247,6,1,47,10,0,0,1,456
3248,6,1,48,10,0,0,1,417
3249,6,1,49,10,0,0,1,423
3250,6,1,50,2,1,1,1,394
3251,6,1,51,10,0,0,1,436
3252,6,1,52,20,0,0,1,543
3253,6,1,53,2,1,1,1,403
3254,6,1,54,5,0,0,1,526
3255,6,1,55,20,1,1,1,624
3256,6,1,56,2,1,1,1,602
3257,6,1,57,20,1,1,1,570
3258,6,1,58,1,0,0,1,372
3259,6,1,59,2,0,0,1,412
3260,6,1,60,20,0,0,1,627
3261,6,1,61,10,0,0,1,505
3262,6,1,62,1,0,0,1,395
3263,6,1,63,10,0,0,1,465
3264,6,1,64,20,1,1,1,568
3265,6,1,65,1,1,1,1,461
3266,6,1,66,5,0,0,1,571
3267,6,1,67,1,0,0,1,399
3268,6,1,68,2,1,1,1,443
3269,6,1,69,20,0,0,1,564
3270,6,1,70,32,1,1,1,579
3271,6,1,71,2,0,0,1,454
3272,6,1,72,32,1,1,1,534
3273,6,1,73,32,1,1,1,467
3274,6,1,74,20,1,1,1,368
3275,6,1,75,5,0,0,1,526
3276,6,1,76,2,1,1,1,436
3277,6,1,77,32,1,1,1,499
3278,6,1,78,20,1,1,1,545
3279,6,1,79,10,1,1,1,566
3280,6,1,80,32,0,0,1,651
3281,6,1,81,5,0,0,1,580
3282,6,1,82,10,0,0,1,673
3283,6,1,83,32,0,0,1,552
3284,6,1,84,10,0,0,1,487
3285,6,1,85,32,0,0,1,634
3286,6,1,86,20,1,1,1,848
3287,6,1,87,32,1,1,1,778
3288,6,1,88,10,0,0,1,554
3289,6,1,89,5,1,1,1,523
3290,6,1,90,10,1,1,1,542
3291,6,1,91,5,0,0,1,706
3292,6,1,92,2,0,0,1,543
3293,6,1,93,20,1,1,1,558
3294,6,1,94,10,1,1,1,450
3295,6,1,95,5,0,0,1,529
3296,6,1,96,20,0,0,1,533
3297,6,1,97,2,0,0,1,419
3298,6,1,98,32,0,0,1,543
3299,6,1,99,32,0,0,1,554
3300,6,1,100,20,0,0,1,556
3301,6,1,101,10,1,1,1,479
3302,6,1,102,32,1,1,1,634
3303,6,1,103,2,1,1,1,398
3304,6,1,104,2,0,0,1,525
3305,6,1,105,2,1,1,1,433
3306,6,1,106,2,1,1,1,466
3307,6,1,107,20,0,0,1,695
3308,6,1,108,32,1,1,1,564
3309,6,1,109,20,1,1,1,754
3310,6,1,110,20,1,1,1,564
3311,6,1,111,5,0,0,1,491
3312,6,1,112,10,0,0,1,445
3313,6,1,113,5,1,1,1,719
3314,6,1,114,5,0,0,1,484
3315,6,1,115,10,1,1,1,701
3316,6,1,116,10,0,0,1,448
3317,6,1,117,2,0,0,1,398
3318,6,1,118,5,1,1,1,741
3319,6,1,119,32,0,0,1,456
3320,6,1,120,1,0,0,1,540
3321,6,1,121,10,0,0,1,595
3322,6,1,122,10,1,1,1,531
3323,6,1,123,2,0,0,1,536
3324,6,1,124,20,0,0,1,588
3325,6,1,125,5,1,1,1,722
3326,6,1,126,5,0,0,1,568
3327,6,1,127,5,0,0,1,576
3328,6,1,128,1,1,1,1,458
3329,6,1,129,10,1,1,1,545
3330,6,1,130,5,0,0,1,477
3331,6,1,131,5,0,0,1,500
3332,6,1,132,10,1,1,1,565
3333,6,1,133,10,1,1,1,696
3334,6,1,134,5,1,1,1,488
3335,6,1,135,1,0,0,1,415
3336,6,1,136,5,0,0,1,531
3337,6,1,137,10,1,1,1,515
3338,6,1,138,32,1,1,1,496
3339,6,1,139,2,0,0,1,370
3340,6,1,140,10,1,1,1,514
3341,6,1,141,10,1,1,1,504
3342,6,1,142,10,0,0,1,593
3343,6,1,143,32,1,1,1,470
3344,6,1,144,2,0,0,1,574
3345,6,1,145,2,1,1,1,493
3346,6,1,146,20,1,1,1,479
3347,6,1,147,1,1,1,1,459
3348,6,1,148,2,1,1,1,504
3349,6,1,149,1,0,0,1,466
3350,6,1,150,20,1,1,1,703
3351,6,1,151,2,1,1,1,416
3352,6,1,152,10,1,1,1,493
3353,6,1,153,20,1,1,1,457
3354,6,1,154,32,0,0,1,521
3355,6,1,155,20,0,0,1,568
3356,6,1,156,32,1,1,1,393
3357,6,1,157,10,1,1,1,565
3358,6,1,158,2,0,0,1,504
3359,6,1,159,32,0,0,1,543
3360,6,1,160,20,0,0,1,829
3361,6,1,161,20,0,0,1,969
3362,6,1,162,2,0,0,1,422
3363,6,1,163,10,0,0,1,728
3364,6,1,164,5,0,0,1,469
3365,6,1,165,2,0,0,1,539
3366,6,1,166,20,0,0,1,473
3367,6,1,167,5,0,0,1,426
3368,6,1,168,32,1,1,1,625
3369,6,1,169,10,0,0,1,480
3370,6,1,170,20,0,0,1,604
3371,6,1,171,32,1,1,1,447
3372,6,1,172,32,1,1,1,623
3373,6,1,173,2,1,1,1,465
3374,6,1,174,20,0,0,1,492
3375,6,1,175,20,0,0,1,457
3376,6,1,176,2,1,1,1,545
3377,6,1,177,32,1,1,1,510
3378,6,1,178,1,0,0,1,376
3379,6,1,179,2,0,0,1,360
3380,6,1,180,2,1,1,1,406
3381,6,1,181,20,0,0,1,554
3382,6,1,182,2,0,0,1,390
3383,6,1,183,32,1,1,1,601
3384,6,1,184,2,0,0,1,704
3385,6,1,185,20,1,1,1,601
3386,6,1,186,10,1,1,1,552
3387,6,1,187,5,0,0,1,490
3388,6,1,188,32,0,0,1,516
3389,6,1,189,2,0,0,1,428
3390,6,1,190,10,0,0,1,762
3391,6,1,191,10,1,1,1,494
3392,6,1,192,2,0,0,1,612
3393,6,1,193,20,0,0,1,556
3394,6,1,194,1,1,1,1,416
3395,6,1,195,2,1,1,1,585
3396,6,1,196,20,0,0,1,428
3397,6,1,197,2,0,0,1,478
3398,6,1,198,10,1,1,1,574
3399,6,1,199,20,0,0,1,690
3400,6,1,200,5,0,0,1,624
3401,6,1,201,5,1,1,1,677
3402,6,1,202,5,0,0,1,587
3403,6,1,203,20,0,0,1,626
3404,6,1,204,20,0,0,1,557
3405,6,1,205,20,0,0,1,471
3406,6,1,206,32,1,1,1,523
3407,6,1,207,2,1,1,1,422
3408,6,1,208,5,0,0,1,570
3409,6,1,209,32,0,0,1,555
3410,6,1,210,2,1,1,1,433
3411,6,1,211,5,1,1,1,723
3412,6,1,212,10,0,0,1,456
3413,6,1,213,2,1,1,1,469
3414,6,1,214,10,1,1,1,581
3415,6,1,215,5,0,0,1,464
3416,6,1,216,10,1,1,1,589
3417,6,1,217,20,1,1,1,563
3418,6,1,218,32,1,1,1,529
3419,6,1,219,5,0,0,1,573
3420,6,1,220,5,0,0,1,475
3421,6,1,221,2,1,1,1,565
3422,6,1,222,10,0,0,1,474
3423,6,1,223,1,1,1,1,394
3424,6,1,224,2,1,1,1,442
3425,6,1,225,10,1,1,1,501
3426,6,1,226,32,0,0,1,504
3427,6,1,227,32,1,1,1,823
3428,6,1,228,2,0,0,1,394
3429,6,1,229,20,1,1,1,531
3430,6,1,230,32,0,0,1,552
3431,6,1,231,32,0,0,1,931
3432,6,1,232,32,1,1,1,389
3433,6,1,233,10,1,1,1,377
3434,6,1,234,2,1,1,1,365
3435,6,1,235,2,0,0,1,401
3436,6,1,236,10,1,1,1,613
3437,6,1,237,10,1,1,1,385
3438,6,1,238,10,1,1,1,636
3439,6,1,239,32,0,0,1,537
3440,6,1,240,1,1,1,1,383
3441,6,1,241,20,0,0,1,495
3442,6,1,242,1,0,0,1,416
3443,6,1,243,32,0,0,1,650
3444,6,1,244,32,1,1,1,479
3445,6,1,245,32,1,1,1,451
3446,6,1,246,20,1,1,1,493
3447,6,1,247,32,1,1,1,588
3448,6,1,248,10,0,0,1,538
3449,6,1,249,10,0,0,1,495
3450,6,1,250,32,0,0,1,538
3451,6,1,251,10,0,0,1,566
3452,6,1,252,32,0,0,1,550
3453,6,1,253,20,1,1,1,421
3454,6,1,254,10,1,1,1,523
3455,6,1,255,10,0,0,1,482
3456,6,1,256,1,0,0,1,370
3457,6,1,257,2,1,1,1,517
3458,6,1,258,20,1,1,1,539
3459,6,1,259,20,1,1,1,506
3460,6,1,260,20,0,0,1,540
3461,6,1,261,2,1,1,1,495
3462,6,1,262,2,0,0,1,596
3463,6,1,263,32,1,1,1,550
3464,6,1,264,20,1,1,1,605
3465,6,1,265,32,1,1,1,722
3466,6,1,266,5,0,0,1,561
3467,6,1,267,5,1,1,1,712
3468,6,1,268,32,1,1,1,664
3469,6,1,269,5,1,1,1,718
3470,6,1,270,5,1,1,1,590
3471,6,1,271,10,0,0,1,531
3472,6,1,272,32,1,1,1,466
3473,6,1,273,20,1,1,1,408
3474,6,1,274,1,1,1,1,422
3475,6,1,275,2,0,0,1,444
3476,6,1,276,5,0,0,0,374
3477,6,1,277,32,0,0,1,510
3478,6,1,278,32,0,0,1,691
3479,6,1,279,2,0,0,1,537
3480,6,1,280,20,0,0,1,733
3481,6,1,281,2,0,0,1,761
3482,6,1,282,2,0,0,1,752
3483,6,1,283,10,0,0,1,437
3484,6,1,284,10,0,0,1,588
3485,6,1,285,2,0,0,1,431
3486,6,1,286,10,1,1,1,501
3487,6,1,287,1,1,1,1,399
3488,6,1,288,20,1,1,1,670
3489,6,1,289,10,0,0,1,510
3490,6,1,290,5,1,1,1,467
3491,6,1,291,5,1,1,1,536
3492,6,1,292,2,1,1,1,398
3493,6,1,293,2,0,0,1,442
3494,6,1,294,32,1,1,1,505
3495,6,1,295,5,1,1,1,627
3496,6,1,296,20,1,1,1,472
3497,6,1,297,10,1,1,1,834
3498,6,1,298,2,1,1,1,511
3499,6,1,299,2,1,1,1,470
3500,6,1,300,32,0,0,1,722
3501,6,1,301,20,0,0,1,574
3502,6,1,302,10,1,1,1,663
3503,6,1,303,2,1,1,1,410
3504,6,1,304,5,0,0,1,843
3505,6,1,305,10,1,1,1,549
3506,6,1,306,10,1,1,1,528
3507,6,1,307,1,0,0,1,434
3508,6,1,308,20,1,1,1,441
3509,6,1,309,5,1,1,1,575
3510,6,1,310,1,1,1,1,369
3511,6,1,311,32,1,1,1,559
3512,6,1,312,32,1,1,1,536
3513,6,1,313,20,1,1,1,526
3514,6,1,314,20,1,1,1,463
3515,6,1,315,20,0,0,1,467
3516,6,1,316,5,1,1,1,516
3517,6,1,317,20,0,0,1,565
3518,6,1,318,5,1,1,1,518
3519,6,1,319,2,0,0,1,388
3520,6,1,320,32,1,1,1,454
3521,6,1,321,5,0,0,1,855
3522,6,1,322,32,0,0,1,596
3523,6,1,323,5,1,1,1,426
3524,6,1,324,10,1,1,1,516
3525,6,1,325,10,0,0,1,539
3526,6,1,326,2,1,1,1,618
3527,6,1,327,5,0,0,1,508
3528,6,1,328,32,1,1,1,592
3529,6,1,329,5,1,1,1,434
3530,6,1,330,2,1,1,1,426
3531,6,1,331,20,0,0,1,560
3532,6,1,332,20,0,0,1,571
3533,6,1,333,2,1,1,1,444
3534,6,1,334,2,1,1,1,628
3535,6,1,335,2,0,0,1,494
3536,6,1,336,32,0,0,1,542
3537,6,1,337,32,1,1,1,710
3538,6,1,338,5,1,1,1,546
3539,6,1,339,10,1,1,1,508
3540,6,1,340,2,1,1,1,406
3541,6,1,341,2,0,0,1,404
3542,6,1,342,32,0,0,1,621
3543,6,1,343,10,1,1,1,619
3544,6,1,344,5,0,0,1,661
3545,6,1,345,20,1,1,1,646
3546,6,1,346,32,1,1,1,574
3547,6,1,347,5,0,0,1,365
3548,6,1,348,32,0,0,1,522
3549,6,1,349,1,0,0,1,398
3550,6,1,350,10,1,1,1,496
3551,6,1,351,32,0,0,1,430
3552,6,1,352,10,0,0,1,395
3553,6,1,353,5,1,1,1,504
3554,6,1,354,10,1,1,1,438
3555,6,1,355,1,1,1,1,415
3556,6,1,356,32,0,0,1,740
3557,6,1,357,32,0,0,1,478
3558,6,1,358,2,1,1,1,467
3559,6,1,359,32,0,0,1,571
3560,6,1,360,10,1,1,1,609
3561,6,1,361,5,0,0,0,687
3562,6,1,362,20,0,0,1,801
3563,6,1,363,20,0,0,1,614
3564,6,1,364,32,1,1,1,585
3565,6,1,365,5,1,1,1,621
3566,6,1,366,20,1,1,1,502
3567,6,1,367,5,1,1,1,834
3568,6,1,368,2,1,1,1,480
3569,6,1,369,32,1,1,1,605
3570,6,1,370,2,1,1,1,561
3571,6,1,371,1,1,1,1,464
3572,6,1,372,10,1,1,1,426
3573,6,1,373,10,1,1,1,639
3574,6,1,374,5,1,1,1,430
3575,6,1,375,5,1,1,1,651
3576,6,1,376,5,1,1,1,546
3577,6,1,377,32,0,0,1,655
3578,6,1,378,10,0,0,1,598
3579,6,1,379,2,1,1,1,491
3580,6,1,380,32,0,0,1,702
3581,6,1,381,10,1,1,1,653
3582,6,1,382,10,0,0,1,640
3583,6,1,383,2,0,0,1,519
3584,6,1,384,10,1,1,1,505
3585,6,1,385,5,1,1,1,530
3586,6,1,386,10,0,0,1,414
3587,6,1,387,20,1,1,1,569
3588,6,1,388,5,1,1,1,437
3589,6,1,389,10,0,0,1,614
3590,6,1,390,32,0,0,1,607
3591,6,1,391,32,0,0,1,535
3592,6,1,392,20,1,1,1,535
3593,6,1,393,5,1,1,1,646
3594,6,1,394,1,0,0,1,447
3595,6,1,395,1,0,0,1,428
3596,6,1,396,20,1,1,1,552
3597,6,1,397,5,1,1,1,684
3598,6,1,398,32,1,1,1,771
3599,6,1,399,5,1,1,1,515
3600,6,1,400,10,1,1,1,477
3601,6,1,401,5,1,1,1,1038
3602,6,1,402,5,0,0,1,556
3603,6,1,403,5,1,1,1,479
3604,6,1,404,5,0,0,1,581
3605,6,1,405,5,1,1,1,567
3606,6,1,406,20,1,1,1,454
3607,6,1,407,10,0,0,1,513
3608,6,1,408,20,1,1,1,585
3609,6,1,409,32,0,0,0,529
3610,6,1,410,20,0,0,1,590
3611,6,1,411,20,1,1,1,717
3612,6,1,412,5,0,0,1,556
3613,6,1,413,20,1,1,1,686
3614,6,1,414,32,1,1,1,552
3615,6,1,415,10,1,1,1,598
3616,6,1,416,2,1,1,1,532
3617,6,1,417,5,0,0,1,543
3618,6,1,418,2,1,1,1,506
3619,6,1,419,10,0,0,1,621
3620,6,1,420,32,1,1,1,473
3621,6,1,421,20,0,0,1,537
3622,6,1,422,32,0,0,1,538
3623,6,1,423,2,0,0,1,480
3624,6,1,424,10,1,1,1,585
3625,6,1,425,32,1,1,1,609
3626,6,1,426,10,1,1,1,473
3627,6,1,427,32,0,0,1,581
3628,6,1,428,32,0,0,1,937
3629,6,1,429,20,1,1,1,550
3630,6,1,430,5,1,1,1,464
3631,6,1,431,20,0,0,1,606
3632,6,1,432,5,1,1,1,543
3633,6,1,433,5,1,1,1,409
3634,6,1,434,20,0,0,1,693
3635,6,1,435,5,1,1,1,563
3636,6,1,436,20,0,0,1,535
3637,6,1,437,10,0,0,1,679
3638,6,1,438,2,1,1,1,571
3639,6,1,439,32,0,0,1,652
3640,6,1,440,10,0,0,1,743
3641,6,1,441,20,1,1,1,634
3642,6,1,442,2,0,0,1,440
3643,6,1,443,2,0,0,1,387
3644,6,1,444,10,0,0,1,517
3645,6,1,445,5,1,1,1,543
3646,6,1,446,10,0,0,1,439
3647,6,1,447,10,0,0,1,536
3648,6,1,448,20,1,1,1,503
3649,6,1,449,1,1,1,1,406
3650,6,1,450,32,0,0,1,639
3651,6,1,451,10,0,0,1,496
3652,6,1,452,2,1,1,1,499
3653,6,1,453,2,0,0,1,536
3654,6,1,454,10,0,0,1,751
3655,6,1,455,1,0,0,1,394
3656,6,1,456,32,1,1,1,657
3657,6,1,457,10,0,0,1,588
3658,6,1,458,2,1,1,1,582
3659,6,1,459,1,0,0,1,398
3660,6,1,460,5,1,1,1,444
3661,6,1,461,5,0,0,1,621
3662,6,1,462,2,1,1,1,398
3663,6,1,463,20,1,1,1,526
3664,6,1,464,10,0,0,1,564
3665,6,1,465,20,1,1,1,502
3666,6,1,466,5,0,0,1,393
3667,6,1,467,32,1,1,1,531
3668,6,1,468,1,1,1,1,369
3669,6,1,469,10,1,1,1,588
3670,6,1,470,1,1,1,1,445
3671,6,1,471,1,0,0,1,626
3672,6,1,472,2,0,0,1,416
3673,6,1,473,2,0,0,1,583
3674,6,1,474,2,0,0,1,491
3675,6,1,475,5,0,0,1,408
3676,6,1,476,5,0,0,1,401
3677,6,1,477,5,1,1,1,536
3678,6,1,478,5,1,1,1,672
3679,6,1,479,32,1,1,1,520
3680,6,1,480,5,1,1,1,633
3681,6,1,481,32,1,1,1,553
3682,6,1,482,32,0,0,1,615
3683,6,1,483,1,1,1,1,439
3684,6,1,484,2,1,1,1,506
3685,6,1,485,32,0,0,1,658
3686,6,1,486,1,1,1,1,404
3687,6,1,487,10,0,0,1,454
3688,6,1,488,5,0,0,1,552
3689,6,1,489,2,1,1,1,410
3690,6,1,490,10,0,0,1,475
3691,6,1,491,5,0,0,1,579
3692,6,1,492,5,0,0,1,679
3693,6,1,493,20,0,0,1,481
3694,6,1,494,2,1,1,1,495
3695,6,1,495,10,0,0,1,479
3696,6,1,496,20,1,1,1,525
3697,6,1,497,32,0,0,1,502
3698,6,1,498,20,1,1,1,687
3699,6,1,499,32,0,0,1,439
3700,6,1,500,20,0,0,1,684
3701,6,1,501,32,1,1,1,597
3702,6,1,502,10,1,1,1,470
3703,6,1,503,2,0,0,1,528
3704,6,1,504,20,1,1,1,659
3705,6,1,505,5,0,0,1,435
3706,6,1,506,32,0,0,1,490
3707,6,1,507,20,0,0,1,456
3708,6,1,508,5,1,1,1,499
3709,6,1,509,32,1,1,1,557
3710,6,1,510,20,1,1,1,543
3711,6,1,511,5,0,0,1,383
3712,6,1,512,5,0,0,1,410
3713,6,1,513,1,1,1,1,503
3714,6,1,514,10,0,0,1,501
3715,6,1,515,10,1,1,1,429
3716,6,1,516,32,1,1,1,525
3717,6,1,517,2,0,0,1,540
3718,6,1,518,5,1,1,1,526
3719,6,1,519,5,0,0,1,456
3720,6,1,520,2,0,0,1,468
3721,6,1,521,32,1,1,1,873
3722,6,1,522,20,1,1,1,442
3723,6,1,523,32,0,0,1,446
3724,6,1,524,32,0,0,1,510
3725,6,1,525,10,1,1,1,421
3726,6,1,526,2,0,0,1,398
3727,6,1,527,5,0,0,1,427
3728,6,1,528,5,1,1,1,582
3729,6,1,529,20,1,1,1,595
3730,6,1,530,2,1,1,1,479
3731,6,1,531,32,0,0,1,491
3732,6,1,532,2,0,0,1,448
3733,6,1,533,5,1,1,1,584
3734,6,1,534,2,0,0,1,369
3735,6,1,535,32,0,0,1,493
3736,6,1,536,5,1,1,1,537
3737,6,1,537,2,1,1,1,559
3738,6,1,538,20,0,0,1,616
3739,6,1,539,20,1,1,1,492
3740,6,1,540,10,1,1,1,382
3741,6,1,541,10,1,1,1,712
3742,6,1,542,10,0,0,1,500
3743,6,1,543,2,1,1,1,525
3744,6,1,544,2,0,0,1,394
3745,6,1,545,1,0,0,1,443
3746,6,1,546,2,1,1,1,422
3747,6,1,547,5,1,1,1,516
3748,6,1,548,32,0,0,1,488
3749,6,1,549,20,0,0,1,548
3750,6,1,550,10,1,1,1,407
3751,6,1,551,10,1,1,1,564
3752,6,1,552,5,1,1,1,539
3753,6,1,553,10,0,0,1,429
3754,6,1,554,10,1,1,1,428
3755,6,1,555,2,0,0,1,354
3756,6,1,556,20,0,0,1,515
3757,6,1,557,20,0,0,1,504
3758,6,1,558,20,0,0,1,432
3759,6,1,559,5,1,1,1,565
3760,6,1,560,32,0,0,1,706
3761,6,1,561,5,0,0,1,491
3762,6,1,562,2,1,1,1,460
3763,6,1,563,10,1,1,1,487
3764,6,1,564,20,1,1,1,597
3765,6,1,565,5,1,1,1,651
3766,6,1,566,20,1,1,1,453
3767,6,1,567,5,0,0,1,430
3768,6,1,568,2,1,1,1,456
3769,6,1,569,5,0,0,1,485
3770,6,1,570,10,1,1,1,501
3771,6,1,571,20,0,0,1,519
3772,6,1,572,5,0,0,1,550
3773,6,1,573,1,1,1,1,561
3774,6,1,574,20,0,0,1,478
3775,6,1,575,5,0,0,1,529
3776,6,1,576,1,0,0,1,460
3777,6,1,577,5,1,1,1,525
3778,6,1,578,32,0,0,1,500
3779,6,1,579,20,1,1,1,586
3780,6,1,580,2,0,0,1,510
3781,6,1,581,20,1,1,1,503
3782,6,1,582,10,0,0,1,490
3783,6,1,583,5,0,0,1,461
3784,6,1,584,5,0,0,1,415
3785,6,1,585,2,1,1,1,393
3786,6,1,586,2,1,1,1,501
3787,6,1,587,10,1,1,1,344
3788,6,1,588,32,1,1,1,550
3789,6,1,589,20,1,1,1,576
3790,6,1,590,5,1,1,1,363
3791,6,1,591,32,0,0,1,510
3792,6,1,592,20,0,0,1,395
3793,6,1,593,2,0,0,1,394
3794,6,1,594,5,0,0,1,454
3795,6,1,595,20,0,0,1,420
3796,6,1,596,32,1,1,1,752
3797,6,1,597,2,0,0,1,500
3798,6,1,598,2,0,0,1,481
3799,6,1,599,1,1,1,1,438
3800,6,1,600,5,1,1,1,635
3801,6,1,601,10,0,0,1,979
3802,6,1,602,2,0,0,1,500
3803,6,1,603,32,1,1,1,769
3804,6,1,604,2,0,0,1,442
3805,6,1,605,32,0,0,1,639
3806,6,1,606,20,0,0,1,448
3807,6,1,607,20,0,0,1,693
3808,6,1,608,2,0,0,1,394
3809,6,1,609,10,1,1,1,665
3810,6,1,610,5,1,1,1,408
3811,6,1,611,20,1,1,1,431
3812,6,1,612,32,0,0,1,684
3813,6,1,613,2,0,0,1,449
3814,6,1,614,20,0,0,1,554
3815,6,1,615,5,0,0,1,391
3816,6,1,616,2,1,1,1,455
3817,6,1,617,2,0,0,1,427
3818,6,1,618,2,0,0,1,505
3819,6,1,619,20,1,1,1,487
3820,6,1,620,10,0,0,1,358
3821,6,1,621,10,1,1,1,621
3822,6,1,622,10,0,0,1,489
3823,6,1,623,20,0,0,1,797
3824,6,1,624,20,0,0,1,448
3825,6,1,625,20,1,1,1,466
3826,6,1,626,10,0,0,1,554
3827,6,1,627,20,1,1,1,680
3828,6,1,628,20,1,1,1,498
3829,6,1,629,32,1,1,1,580
3830,6,1,630,5,0,0,1,484
3831,6,1,631,20,0,0,1,579
3832,6,1,632,2,1,1,1,495
3833,6,1,633,5,0,0,1,555
3834,6,1,634,20,1,1,1,646
3835,6,1,635,20,0,0,1,591
3836,6,1,636,32,0,0,1,466
3837,6,1,637,5,0,0,1,421
3838,6,1,638,2,0,0,1,446
3839,6,1,639,2,1,1,1,565
3840,6,1,640,20,1,1,1,762
3841,7,1,1,32,1,1,1,524
3842,7,1,2,10,1,1,1,517
3843,7,1,3,5,0,0,1,532
3844,7,1,4,5,1,1,1,559
3845,7,1,5,10,0,0,1,594
3846,7,1,6,32,0,0,1,641
3847,7,1,7,32,0,0,1,486
3848,7,1,8,10,0,0,1,450
3849,7,1,9,5,0,0,1,507
3850,7,1,10,5,0,0,1,420
3851,7,1,11,5,1,1,1,799
3852,7,1,12,32,0,0,1,481
3853,7,1,13,10,0,0,1,457
3854,7,1,14,20,0,0,1,580
3855,7,1,15,32,1,1,1,567
3856,7,1,16,5,0,0,1,432
3857,7,1,17,32,0,0,1,541
3858,7,1,18,5,0,0,1,664
3859,7,1,19,2,0,0,1,403
3860,7,1,20,1,1,1,1,385
3861,7,1,21,20,1,1,1,696
3862,7,1,22,5,0,0,1,846
3863,7,1,23,5,0,0,1,553
3864,7,1,24,20,0,0,1,617
3865,7,1,25,2,0,0,1,426
3866,7,1,26,5,1,1,1,796
3867,7,1,27,10,0,0,1,401
3868,7,1,28,32,1,1,1,507
3869,7,1,29,20,1,1,1,642
3870,7,1,30,20,1,1,1,529
3871,7,1,31,5,1,1,1,486
3872,7,1,32,2,1,1,1,455
3873,7,1,33,32,1,1,1,486
3874,7,1,34,5,1,1,1,414
3875,7,1,35,32,0,0,1,585
3876,7,1,36,10,0,0,1,537
3877,7,1,37,2,1,1,1,449
3878,7,1,38,32,1,1,1,436
3879,7,1,39,2,1,1,1,453
3880,7,1,40,10,1,1,1,426
3881,7,1,41,1,0,0,1,345
3882,7,1,42,2,1,1,1,440
3883,7,1,43,2,0,0,1,427
3884,7,1,44,2,1,1,1,719
3885,7,1,45,5,0,0,1,431
3886,7,1,46,1,0,0,1,349
3887,7,1,47,5,0,0,1,462
3888,7,1,48,32,0,0,1,644
3889,7,1,49,32,1,1,1,605
3890,7,1,50,10,1,1,1,1112
3891,7,1,51,32,1,1,1,865
3892,7,1,52,2,1,1,1,397
3893,7,1,53,32,1,1,1,516
3894,7,1,54,10,0,0,1,414
3895,7,1,55,5,1,1,1,423
3896,7,1,56,32,1,1,1,567
3897,7,1,57,2,0,0,1,564
3898,7,1,58,5,0,0,1,493
3899,7,1,59,20,0,0,1,485
3900,7,1,60,5,0,0,1,512
3901,7,1,61,32,1,1,1,911
3902,7,1,62,20,0,0,1,514
3903,7,1,63,20,0,0,1,678
3904,7,1,64,20,0,0,1,767
3905,7,1,65,1,1,1,1,461
3906,7,1,66,32,1,1,1,653
3907,7,1,67,5,0,0,1,674
3908,7,1,68,10,1,1,1,536
3909,7,1,69,20,0,0,1,796
3910,7,1,70,5,1,1,1,484
3911,7,1,71,20,1,1,1,620
3912,7,1,72,32,0,0,1,620
3913,7,1,73,10,1,1,1,932
3914,7,1,74,2,1,1,1,421
3915,7,1,75,10,0,0,1,670
3916,7,1,76,5,1,1,1,560
3917,7,1,77,5,0,0,1,511
3918,7,1,78,5,0,0,1,493
3919,7,1,79,10,1,1,1,402
3920,7,1,80,1,0,0,1,414
3921,7,1,81,2,1,1,1,1075
3922,7,1,82,2,0,0,1,704
3923,7,1,83,5,1,1,1,506
3924,7,1,84,5,0,0,1,463
3925,7,1,85,5,0,0,1,550
3926,7,1,86,20,0,0,1,655
3927,7,1,87,20,1,1,1,385
3928,7,1,88,10,1,1,1,389
3929,7,1,89,5,0,0,1,860
3930,7,1,90,5,1,1,1,329
3931,7,1,91,20,0,0,1,707
3932,7,1,92,2,1,1,1,823
3933,7,1,93,2,1,1,1,514
3934,7,1,94,20,0,0,1,815
3935,7,1,95,20,1,1,1,1256
3936,7,1,96,32,1,1,1,434
3937,7,1,97,2,1,1,1,409
3938,7,1,98,32,1,1,1,516
3939,7,1,99,10,1,1,1,586
3940,7,1,100,32,0,0,1,568
3941,7,1,101,20,0,0,1,422
3942,7,1,102,5,0,0,1,451
3943,7,1,103,10,0,0,0,368
3944,7,1,104,2,0,0,1,570
3945,7,1,105,2,1,1,1,429
3946,7,1,106,2,0,0,1,587
3947,7,1,107,10,1,1,1,753
3948,7,1,108,10,1,1,1,975
3949,7,1,109,5,0,0,1,772
3950,7,1,110,5,0,0,1,609
3951,7,1,111,10,1,1,1,471
3952,7,1,112,2,0,0,1,615
3953,7,1,113,1,0,0,1,526
3954,7,1,114,10,0,0,1,749
3955,7,1,115,32,0,0,1,480
3956,7,1,116,20,1,1,1,659
3957,7,1,117,2,1,1,1,361
3958,7,1,118,2,0,0,1,862
3959,7,1,119,32,0,0,1,663
3960,7,1,120,10,0,0,1,464
3961,7,1,121,5,1,1,1,559
3962,7,1,122,2,1,1,1,493
3963,7,1,123,5,0,0,1,560
3964,7,1,124,1,0,0,1,466
3965,7,1,125,20,1,1,1,725
3966,7,1,126,1,0,0,1,512
3967,7,1,127,20,1,1,1,456
3968,7,1,128,32,0,0,1,640
3969,7,1,129,10,0,0,1,487
3970,7,1,130,2,1,1,1,426
3971,7,1,131,5,1,1,1,795
3972,7,1,132,20,1,1,1,1971
3973,7,1,133,32,1,1,1,1327
3974,7,1,134,5,1,1,1,763
3975,7,1,135,20,0,0,1,870
3976,7,1,136,2,0,0,1,836
