trial_id,Subject,block_n,Trial,set_size,correctResponse,resp,acc,RT
1,1,1,1,20,0,0,1,567
2,1,1,2,2,1,1,1,598
3,1,1,3,1,0,0,1,463
4,1,1,4,10,0,0,1,494
5,1,1,5,20,0,0,1,500
6,1,1,6,2,1,1,1,456
7,1,1,7,5,1,1,1,626
8,1,1,8,2,1,1,1,437
9,1,1,9,20,0,0,1,644
10,1,1,10,5,0,0,1,409
11,1,1,11,32,1,1,1,651
12,1,1,12,5,1,1,1,570
13,1,1,13,10,0,0,1,533
14,1,1,14,5,1,1,1,548
15,1,1,15,32,1,1,1,565
16,1,1,16,20,1,1,1,516
17,1,1,17,20,1,1,1,492
18,1,1,18,2,0,0,1,492
19,1,1,19,5,0,0,1,577
20,1,1,20,32,1,1,1,486
21,1,1,21,1,1,1,1,483
22,1,1,22,32,0,0,1,601
23,1,1,23,2,0,0,1,531
24,1,1,24,32,0,0,1,555
25,1,1,25,10,1,1,1,413
26,1,1,26,32,1,1,1,523
27,1,1,27,5,0,0,1,616
28,1,1,28,32,0,0,1,407
29,1,1,29,5,0,0,1,468
30,1,1,30,10,1,1,1,582
31,1,1,31,5,1,1,1,538
32,1,1,32,32,1,1,1,481
33,1,1,33,5,0,0,1,458
34,1,1,34,10,0,0,1,480
35,1,1,35,32,1,1,1,543
36,1,1,36,5,0,0,1,472
37,1,1,37,5,1,1,1,414
38,1,1,38,20,0,0,1,585
39,1,1,39,5,1,1,1,412
40,1,1,40,2,0,0,1,351
41,1,1,41,5,1,1,1,569
42,1,1,42,5,0,0,1,428
43,1,1,43,10,0,0,1,517
44,1,1,44,20,1,1,1,522
45,1,1,45,32,0,0,1,416
46,1,1,46,10,1,1,1,488
47,1,1,47,10,0,0,1,338
48,1,1,48,20,0,0,1,552
49,1,1,49,32,1,1,1,629
50,1,1,50,10,0,0,1,477
51,1,1,51,2,1,1,1,690
52,1,1,52,32,1,1,1,589
53,1,1,53,20,0,0,1,554
54,1,1,54,10,0,0,1,466
55,1,1,55,20,1,1,0,358
56,1,1,56,20,0,0,1,580
57,1,1,57,2,0,0,1,468
58,1,1,58,2,1,1,1,478
59,1,1,59,10,1,1,1,507
60,1,1,60,5,1,1,1,484
61,1,1,61,5,1,1,1,624
62,1,1,62,10,0,0,1,480
63,1,1,63,5,0,0,1,548
64,1,1,64,2,1,1,1,841
65,1,1,65,32,0,0,1,414
66,1,1,66,2,1,1,1,624
67,1,1,67,1,0,0,1,538
68,1,1,68,20,0,0,1,501
69,1,1,69,10,0,0,1,466
70,1,1,70,5,0,0,1,508
71,1,1,71,10,0,0,1,495
72,1,1,72,32,0,0,1,592
73,1,1,73,32,0,0,1,548
74,1,1,74,20,0,0,1,522
75,1,1,75,10,1,1,1,490
76,1,1,76,32,0,0,1,564
77,1,1,77,10,0,0,1,474
78,1,1,78,32,1,1,1,648
79,1,1,79,1,1,1,1,564
80,1,1,80,32,0,0,1,500
81,1,1,81,20,1,1,1,573
82,1,1,82,5,0,0,1,470
83,1,1,83,20,1,1,1,450
84,1,1,84,32,1,1,1,445
85,1,1,85,5,0,0,1,475
86,1,1,86,2,1,1,1,388
87,1,1,87,32,0,0,1,514
88,1,1,88,10,0,0,1,439
89,1,1,89,32,1,1,1,465
90,1,1,90,32,0,0,1,372
91,1,1,91,2,1,1,1,443
92,1,1,92,10,0,0,1,524
93,1,1,93,10,1,1,1,409
94,1,1,94,10,0,0,1,516
95,1,1,95,20,1,1,1,412
96,1,1,96,2,0,0,1,426
97,1,1,97,32,1,1,1,465
98,1,1,98,20,0,0,1,472
99,1,1,99,20,0,0,1,555
100,1,1,100,2,0,0,1,421
101,1,1,101,5,1,1,1,529
102,1,1,102,5,1,1,1,482
103,1,1,103,10,1,1,1,453
104,1,1,104,32,0,0,1,627
105,1,1,105,32,1,1,1,513
106,1,1,106,2,0,0,1,423
107,1,1,107,20,0,0,1,458
108,1,1,108,32,1,1,1,642
109,1,1,109,10,1,1,0,406
110,1,1,110,20,1,1,1,606
111,1,1,111,2,1,1,1,440
112,1,1,112,5,0,0,1,465
113,1,1,113,20,0,0,1,633
114,1,1,114,5,1,1,1,518
115,1,1,115,5,1,1,1,523
116,1,1,116,2,1,1,1,433
117,1,1,117,2,1,1,1,442
118,1,1,118,10,1,1,1,520
119,1,1,119,10,1,1,1,480
120,1,1,120,5,0,0,1,575
121,1,1,121,20,1,1,1,464
122,1,1,122,1,1,1,1,413
123,1,1,123,5,1,1,1,442
124,1,1,124,2,0,0,1,385
125,1,1,125,1,1,1,1,357
126,1,1,126,20,0,0,1,455
127,1,1,127,10,1,1,1,485
128,1,1,128,20,0,0,1,553
129,1,1,129,5,0,0,1,454
130,1,1,130,2,0,0,1,373
131,1,1,131,5,0,0,1,501
132,1,1,132,2,0,0,1,401
133,1,1,133,5,1,1,1,511
134,1,1,134,20,0,0,1,518
135,1,1,135,1,1,1,1,617
136,1,1,136,2,0,0,1,578
137,1,1,137,10,0,0,1,461
138,1,1,138,5,0,0,1,534
139,1,1,139,32,0,0,1,445
140,1,1,140,2,0,0,1,320
141,1,1,141,5,1,1,1,523
142,1,1,142,5,0,0,1,560
143,1,1,143,10,0,0,1,475
144,1,1,144,2,1,1,1,532
145,1,1,145,32,0,0,1,573
146,1,1,146,20,0,0,1,493
147,1,1,147,20,1,1,1,605
148,1,1,148,10,1,1,1,580
149,1,1,149,2,1,1,1,586
150,1,1,150,2,0,0,1,491
151,1,1,151,20,0,0,1,810
152,1,1,152,5,0,0,1,383
153,1,1,153,10,1,1,0,575
154,1,1,154,2,1,1,1,489
155,1,1,155,5,1,1,1,578
156,1,1,156,20,1,1,1,575
157,1,1,157,32,1,1,1,506
158,1,1,158,1,0,0,1,653
159,1,1,159,2,1,1,1,421
160,1,1,160,32,0,0,1,494
161,1,1,161,20,0,0,1,512
162,1,1,162,32,0,0,1,565
163,1,1,163,2,1,1,1,522
164,1,1,164,32,1,1,1,563
165,1,1,165,2,0,0,1,428
166,1,1,166,20,1,1,1,542
167,1,1,167,2,1,1,1,412
168,1,1,168,2,0,0,1,335
169,1,1,169,10,1,1,1,613
170,1,1,170,1,1,1,1,381
171,1,1,171,20,1,1,1,511
172,1,1,172,2,1,1,1,394
173,1,1,173,5,1,1,1,431
174,1,1,174,10,1,1,1,425
175,1,1,175,5,0,0,1,502
176,1,1,176,5,1,1,1,378
177,1,1,177,20,0,0,1,449
178,1,1,178,20,0,0,1,407
179,1,1,179,2,1,1,1,558
180,1,1,180,1,1,1,1,339
181,1,1,181,2,1,1,1,429
182,1,1,182,10,1,1,1,594
183,1,1,183,5,0,0,1,770
184,1,1,184,2,0,0,1,441
185,1,1,185,1,0,0,1,317
186,1,1,186,32,0,0,1,432
187,1,1,187,2,0,0,1,388
188,1,1,188,32,0,0,1,462
189,1,1,189,32,1,1,1,663
190,1,1,190,1,1,1,1,453
191,1,1,191,10,1,1,1,543
192,1,1,192,32,0,0,1,523
193,1,1,193,10,1,1,1,829
194,1,1,194,20,1,1,1,397
195,1,1,195,2,0,0,1,478
196,1,1,196,2,0,0,1,727
197,1,1,197,10,1,1,1,482
198,1,1,198,20,0,0,1,419
199,1,1,199,32,1,1,1,479
200,1,1,200,5,0,0,1,603
201,1,1,201,20,0,0,1,508
202,1,1,202,1,0,0,1,402
203,1,1,203,5,0,0,1,369
204,1,1,204,20,1,1,1,652
205,1,1,205,20,1,1,1,466
206,1,1,206,20,1,1,1,524
207,1,1,207,20,1,1,1,529
208,1,1,208,32,1,1,1,466
209,1,1,209,2,0,0,1,594
210,1,1,210,10,0,0,1,429
211,1,1,211,5,0,0,1,406
212,1,1,212,10,0,0,1,440
213,1,1,213,20,1,1,1,472
214,1,1,214,20,0,0,1,443
215,1,1,215,1,1,1,1,349
216,1,1,216,32,1,1,1,726
217,1,1,217,10,0,0,1,684
218,1,1,218,20,0,0,1,511
219,1,1,219,1,0,0,1,459
220,1,1,220,5,1,1,1,431
221,1,1,221,5,0,0,1,401
222,1,1,222,2,1,1,1,411
223,1,1,223,10,0,0,1,640
224,1,1,224,2,1,1,1,401
225,1,1,225,5,1,1,1,499
226,1,1,226,2,0,0,1,1627
227,1,1,227,20,1,1,1,384
228,1,1,228,20,1,1,1,456
229,1,1,229,20,0,0,1,436
230,1,1,230,2,1,1,1,455
231,1,1,231,1,1,1,1,443
232,1,1,232,20,1,1,1,491
233,1,1,233,32,1,1,1,473
234,1,1,234,2,1,1,1,410
235,1,1,235,20,0,0,1,418
236,1,1,236,2,0,0,1,463
237,1,1,237,20,0,0,1,359
238,1,1,238,20,0,0,1,478
239,1,1,239,32,1,1,0,516
240,1,1,240,2,0,0,1,580
241,1,1,241,32,1,1,1,569
242,1,1,242,5,1,1,1,453
243,1,1,243,5,0,0,1,424
244,1,1,244,5,0,0,1,483
245,1,1,245,10,0,0,1,554
246,1,1,246,2,1,1,1,419
247,1,1,247,10,1,1,1,466
248,1,1,248,5,1,1,1,440
249,1,1,249,10,1,1,1,520
250,1,1,250,2,1,1,1,367
251,1,1,251,20,0,0,1,454
252,1,1,252,2,0,0,1,463
253,1,1,253,5,1,1,1,650
254,1,1,254,5,0,0,1,433
255,1,1,255,32,1,1,1,520
256,1,1,256,2,0,0,1,425
257,1,1,257,1,1,1,1,387
258,1,1,258,5,1,1,1,486
259,1,1,259,2,0,0,1,474
260,1,1,260,20,1,1,1,424
261,1,1,261,32,1,1,1,874
262,1,1,262,32,0,0,1,786
263,1,1,263,10,1,1,1,494
264,1,1,264,20,1,1,1,405
265,1,1,265,2,0,0,1,474
266,1,1,266,32,1,1,1,419
267,1,1,267,10,1,1,1,530
268,1,1,268,32,0,0,1,534
269,1,1,269,10,0,0,1,428
270,1,1,270,20,0,0,1,411
271,1,1,271,5,1,1,1,780
272,1,1,272,2,0,0,1,577
273,1,1,273,32,1,1,1,643
274,1,1,274,2,1,1,1,624
275,1,1,275,2,1,1,0,722
276,1,1,276,1,1,1,1,456
277,1,1,277,20,1,1,1,449
278,1,1,278,10,0,0,1,517
279,1,1,279,10,1,1,1,640
280,1,1,280,10,1,1,1,722
281,1,1,281,10,0,0,1,443
282,1,1,282,5,0,0,1,559
283,1,1,283,10,0,0,1,482
284,1,1,284,20,0,0,1,933
285,1,1,285,5,0,0,1,593
286,1,1,286,5,1,1,1,553
287,1,1,287,1,0,0,1,499
288,1,1,288,20,0,0,1,718
289,1,1,289,32,1,1,1,533
290,1,1,290,20,1,1,1,484
291,1,1,291,32,1,1,1,547
292,1,1,292,2,1,1,1,421
293,1,1,293,20,0,0,1,610
294,1,1,294,20,1,1,1,494
295,1,1,295,10,0,0,1,462
296,1,1,296,5,0,0,1,544
297,1,1,297,10,1,1,1,535
298,1,1,298,10,1,1,1,435
299,1,1,299,1,0,0,1,427
300,1,1,300,10,0,0,1,566
301,1,1,301,2,0,0,1,650
302,1,1,302,1,1,1,1,398
303,1,1,303,20,1,1,1,414
304,1,1,304,5,0,0,1,420
305,1,1,305,32,1,1,1,551
306,1,1,306,1,0,0,1,480
307,1,1,307,2,1,1,1,548
308,1,1,308,10,1,1,1,417
309,1,1,309,5,0,0,1,612
310,1,1,310,10,1,1,1,771
311,1,1,311,20,0,0,1,424
312,1,1,312,5,1,1,1,421
313,1,1,313,1,0,0,1,492
314,1,1,314,1,0,0,1,420
315,1,1,315,1,1,1,1,452
316,1,1,316,32,1,1,1,518
317,1,1,317,32,0,0,1,440
318,1,1,318,10,0,0,1,547
319,1,1,319,32,0,0,1,504
320,1,1,320,20,1,1,1,438
321,1,1,321,10,1,1,1,525
322,1,1,322,2,0,0,1,417
323,1,1,323,32,0,0,1,442
324,1,1,324,10,1,1,1,681
325,1,1,325,1,0,0,1,523
326,1,1,326,32,1,1,1,585
327,1,1,327,5,1,1,1,415
328,1,1,328,5,1,1,1,599
329,1,1,329,5,1,1,1,481
330,1,1,330,5,0,0,1,605
331,1,1,331,1,0,0,0,398
332,1,1,332,20,1,1,1,553
333,1,1,333,10,1,1,1,694
334,1,1,334,2,1,1,1,564
335,1,1,335,5,1,1,1,558
336,1,1,336,10,0,0,1,591
337,1,1,337,5,0,0,1,625
338,1,1,338,20,1,1,1,633
339,1,1,339,32,1,1,1,578
340,1,1,340,10,1,1,1,491
341,1,1,341,5,0,0,1,709
342,1,1,342,2,1,1,1,459
343,1,1,343,32,0,0,1,572
344,1,1,344,2,1,1,1,601
345,1,1,345,2,1,1,1,564
346,1,1,346,20,0,0,1,519
347,1,1,347,32,1,1,1,586
348,1,1,348,10,1,1,1,463
349,1,1,349,5,1,1,1,657
350,1,1,350,20,1,1,1,597
351,1,1,351,2,0,0,1,514
352,1,1,352,2,1,1,1,472
353,1,1,353,5,0,0,1,529
354,1,1,354,32,1,1,1,1048
355,1,1,355,32,0,0,1,509
356,1,1,356,32,0,0,1,536
357,1,1,357,5,0,0,1,901
358,1,1,358,10,1,1,1,570
359,1,1,359,2,0,0,1,604
360,1,1,360,5,0,0,1,809
361,1,1,361,20,1,1,1,531
362,1,1,362,2,0,0,1,393
363,1,1,363,5,0,0,1,450
364,1,1,364,2,0,0,1,493
365,1,1,365,32,1,1,1,709
366,1,1,366,5,0,0,1,500
367,1,1,367,20,1,1,1,497
368,1,1,368,5,0,0,1,446
369,1,1,369,20,1,1,1,367
370,1,1,370,2,1,1,1,503
371,1,1,371,32,0,0,1,512
372,1,1,372,32,1,1,1,491
373,1,1,373,20,1,1,1,481
374,1,1,374,2,1,1,1,428
375,1,1,375,10,1,1,1,435
376,1,1,376,20,1,1,1,417
377,1,1,377,32,0,0,1,645
378,1,1,378,10,1,1,1,390
379,1,1,379,32,1,1,1,505
380,1,1,380,32,0,0,1,496
381,1,1,381,32,1,1,1,488
382,1,1,382,32,0,0,1,546
383,1,1,383,20,1,1,1,705
384,1,1,384,10,1,1,1,577
385,1,1,385,5,0,0,1,410
386,1,1,386,2,1,1,1,606
387,1,1,387,2,1,1,1,391
388,1,1,388,20,0,0,1,479
389,1,1,389,32,0,0,1,713
390,1,1,390,2,0,0,1,466
391,1,1,391,10,1,1,1,582
392,1,1,392,32,1,1,1,537
393,1,1,393,32,0,0,1,466
394,1,1,394,5,1,1,1,562
395,1,1,395,10,0,0,1,501
396,1,1,396,20,0,0,1,604
397,1,1,397,10,0,0,1,544
398,1,1,398,20,1,1,1,431
399,1,1,399,10,0,0,1,477
400,1,1,400,2,1,1,1,661
401,1,1,401,5,1,1,1,543
402,1,1,402,32,0,0,1,476
403,1,1,403,10,0,0,1,454
404,1,1,404,32,0,0,1,478
405,1,1,405,10,0,0,1,507
406,1,1,406,10,1,1,1,681
407,1,1,407,2,0,0,1,503
408,1,1,408,32,0,0,1,693
409,1,1,409,32,0,0,1,586
410,1,1,410,20,1,1,1,569
411,1,1,411,32,0,0,1,520
412,1,1,412,5,0,0,1,396
413,1,1,413,2,0,0,1,386
414,1,1,414,20,0,0,0,452
415,1,1,415,10,1,1,1,820
416,1,1,416,10,1,1,1,441
417,1,1,417,5,0,0,1,427
418,1,1,418,10,1,1,1,450
419,1,1,419,2,1,1,1,823
420,1,1,420,10,0,0,1,660
421,1,1,421,20,0,0,1,470
422,1,1,422,10,1,1,1,394
423,1,1,423,5,1,1,1,538
424,1,1,424,32,1,1,1,586
425,1,1,425,2,0,0,1,432
426,1,1,426,20,1,1,1,451
427,1,1,427,32,0,0,1,460
428,1,1,428,32,1,1,1,483
429,1,1,429,10,0,0,1,449
430,1,1,430,10,1,1,1,421
431,1,1,431,2,0,0,1,416
432,1,1,432,32,0,0,1,659
433,1,1,433,2,0,0,1,469
434,1,1,434,5,1,1,1,457
435,1,1,435,5,1,1,1,569
436,1,1,436,2,0,0,1,466
437,1,1,437,10,1,1,1,617
438,1,1,438,32,1,1,1,502
439,1,1,439,5,1,1,1,531
440,1,1,440,2,1,1,1,447
441,1,1,441,20,0,0,1,550
442,1,1,442,1,0,0,1,434
443,1,1,443,32,0,0,1,636
444,1,1,444,10,0,0,1,413
445,1,1,445,10,1,1,1,483
446,1,1,446,5,1,1,1,451
447,1,1,447,32,0,0,1,457
448,1,1,448,5,1,1,1,493
449,1,1,449,32,0,0,1,520
450,1,1,450,2,0,0,1,404
451,1,1,451,2,0,0,1,597
452,1,1,452,32,0,0,1,392
453,1,1,453,2,1,1,1,477
454,1,1,454,5,1,1,1,374
455,1,1,455,5,0,0,1,385
456,1,1,456,20,1,1,1,585
457,1,1,457,32,1,1,1,589
458,1,1,458,10,0,0,1,518
459,1,1,459,20,1,1,1,603
460,1,1,460,20,1,1,1,423
461,1,1,461,32,0,0,1,1079
462,1,1,462,5,0,0,0,374
463,1,1,463,20,1,1,1,459
464,1,1,464,5,1,1,1,413
465,1,1,465,32,0,0,1,780
466,1,1,466,10,1,1,1,571
467,1,1,467,2,0,0,1,541
468,1,1,468,10,0,0,1,421
469,1,1,469,32,1,1,1,389
470,1,1,470,32,0,0,1,462
471,1,1,471,10,1,1,1,539
472,1,1,472,2,1,1,1,462
473,1,1,473,20,1,1,1,431
474,1,1,474,10,0,0,1,373
475,1,1,475,20,1,1,1,414
476,1,1,476,32,1,1,1,518
477,1,1,477,2,0,0,1,500
478,1,1,478,2,0,0,1,434
479,1,1,479,20,0,0,1,457
480,1,1,480,10,0,0,1,387
481,1,1,481,20,1,1,1,509
482,1,1,482,20,1,1,1,369
483,1,1,483,2,0,0,1,392
484,1,1,484,20,0,0,1,491
485,1,1,485,10,1,1,1,348
486,1,1,486,20,0,0,1,475
487,1,1,487,10,1,1,1,492
488,1,1,488,1,1,1,1,374
489,1,1,489,5,1,1,1,545
490,1,1,490,5,1,1,1,590
491,1,1,491,32,0,0,1,433
492,1,1,492,5,0,0,1,435
493,1,1,493,20,0,0,1,527
494,1,1,494,1,1,1,1,411
495,1,1,495,5,1,1,0,437
496,1,1,496,2,1,1,1,608
497,1,1,497,32,1,1,1,480
498,1,1,498,32,0,0,1,482
499,1,1,499,2,1,1,1,448
500,1,1,500,20,1,1,1,469
501,1,1,501,2,0,0,1,504
502,1,1,502,5,1,1,1,467
503,1,1,503,20,1,1,1,516
504,1,1,504,32,1,1,1,701
505,1,1,505,5,1,1,1,507
506,1,1,506,5,1,1,1,423
507,1,1,507,10,0,0,1,371
508,1,1,508,5,0,0,1,446
509,1,1,509,2,0,0,1,335
510,1,1,510,10,1,1,1,493
511,1,1,511,2,1,1,1,368
512,1,1,512,20,1,1,1,490
513,1,1,513,10,0,0,1,435
514,1,1,514,10,0,0,1,458
515,1,1,515,32,1,1,1,406
516,1,1,516,5,0,0,1,361
517,1,1,517,2,1,1,1,430
518,1,1,518,32,0,0,1,371
519,1,1,519,10,0,0,1,381
520,1,1,520,2,1,1,1,420
521,1,1,521,32,0,0,1,1003
522,1,1,522,2,0,0,1,390
523,1,1,523,10,0,0,1,429
524,1,1,524,2,1,1,0,443
525,1,1,525,5,1,1,1,482
526,1,1,526,1,1,1,1,323
527,1,1,527,20,0,0,1,493
528,1,1,528,1,1,1,1,308
529,1,1,529,1,0,0,1,342
530,1,1,530,2,0,0,1,356
531,1,1,531,2,1,1,1,375
532,1,1,532,5,0,0,1,374
533,1,1,533,32,1,1,1,478
534,1,1,534,32,1,1,1,559
535,1,1,535,32,1,1,1,472
536,1,1,536,32,0,0,1,468
537,1,1,537,5,0,0,1,486
538,1,1,538,2,0,0,1,464
539,1,1,539,2,1,1,1,410
540,1,1,540,20,0,0,1,403
541,1,1,541,32,1,1,1,483
542,1,1,542,32,1,1,1,447
543,1,1,543,20,1,1,1,504
544,1,1,544,20,1,1,1,416
545,1,1,545,5,0,0,0,388
546,1,1,546,1,0,0,1,366
547,1,1,547,20,0,0,1,387
548,1,1,548,10,1,1,1,493
549,1,1,549,32,0,0,1,591
550,1,1,550,10,0,0,1,437
551,1,1,551,1,1,1,1,636
552,1,1,552,1,0,0,1,403
553,1,1,553,32,1,1,1,697
554,1,1,554,10,0,0,1,407
555,1,1,555,10,0,0,1,525
556,1,1,556,2,0,0,1,714
557,1,1,557,5,1,1,1,433
558,1,1,558,5,0,0,1,431
559,1,1,559,10,0,0,1,649
560,1,1,560,20,1,1,1,649
561,1,1,561,10,1,1,1,431
562,1,1,562,32,1,1,1,536
563,1,1,563,32,1,1,1,770
564,1,1,564,10,0,0,1,392
565,1,1,565,32,0,0,1,507
566,1,1,566,20,0,0,1,547
567,1,1,567,2,0,0,1,408
568,1,1,568,2,0,0,1,446
569,1,1,569,10,0,0,1,556
570,1,1,570,10,0,0,1,354
571,1,1,571,10,0,0,0,467
572,1,1,572,20,0,0,1,442
573,1,1,573,32,1,1,1,644
574,1,1,574,20,0,0,1,489
575,1,1,575,20,0,0,1,383
576,1,1,576,10,0,0,1,528
577,1,1,577,1,1,1,1,399
578,1,1,578,32,0,0,1,437
579,1,1,579,5,0,0,1,445
580,1,1,580,20,1,1,1,354
581,1,1,581,20,1,1,1,376
582,1,1,582,20,0,0,1,498
583,1,1,583,32,0,0,1,490
584,1,1,584,20,0,0,1,557
585,1,1,585,2,0,0,1,405
586,1,1,586,32,0,0,1,561
587,1,1,587,5,1,1,1,491
588,1,1,588,5,0,0,1,344
589,1,1,589,2,0,0,1,364
590,1,1,590,10,0,0,1,468
591,1,1,591,10,1,1,1,551
592,1,1,592,32,0,0,1,498
593,1,1,593,2,1,1,1,647
594,1,1,594,2,0,0,1,416
595,1,1,595,10,0,0,1,462
596,1,1,596,2,0,0,1,462
597,1,1,597,5,1,1,1,400
598,1,1,598,10,1,1,1,739
599,1,1,599,10,1,1,1,489
600,1,1,600,5,1,1,1,406
601,1,1,601,2,1,1,1,507
602,1,1,602,20,0,0,1,424
603,1,1,603,5,1,1,1,403
604,1,1,604,10,1,1,1,538
605,1,1,605,10,0,0,1,357
606,1,1,606,5,0,0,1,388
607,1,1,607,20,1,1,1,581
608,1,1,608,20,0,0,1,364
609,1,1,609,32,0,0,1,372
610,1,1,610,10,1,1,1,548
611,1,1,611,32,1,1,1,775
612,1,1,612,32,0,0,1,478
613,1,1,613,5,1,1,1,348
614,1,1,614,20,0,0,1,451
615,1,1,615,20,1,1,1,447
616,1,1,616,5,0,0,1,435
617,1,1,617,2,1,1,1,419
618,1,1,618,5,0,0,1,453
619,1,1,619,5,1,1,1,471
620,1,1,620,32,1,1,1,738
621,1,1,621,5,1,1,0,485
622,1,1,622,20,0,0,1,489
623,1,1,623,5,1,1,1,606
624,1,1,624,5,0,0,1,666
625,1,1,625,2,0,0,1,549
626,1,1,626,20,1,1,1,586
627,1,1,627,10,0,3,0,639
628,1,1,628,2,1,1,1,540
629,1,1,629,10,1,1,1,598
630,1,1,630,1,0,0,1,504
631,1,1,631,20,0,0,1,495
632,1,1,632,1,0,0,1,377
633,1,1,633,5,1,1,1,400
634,1,1,634,2,1,1,1,464
635,1,1,635,10,0,0,1,390
636,1,1,636,2,1,1,1,394
637,1,1,637,2,1,1,1,566
638,1,1,638,5,0,0,1,770
639,1,1,639,1,0,0,1,357
640,1,1,640,20,0,0,1,518
641,2,1,1,5,1,1,1,562
642,2,1,2,20,1,1,0,479
643,2,1,3,2,0,0,1,453
644,2,1,4,2,1,1,1,551
645,2,1,5,20,0,0,1,462
646,2,1,6,32,0,0,1,572
647,2,1,7,20,0,0,1,554
648,2,1,8,2,0,0,1,406
649,2,1,9,32,1,1,1,770
650,2,1,10,2,1,1,1,555
651,2,1,11,5,0,0,1,349
652,2,1,12,32,1,1,1,449
653,2,1,13,5,0,0,1,573
654,2,1,14,5,1,1,1,490
655,2,1,15,32,1,1,1,528
656,2,1,16,2,0,0,1,396
657,2,1,17,10,0,0,1,553
658,2,1,18,2,0,0,1,533
659,2,1,19,10,0,0,1,493
660,2,1,20,20,0,0,1,555
661,2,1,21,10,1,1,1,672
662,2,1,22,10,0,0,1,490
663,2,1,23,10,0,0,1,408
664,2,1,24,20,0,0,1,470
665,2,1,25,20,1,1,1,576
666,2,1,26,5,1,1,1,432
667,2,1,27,20,0,0,1,436
668,2,1,28,20,1,1,1,520
669,2,1,29,20,0,0,1,639
670,2,1,30,10,1,1,1,451
671,2,1,31,2,1,1,1,553
672,2,1,32,32,1,1,1,575
673,2,1,33,1,1,1,1,396
674,2,1,34,5,0,0,1,552
675,2,1,35,10,0,0,1,549
676,2,1,36,5,0,0,1,420
677,2,1,37,2,0,0,1,369
678,2,1,38,20,1,1,1,511
679,2,1,39,10,1,1,1,581
680,2,1,40,2,1,1,1,560
681,2,1,41,5,0,0,1,660
682,2,1,42,32,1,1,1,783
683,2,1,43,5,1,1,1,600
684,2,1,44,2,1,1,1,527
685,2,1,45,2,0,0,1,544
686,2,1,46,10,1,1,1,490
687,2,1,47,5,0,0,1,582
688,2,1,48,32,1,1,1,595
689,2,1,49,32,0,0,1,524
690,2,1,50,20,1,1,1,497
691,2,1,51,32,1,1,1,588
692,2,1,52,2,0,0,1,491
693,2,1,53,10,1,1,1,705
694,2,1,54,5,1,1,1,663
695,2,1,55,20,1,1,1,531
696,2,1,56,32,0,0,1,527
697,2,1,57,32,1,1,1,712
698,2,1,58,20,1,1,1,468
699,2,1,59,20,0,0,1,468
700,2,1,60,32,0,0,1,915
701,2,1,61,10,1,1,1,489
702,2,1,62,20,0,0,1,537
703,2,1,63,32,0,0,1,502
704,2,1,64,20,1,1,0,444
705,2,1,65,32,1,1,1,509
706,2,1,66,5,0,0,1,423
707,2,1,67,5,1,1,1,415
708,2,1,68,2,1,1,1,508
709,2,1,69,5,1,1,1,445
710,2,1,70,20,0,0,1,461
711,2,1,71,10,0,0,1,544
712,2,1,72,32,0,0,1,529
713,2,1,73,5,1,1,1,447
714,2,1,74,2,0,0,1,537
715,2,1,75,5,0,0,1,493
716,2,1,76,20,1,1,1,438
717,2,1,77,20,1,1,1,551
718,2,1,78,32,1,1,1,507
719,2,1,79,5,1,1,1,454
720,2,1,80,5,0,0,1,435
721,2,1,81,20,1,1,1,674
722,2,1,82,5,0,0,1,431
723,2,1,83,2,1,1,1,407
724,2,1,84,2,0,0,1,488
725,2,1,85,5,1,1,1,476
726,2,1,86,10,0,0,1,606
727,2,1,87,2,1,1,1,467
728,2,1,88,2,0,0,1,431
729,2,1,89,5,1,1,1,510
730,2,1,90,1,1,1,1,483
731,2,1,91,2,1,1,1,426
732,2,1,92,10,1,1,1,601
733,2,1,93,20,0,0,1,542
734,2,1,94,2,0,0,1,475
735,2,1,95,2,0,0,1,458
736,2,1,96,32,1,1,1,485
737,2,1,97,32,1,1,1,476
738,2,1,98,5,0,0,1,665
739,2,1,99,2,0,0,1,497
740,2,1,100,20,0,0,1,462
741,2,1,101,10,1,1,1,485
742,2,1,102,32,0,0,1,529
743,2,1,103,2,1,1,1,544
744,2,1,104,5,0,0,1,539
745,2,1,105,20,0,0,1,492
746,2,1,106,10,0,0,1,499
747,2,1,107,20,0,0,1,525
748,2,1,108,10,1,1,1,536
749,2,1,109,10,0,0,1,369
750,2,1,110,20,0,0,1,449
751,2,1,111,32,0,0,1,585
752,2,1,112,2,0,0,1,467
753,2,1,113,32,0,0,1,470
754,2,1,114,5,1,1,1,545
755,2,1,115,5,1,1,1,941
756,2,1,116,32,0,0,1,682
757,2,1,117,5,0,0,1,897
758,2,1,118,1,0,0,1,968
759,2,1,119,2,0,0,1,756
760,2,1,120,2,1,1,1,480
761,2,1,121,5,1,1,0,560
762,2,1,122,2,0,0,1,571
763,2,1,123,32,0,0,1,556
764,2,1,124,32,0,0,1,516
765,2,1,125,32,0,0,1,679
766,2,1,126,10,0,0,1,442
767,2,1,127,5,0,0,1,541
768,2,1,128,32,1,1,1,520
769,2,1,129,20,1,1,1,649
770,2,1,130,5,1,1,1,577
771,2,1,131,20,0,0,1,479
772,2,1,132,10,0,0,1,536
773,2,1,133,20,0,0,1,640
774,2,1,134,1,1,1,1,541
775,2,1,135,10,1,1,1,543
776,2,1,136,1,0,0,1,396
777,2,1,137,20,1,1,1,474
778,2,1,138,5,1,1,1,616
779,2,1,139,5,1,1,1,614
780,2,1,140,10,0,0,1,530
781,2,1,141,32,1,1,1,587
782,2,1,142,20,0,0,1,490
783,2,1,143,20,1,1,1,472
784,2,1,144,5,1,1,1,656
785,2,1,145,32,1,1,1,792
786,2,1,146,20,0,0,1,546
787,2,1,147,2,0,0,1,412
788,2,1,148,10,0,0,1,404
789,2,1,149,20,0,0,1,559
790,2,1,150,32,0,0,1,563
791,2,1,151,10,1,1,1,567
792,2,1,152,5,0,0,1,513
793,2,1,153,32,1,1,1,737
794,2,1,154,1,1,1,1,486
795,2,1,155,10,0,0,1,515
796,2,1,156,5,0,0,1,511
797,2,1,157,10,1,1,1,640
798,2,1,158,10,1,1,1,579
799,2,1,159,20,0,0,1,537
800,2,1,160,10,1,1,1,488
801,2,1,161,10,0,0,1,521
802,2,1,162,20,0,0,1,438
803,2,1,163,10,0,0,1,572
804,2,1,164,10,0,0,1,565
805,2,1,165,32,0,0,1,510
806,2,1,166,2,1,1,1,463
807,2,1,167,10,1,1,1,514
808,2,1,168,5,0,0,1,705
809,2,1,169,32,1,1,1,827
810,2,1,170,32,0,0,1,632
811,2,1,171,10,1,1,1,737
812,2,1,172,1,1,1,1,747
813,2,1,173,32,1,1,1,844
814,2,1,174,32,0,0,1,554
815,2,1,175,10,0,0,1,661
816,2,1,176,1,1,1,1,639
817,2,1,177,2,1,1,1,560
818,2,1,178,5,1,1,1,569
819,2,1,179,32,0,0,1,540
820,2,1,180,20,0,0,1,928
821,2,1,181,5,1,1,1,653
822,2,1,182,5,1,1,1,685
823,2,1,183,2,1,1,1,554
824,2,1,184,32,0,0,1,522
825,2,1,185,10,1,1,1,681
826,2,1,186,2,0,0,1,1133
827,2,1,187,5,0,0,1,626
828,2,1,188,5,0,0,1,911
829,2,1,189,32,0,0,1,605
830,2,1,190,5,1,1,1,477
831,2,1,191,32,1,1,1,1034
832,2,1,192,32,1,1,1,505
833,2,1,193,20,0,0,1,508
834,2,1,194,20,0,0,1,738
835,2,1,195,5,0,0,1,418
836,2,1,196,32,0,0,1,780
837,2,1,197,20,1,1,1,803
838,2,1,198,20,1,1,0,604
839,2,1,199,5,1,1,1,826
840,2,1,200,20,1,1,1,455
841,2,1,201,32,1,1,1,466
842,2,1,202,1,1,1,1,353
843,2,1,203,10,0,0,1,489
844,2,1,204,1,1,1,1,398
845,2,1,205,5,0,0,1,501
846,2,1,206,10,1,1,1,527
847,2,1,207,32,0,0,1,573
848,2,1,208,2,1,1,1,595
849,2,1,209,20,0,0,1,509
850,2,1,210,32,0,0,1,507
851,2,1,211,10,1,1,1,623
852,2,1,212,32,0,0,1,527
853,2,1,213,32,1,1,1,593
854,2,1,214,2,0,0,1,507
855,2,1,215,10,1,1,1,523
856,2,1,216,2,0,0,1,417
857,2,1,217,10,0,0,1,831
858,2,1,218,2,1,1,1,464
859,2,1,219,10,1,1,1,621
860,2,1,220,2,1,1,1,517
861,2,1,221,20,1,1,1,527
862,2,1,222,32,0,0,1,465
863,2,1,223,32,0,0,1,452
864,2,1,224,5,1,1,1,493
865,2,1,225,20,0,0,1,556
866,2,1,226,2,1,1,1,392
867,2,1,227,5,1,1,1,433
868,2,1,228,5,0,0,1,526
869,2,1,229,32,0,0,1,544
870,2,1,230,2,1,1,1,510
871,2,1,231,5,0,0,1,815
872,2,1,232,10,1,1,1,585
873,2,1,233,2,1,1,1,518
874,2,1,234,5,0,0,1,533
875,2,1,235,1,0,0,1,589
876,2,1,236,10,1,1,0,529
877,2,1,237,20,1,1,1,518
878,2,1,238,2,1,1,1,553
879,2,1,239,2,0,0,1,514
880,2,1,240,32,1,1,1,545
881,2,1,241,2,0,0,1,464
882,2,1,242,20,0,0,1,514
883,2,1,243,2,0,0,1,525
884,2,1,244,32,1,1,1,574
885,2,1,245,10,0,0,1,501
886,2,1,246,2,0,0,1,492
887,2,1,247,10,1,1,1,569
888,2,1,248,20,1,1,1,469
889,2,1,249,20,1,1,1,595
890,2,1,250,5,1,1,1,571
891,2,1,251,5,0,0,1,366
892,2,1,252,2,1,1,1,406
893,2,1,253,20,1,1,1,463
894,2,1,254,32,1,1,1,939
895,2,1,255,10,0,0,1,433
896,2,1,256,1,1,1,1,413
897,2,1,257,32,0,0,1,515
898,2,1,258,32,0,0,1,626
899,2,1,259,5,0,0,1,595
900,2,1,260,1,1,1,1,396
901,2,1,261,2,0,0,1,607
902,2,1,262,5,1,1,1,495
903,2,1,263,1,0,0,1,465
904,2,1,264,2,0,0,1,1010
905,2,1,265,2,1,1,1,732
906,2,1,266,20,1,1,1,594
907,2,1,267,5,0,0,1,469
908,2,1,268,5,1,1,1,748
909,2,1,269,10,1,1,1,594
910,2,1,270,2,1,1,1,502
911,2,1,271,2,0,0,1,458
912,2,1,272,20,0,0,1,456
913,2,1,273,32,0,0,1,479
914,2,1,274,2,1,1,1,1196
915,2,1,275,32,1,1,1,587
916,2,1,276,2,0,0,1,434
917,2,1,277,5,0,0,1,394
918,2,1,278,1,0,0,1,462
919,2,1,279,2,0,0,1,580
920,2,1,280,32,0,0,1,514
921,2,1,281,5,0,0,1,455
922,2,1,282,2,1,1,1,523
923,2,1,283,20,1,1,1,521
924,2,1,284,2,1,1,1,877
925,2,1,285,20,1,1,1,505
926,2,1,286,20,1,1,1,598
927,2,1,287,5,1,1,1,557
928,2,1,288,2,1,1,1,518
929,2,1,289,1,1,1,1,480
930,2,1,290,1,1,1,1,422
931,2,1,291,10,0,0,1,503
932,2,1,292,2,0,0,1,541
933,2,1,293,20,1,1,1,582
934,2,1,294,5,1,1,1,465
935,2,1,295,5,1,1,1,429
936,2,1,296,2,0,0,1,424
937,2,1,297,1,0,0,1,493
938,2,1,298,10,0,0,1,533
939,2,1,299,20,0,0,1,557
940,2,1,300,2,0,0,1,437
941,2,1,301,10,0,0,1,394
942,2,1,302,20,1,1,1,710
943,2,1,303,20,1,1,1,485
944,2,1,304,2,1,1,1,480
945,2,1,305,32,0,0,1,655
946,2,1,306,32,0,0,1,998
947,2,1,307,10,1,1,0,450
948,2,1,308,2,0,0,1,637
949,2,1,309,5,1,1,1,564
950,2,1,310,5,1,1,1,599
951,2,1,311,2,0,0,1,515
952,2,1,312,10,1,1,1,500
953,2,1,313,20,1,1,1,572
954,2,1,314,5,0,0,1,579
955,2,1,315,5,1,1,1,666
956,2,1,316,2,1,1,1,458
957,2,1,317,20,1,1,1,568
958,2,1,318,2,1,1,1,590
959,2,1,319,20,0,0,1,728
960,2,1,320,5,0,0,1,879
961,2,1,321,20,0,0,1,462
962,2,1,322,32,1,1,0,579
963,2,1,323,32,1,1,1,650
964,2,1,324,10,1,1,1,493
965,2,1,325,20,1,1,1,713
966,2,1,326,20,0,0,1,791
967,2,1,327,1,1,1,1,481
968,2,1,328,20,1,1,1,561
969,2,1,329,32,1,1,1,562
970,2,1,330,32,1,1,1,499
971,2,1,331,10,0,0,1,563
972,2,1,332,20,1,1,1,597
973,2,1,333,5,0,0,1,557
974,2,1,334,20,1,1,1,551
975,2,1,335,32,0,0,1,545
976,2,1,336,2,1,1,1,565
977,2,1,337,20,1,1,1,636
978,2,1,338,10,0,0,1,563
979,2,1,339,5,1,1,1,442
980,2,1,340,2,0,0,1,436
981,2,1,341,32,0,0,1,491
982,2,1,342,10,0,0,1,552
983,2,1,343,10,1,1,1,623
984,2,1,344,2,0,0,1,657
985,2,1,345,20,0,0,1,569
986,2,1,346,10,1,1,1,627
987,2,1,347,32,1,1,1,572
988,2,1,348,20,1,1,1,736
989,2,1,349,2,1,1,1,574
990,2,1,350,20,0,0,1,420
991,2,1,351,10,1,1,1,781
992,2,1,352,2,1,1,1,789
993,2,1,353,32,0,0,1,873
994,2,1,354,32,0,0,1,1205
995,2,1,355,1,0,0,1,434
996,2,1,356,32,0,0,1,807
997,2,1,357,2,0,0,1,746
998,2,1,358,2,1,1,1,750
999,2,1,359,10,1,1,1,741
1000,2,1,360,10,0,0,1,672
1001,2,1,361,10,1,1,1,531
1002,2,1,362,20,0,0,1,435
1003,2,1,363,10,1,1,1,527
1004,2,1,364,32,1,1,1,697
1005,2,1,365,2,1,1,1,492
1006,2,1,366,32,1,1,1,545
1007,2,1,367,10,0,0,1,552
1008,2,1,368,10,1,1,1,623
1009,2,1,369,20,1,1,1,576
1010,2,1,370,5,1,1,1,448
1011,2,1,371,1,1,1,1,897
1012,2,1,372,2,0,0,1,407
1013,2,1,373,1,0,0,1,417
1014,2,1,374,2,1,1,1,813
1015,2,1,375,10,1,1,1,529
1016,2,1,376,20,0,0,1,440
1017,2,1,377,20,0,0,1,988
1018,2,1,378,10,1,1,1,1022
1019,2,1,379,2,1,1,1,452
1020,2,1,380,10,1,1,1,1075
1021,2,1,381,32,1,1,1,593
1022,2,1,382,5,0,0,1,420
1023,2,1,383,10,0,0,1,454
1024,2,1,384,32,1,1,1,611
1025,2,1,385,1,0,0,1,652
1026,2,1,386,32,0,0,1,487
1027,2,1,387,10,0,0,1,481
1028,2,1,388,2,1,1,1,1068
1029,2,1,389,5,0,0,1,446
1030,2,1,390,5,0,0,1,520
1031,2,1,391,2,1,1,1,610
1032,2,1,392,20,0,0,1,737
1033,2,1,393,5,0,0,1,445
1034,2,1,394,20,1,1,1,757
1035,2,1,395,32,0,0,1,435
1036,2,1,396,32,1,1,1,447
1037,2,1,397,32,0,0,1,488
1038,2,1,398,32,0,0,1,361
1039,2,1,399,2,1,1,1,398
1040,2,1,400,32,1,1,1,568
1041,2,1,401,2,0,0,1,781
1042,2,1,402,10,0,0,1,444
1043,2,1,403,32,1,1,1,492
1044,2,1,404,2,0,0,1,406
1045,2,1,405,10,0,0,1,412
1046,2,1,406,1,0,0,1,317
1047,2,1,407,5,1,1,1,410
1048,2,1,408,10,0,0,1,334
1049,2,1,409,10,1,1,1,421
1050,2,1,410,2,0,0,1,669
1051,2,1,411,32,0,0,1,470
1052,2,1,412,20,1,1,1,474
1053,2,1,413,5,1,1,1,653
1054,2,1,414,32,1,1,1,447
1055,2,1,415,10,1,1,1,584
1056,2,1,416,5,1,1,1,516
1057,2,1,417,5,0,0,1,425
1058,2,1,418,32,1,1,1,410
1059,2,1,419,10,0,0,1,412
1060,2,1,420,2,1,1,1,442
1061,2,1,421,10,0,0,1,481
1062,2,1,422,32,0,0,1,369
1063,2,1,423,2,0,0,1,566
1064,2,1,424,10,0,0,1,399
1065,2,1,425,2,0,0,1,342
1066,2,1,426,2,1,1,0,368
1067,2,1,427,10,1,1,1,463
1068,2,1,428,20,1,1,1,507
1069,2,1,429,2,1,1,1,442
1070,2,1,430,2,0,0,1,412
1071,2,1,431,32,0,0,1,570
1072,2,1,432,10,1,1,1,781
1073,2,1,433,1,0,0,1,457
1074,2,1,434,10,0,0,1,469
1075,2,1,435,5,0,0,1,593
1076,2,1,436,10,1,1,1,596
1077,2,1,437,5,1,1,1,482
1078,2,1,438,20,1,1,1,516
1079,2,1,439,20,0,0,1,511
1080,2,1,440,1,1,1,1,1162
1081,2,1,441,1,1,1,1,712
1082,2,1,442,5,1,1,1,617
1083,2,1,443,20,0,0,1,611
1084,2,1,444,20,1,1,1,561
1085,2,1,445,1,1,1,1,436
1086,2,1,446,20,1,1,1,1115
1087,2,1,447,10,0,0,1,1162
1088,2,1,448,2,0,0,1,860
1089,2,1,449,20,0,0,1,592
1090,2,1,450,32,0,0,1,514
1091,2,1,451,20,1,1,1,523
1092,2,1,452,5,0,0,1,680
1093,2,1,453,2,0,0,1,490
1094,2,1,454,10,0,0,1,925
1095,2,1,455,32,1,1,1,1167
1096,2,1,456,20,0,0,1,1067
1097,2,1,457,10,0,0,1,439
1098,2,1,458,2,1,1,1,815
1099,2,1,459,20,0,0,1,411
1100,2,1,460,5,0,0,1,1050
1101,2,1,461,32,1,1,1,1001
1102,2,1,462,10,1,1,1,465
1103,2,1,463,1,1,1,1,957
1104,2,1,464,32,0,0,1,627
1105,2,1,465,32,0,0,1,990
1106,2,1,466,20,0,0,1,768
1107,2,1,467,10,0,0,1,1032
1108,2,1,468,20,1,1,1,1399
1109,2,1,469,2,1,1,1,484
1110,2,1,470,5,1,1,1,463
1111,2,1,471,2,0,0,1,584
1112,2,1,472,20,0,0,1,432
1113,2,1,473,2,1,1,1,674
1114,2,1,474,1,1,1,1,726
1115,2,1,475,32,1,1,1,445
1116,2,1,476,10,1,1,1,491
1117,2,1,477,1,0,0,1,630
1118,2,1,478,5,0,0,1,705
1119,2,1,479,20,1,1,1,414
1120,2,1,480,32,0,0,1,523
1121,2,1,481,20,1,1,1,569
1122,2,1,482,5,0,0,1,512
1123,2,1,483,32,1,1,1,576
1124,2,1,484,5,0,0,1,464
1125,2,1,485,1,0,0,1,495
1126,2,1,486,2,0,0,1,512
1127,2,1,487,5,1,1,1,487
1128,2,1,488,5,1,1,1,725
1129,2,1,489,32,1,1,1,977
1130,2,1,490,20,1,1,1,538
1131,2,1,491,5,0,0,1,505
1132,2,1,492,2,0,0,1,396
1133,2,1,493,5,0,0,1,426
1134,2,1,494,5,1,1,1,600
1135,2,1,495,5,1,1,1,563
1136,2,1,496,5,0,0,1,565
1137,2,1,497,10,1,1,1,489
1138,2,1,498,32,0,0,1,924
1139,2,1,499,20,0,0,1,1000
1140,2,1,500,5,1,1,1,509
1141,2,1,501,10,1,1,1,449
1142,2,1,502,5,0,0,1,366
1143,2,1,503,20,0,0,1,572
1144,2,1,504,5,0,0,1,499
1145,2,1,505,32,1,1,1,506
1146,2,1,506,2,0,0,1,475
1147,2,1,507,2,0,0,1,1104
1148,2,1,508,20,1,1,0,422
1149,2,1,509,20,0,0,1,546
1150,2,1,510,20,1,1,1,493
1151,2,1,511,5,1,1,1,552
1152,2,1,512,32,0,0,1,629
1153,2,1,513,10,0,0,1,432
1154,2,1,514,10,0,0,1,406
1155,2,1,515,32,1,1,1,505
1156,2,1,516,10,1,1,1,707
1157,2,1,517,20,0,0,1,845
1158,2,1,518,1,1,1,1,641
1159,2,1,519,5,0,0,1,674
1160,2,1,520,10,0,0,1,665
1161,2,1,521,10,0,0,1,471
1162,2,1,522,10,1,1,1,577
1163,2,1,523,5,0,0,1,525
1164,2,1,524,32,0,0,1,521
1165,2,1,525,20,1,1,1,576
1166,2,1,526,10,1,1,1,886
1167,2,1,527,2,1,1,1,567
1168,2,1,528,32,1,1,1,510
1169,2,1,529,10,0,0,1,777
1170,2,1,530,10,1,1,1,569
1171,2,1,531,10,0,0,1,878
1172,2,1,532,20,0,0,1,517
1173,2,1,533,5,1,1,1,523
1174,2,1,534,20,0,0,1,499
1175,2,1,535,10,1,1,1,495
1176,2,1,536,5,0,0,1,522
1177,2,1,537,10,1,1,1,485
1178,2,1,538,10,0,0,1,460
1179,2,1,539,32,0,0,1,670
1180,2,1,540,32,1,1,1,658
1181,2,1,541,20,1,1,1,592
1182,2,1,542,5,1,1,1,442
1183,2,1,543,2,1,1,1,447
1184,2,1,544,2,1,1,1,406
1185,2,1,545,32,0,0,1,497
1186,2,1,546,10,1,1,1,447
1187,2,1,547,2,0,0,1,470
1188,2,1,548,5,0,0,1,685
1189,2,1,549,2,0,0,1,431
1190,2,1,550,1,0,0,1,391
1191,2,1,551,10,1,1,1,659
1192,2,1,552,32,1,1,1,692
1193,2,1,553,32,1,1,1,511
1194,2,1,554,20,0,0,1,462
1195,2,1,555,1,0,0,1,431
1196,2,1,556,2,1,1,1,446
1197,2,1,557,5,0,0,1,570
1198,2,1,558,1,0,0,1,402
1199,2,1,559,1,0,0,1,374
1200,2,1,560,10,0,0,1,458
1201,2,1,561,5,1,1,1,738
1202,2,1,562,32,0,0,1,577
1203,2,1,563,10,0,0,1,423
1204,2,1,564,5,1,1,1,560
1205,2,1,565,2,0,0,1,1061
1206,2,1,566,32,1,1,1,597
1207,2,1,567,20,0,0,1,486
1208,2,1,568,20,0,0,1,465
1209,2,1,569,20,0,0,1,452
1210,2,1,570,20,1,1,1,532
1211,2,1,571,2,1,1,1,566
1212,2,1,572,5,1,1,1,430
1213,2,1,573,2,1,1,1,649
1214,2,1,574,10,0,0,1,682
1215,2,1,575,32,0,0,1,631
1216,2,1,576,32,1,1,1,453
1217,2,1,577,5,0,0,1,562
1218,2,1,578,5,0,0,1,475
1219,2,1,579,20,1,1,1,477
1220,2,1,580,10,1,1,1,881
1221,2,1,581,5,1,1,1,536
1222,2,1,582,5,1,1,1,427
1223,2,1,583,10,1,1,1,874
1224,2,1,584,2,0,0,1,427
1225,2,1,585,5,1,1,1,419
1226,2,1,586,1,0,0,1,391
1227,2,1,587,10,1,1,1,577
1228,2,1,588,32,1,1,1,951
1229,2,1,589,5,1,1,1,405
1230,2,1,590,20,1,1,1,507
1231,2,1,591,32,0,0,1,435
1232,2,1,592,5,0,0,1,444
1233,2,1,593,20,1,1,1,494
1234,2,1,594,5,0,0,1,937
1235,2,1,595,2,1,1,1,494
1236,2,1,596,2,1,1,1,606
1237,2,1,597,5,1,1,1,535
1238,2,1,598,5,1,1,1,550
1239,2,1,599,2,1,1,1,607
1240,2,1,600,1,0,0,1,402
1241,2,1,601,32,1,1,1,817
1242,2,1,602,20,0,0,1,522
1243,2,1,603,10,1,1,1,591
1244,2,1,604,5,1,1,1,475
1245,2,1,605,32,1,1,1,515
1246,2,1,606,32,0,0,1,484
1247,2,1,607,32,0,0,1,521
1248,2,1,608,20,1,1,1,596
1249,2,1,609,2,1,1,1,473
1250,2,1,610,10,1,1,1,618
1251,2,1,611,2,1,1,1,562
1252,2,1,612,5,0,0,1,558
1253,2,1,613,10,0,0,1,615
1254,2,1,614,10,0,0,1,528
1255,2,1,615,5,0,0,1,519
1256,2,1,616,2,0,0,1,432
1257,2,1,617,10,0,0,1,395
1258,2,1,618,1,0,0,1,471
1259,2,1,619,2,0,0,1,469
1260,2,1,620,10,0,0,1,413
1261,2,1,621,32,1,1,1,566
1262,2,1,622,20,0,0,1,484
1263,2,1,623,20,0,0,1,395
1264,2,1,624,2,1,1,1,535
1265,2,1,625,10,0,0,1,441
1266,2,1,626,32,0,0,1,555
1267,2,1,627,20,0,0,1,609
1268,2,1,628,2,0,0,1,503
1269,2,1,629,2,1,1,1,520
1270,2,1,630,32,1,1,1,506
1271,2,1,631,2,0,0,1,519
1272,2,1,632,20,1,1,1,471
1273,2,1,633,2,0,0,1,575
1274,2,1,634,10,0,0,1,388
1275,2,1,635,10,0,0,1,362
1276,2,1,636,20,0,0,1,545
1277,2,1,637,32,1,1,1,490
1278,2,1,638,5,0,0,1,593
1279,2,1,639,20,1,1,1,575
1280,2,1,640,32,1,1,1,552
1281,3,1,1,10,1,1,1,747
1282,3,1,2,20,0,0,1,662
1283,3,1,3,1,0,0,1,512
1284,3,1,4,10,1,1,1,602
1285,3,1,5,20,0,0,1,518
1286,3,1,6,32,0,0,1,606
1287,3,1,7,32,0,0,1,1459
1288,3,1,8,32,1,1,1,618
1289,3,1,9,32,1,1,1,752
1290,3,1,10,1,1,1,1,709
1291,3,1,11,5,0,0,1,599
1292,3,1,12,20,0,0,1,683
1293,3,1,13,2,1,1,1,669
1294,3,1,14,32,1,1,1,629
1295,3,1,15,32,1,1,1,686
1296,3,1,16,2,0,0,1,647
1297,3,1,17,10,1,1,1,660
1298,3,1,18,20,1,1,1,555
1299,3,1,19,10,0,0,1,624
1300,3,1,20,10,0,0,1,688
1301,3,1,21,5,0,0,1,578
1302,3,1,22,1,0,0,1,489
1303,3,1,23,10,1,1,1,591
1304,3,1,24,2,0,0,1,696
1305,3,1,25,2,0,0,1,697
1306,3,1,26,5,0,0,1,669
1307,3,1,27,5,0,0,1,678
1308,3,1,28,20,1,1,1,890
1309,3,1,29,32,0,0,1,595
1310,3,1,30,10,0,0,1,538
1311,3,1,31,10,0,0,1,473
1312,3,1,32,32,0,0,1,498
1313,3,1,33,20,0,0,1,517
1314,3,1,34,32,1,1,1,777
1315,3,1,35,32,0,0,1,552
1316,3,1,36,5,1,1,1,710
1317,3,1,37,5,0,0,1,932
1318,3,1,38,32,1,1,1,816
1319,3,1,39,2,0,0,1,1292
1320,3,1,40,20,1,3,0,4992
1321,3,1,41,32,1,1,1,500
1322,3,1,42,32,1,1,1,673
1323,3,1,43,2,1,1,1,486
1324,3,1,44,20,1,1,1,584
1325,3,1,45,2,1,1,1,482
1326,3,1,46,10,1,1,1,488
1327,3,1,47,32,0,0,1,707
1328,3,1,48,20,0,0,1,613
1329,3,1,49,10,0,0,1,668
1330,3,1,50,1,1,1,1,710
1331,3,1,51,2,0,0,1,343
1332,3,1,52,2,0,0,1,583
1333,3,1,53,2,0,0,1,492
1334,3,1,54,5,0,0,1,523
1335,3,1,55,20,0,0,1,600
1336,3,1,56,32,0,0,1,597
1337,3,1,57,10,0,0,1,488
1338,3,1,58,5,1,1,1,687
1339,3,1,59,32,1,1,1,617
1340,3,1,60,32,0,0,1,783
1341,3,1,61,32,0,0,1,720
1342,3,1,62,2,1,1,1,559
1343,3,1,63,1,0,0,1,478
1344,3,1,64,5,1,1,1,530
1345,3,1,65,32,0,0,1,701
1346,3,1,66,32,0,0,1,543
1347,3,1,67,5,1,1,1,505
1348,3,1,68,10,0,0,1,504
1349,3,1,69,32,1,1,1,547
1350,3,1,70,2,0,0,1,532
1351,3,1,71,32,1,1,1,704
1352,3,1,72,1,0,0,1,761
1353,3,1,73,20,0,0,1,548
1354,3,1,74,2,0,0,1,737
1355,3,1,75,20,0,0,1,496
1356,3,1,76,5,0,0,1,632
1357,3,1,77,5,1,1,1,482
1358,3,1,78,10,0,0,1,478
1359,3,1,79,5,0,0,1,634
1360,3,1,80,5,1,1,1,533
1361,3,1,81,5,0,0,1,831
1362,3,1,82,10,1,1,1,565
1363,3,1,83,20,1,1,1,602
1364,3,1,84,5,0,0,1,449
1365,3,1,85,32,1,1,1,706
1366,3,1,86,10,0,0,1,485
1367,3,1,87,32,1,1,1,589
1368,3,1,88,2,1,1,1,431
1369,3,1,89,20,1,1,1,490
1370,3,1,90,20,1,1,1,484
1371,3,1,91,20,1,1,1,587
1372,3,1,92,32,1,1,1,553
1373,3,1,93,5,1,1,1,496
1374,3,1,94,1,1,1,1,788
1375,3,1,95,10,0,0,1,545
1376,3,1,96,10,0,0,1,531
1377,3,1,97,20,0,0,1,575
1378,3,1,98,32,1,1,1,626
1379,3,1,99,2,0,0,1,458
1380,3,1,100,20,0,0,1,606
1381,3,1,101,20,1,1,1,714
1382,3,1,102,20,1,1,0,544
1383,3,1,103,20,0,0,1,574
1384,3,1,104,5,1,1,1,470
1385,3,1,105,32,0,0,1,752
1386,3,1,106,2,1,1,1,586
1387,3,1,107,20,0,0,1,432
1388,3,1,108,2,1,1,1,388
1389,3,1,109,2,1,1,1,478
1390,3,1,110,10,1,1,1,553
1391,3,1,111,20,0,0,1,595
1392,3,1,112,1,0,0,1,559
1393,3,1,113,1,1,1,1,887
1394,3,1,114,32,0,0,1,530
1395,3,1,115,10,0,0,1,675
1396,3,1,116,2,1,1,1,601
1397,3,1,117,32,0,0,1,588
1398,3,1,118,32,1,1,1,448
1399,3,1,119,20,0,0,1,529
1400,3,1,120,20,0,0,1,537
1401,3,1,121,10,1,1,1,424
1402,3,1,122,5,1,1,1,545
1403,3,1,123,10,1,1,1,719
1404,3,1,124,32,0,0,1,502
1405,3,1,125,20,1,1,1,644
1406,3,1,126,32,1,1,1,642
1407,3,1,127,5,0,0,1,1003
1408,3,1,128,5,1,1,1,643
1409,3,1,129,1,1,1,1,673
1410,3,1,130,2,1,1,1,644
1411,3,1,131,20,0,0,1,536
1412,3,1,132,10,1,1,1,512
1413,3,1,133,32,0,0,1,558
1414,3,1,134,10,1,1,1,669
1415,3,1,135,2,0,0,1,985
1416,3,1,136,20,1,1,1,481
1417,3,1,137,5,0,0,1,737
1418,3,1,138,10,1,1,1,554
1419,3,1,139,5,0,0,1,674
1420,3,1,140,5,0,0,1,854
1421,3,1,141,10,0,0,1,656
1422,3,1,142,2,1,1,1,537
1423,3,1,143,20,0,0,1,615
1424,3,1,144,32,0,0,1,517
1425,3,1,145,2,0,0,1,656
1426,3,1,146,20,0,0,1,497
1427,3,1,147,5,0,0,1,594
1428,3,1,148,5,0,0,1,630
1429,3,1,149,20,1,1,1,576
1430,3,1,150,2,0,0,1,575
1431,3,1,151,5,1,1,1,628
1432,3,1,152,10,0,0,1,529
1433,3,1,153,32,1,1,1,761
1434,3,1,154,10,1,1,1,486
1435,3,1,155,2,0,0,1,429
1436,3,1,156,10,1,1,1,479
1437,3,1,157,20,1,1,1,667
1438,3,1,158,2,1,1,1,496
1439,3,1,159,20,1,1,1,609
1440,3,1,160,10,0,0,1,604
1441,3,1,161,32,0,0,1,620
1442,3,1,162,2,0,0,1,516
1443,3,1,163,10,0,0,1,522
1444,3,1,164,2,1,1,1,960
1445,3,1,165,20,0,0,1,767
1446,3,1,166,20,0,0,1,1115
1447,3,1,167,2,0,0,1,510
1448,3,1,168,20,0,0,1,561
1449,3,1,169,10,0,0,1,736
1450,3,1,170,20,1,1,1,656
1451,3,1,171,32,1,1,1,654
1452,3,1,172,2,0,0,1,690
1453,3,1,173,32,0,0,1,739
1454,3,1,174,10,1,1,1,537
1455,3,1,175,5,1,1,1,577
1456,3,1,176,32,0,0,1,1096
1457,3,1,177,32,1,1,1,957
1458,3,1,178,5,0,0,1,794
1459,3,1,179,10,1,1,1,1010
1460,3,1,180,20,0,0,1,1019
1461,3,1,181,5,0,0,1,539
1462,3,1,182,2,1,1,1,510
1463,3,1,183,20,1,1,1,651
1464,3,1,184,20,1,1,1,606
1465,3,1,185,2,1,1,1,576
1466,3,1,186,32,0,0,1,684
1467,3,1,187,5,1,1,1,556
1468,3,1,188,20,1,1,1,601
1469,3,1,189,5,1,1,1,606
1470,3,1,190,2,0,0,1,526
1471,3,1,191,5,0,0,1,408
1472,3,1,192,32,1,1,1,587
1473,3,1,193,2,0,0,1,559
1474,3,1,194,32,1,1,1,634
1475,3,1,195,5,0,0,1,437
1476,3,1,196,10,1,1,1,631
1477,3,1,197,32,1,1,1,750
1478,3,1,198,10,0,0,1,574
1479,3,1,199,5,0,0,1,555
1480,3,1,200,2,0,0,1,484
1481,3,1,201,2,1,1,1,654
1482,3,1,202,2,0,0,1,564
1483,3,1,203,2,0,0,1,531
1484,3,1,204,5,1,1,1,564
1485,3,1,205,2,1,1,1,550
1486,3,1,206,2,0,0,1,479
1487,3,1,207,2,0,0,1,431
1488,3,1,208,10,0,0,1,519
1489,3,1,209,32,1,1,1,739
1490,3,1,210,2,0,0,1,425
1491,3,1,211,10,0,0,1,522
1492,3,1,212,5,0,0,1,770
1493,3,1,213,32,1,1,1,648
1494,3,1,214,2,1,1,1,594
1495,3,1,215,2,0,0,1,439
1496,3,1,216,1,0,0,1,467
1497,3,1,217,32,0,0,1,489
1498,3,1,218,10,0,0,1,485
1499,3,1,219,20,1,1,1,680
1500,3,1,220,5,0,0,1,509
1501,3,1,221,1,0,0,1,568
1502,3,1,222,5,1,1,1,577
1503,3,1,223,1,1,1,1,597
1504,3,1,224,32,1,1,1,672
1505,3,1,225,32,1,1,1,664
1506,3,1,226,20,1,1,1,446
1507,3,1,227,1,1,1,1,608
1508,3,1,228,10,0,0,1,699
1509,3,1,229,5,0,0,1,626
1510,3,1,230,20,0,0,1,533
1511,3,1,231,5,1,1,1,628
1512,3,1,232,5,1,1,1,669
1513,3,1,233,20,0,0,1,501
1514,3,1,234,32,0,0,1,567
1515,3,1,235,5,1,1,1,435
1516,3,1,236,5,0,0,1,496
1517,3,1,237,5,0,0,1,521
1518,3,1,238,10,1,1,1,599
1519,3,1,239,10,0,0,1,567
1520,3,1,240,5,0,0,1,399
1521,3,1,241,32,0,0,1,986
1522,3,1,242,20,0,0,1,474
1523,3,1,243,5,1,1,1,738
1524,3,1,244,5,1,1,1,503
1525,3,1,245,32,0,0,1,974
1526,3,1,246,20,0,0,1,662
1527,3,1,247,32,0,0,1,1230
1528,3,1,248,5,1,1,1,821
1529,3,1,249,10,0,0,1,753
1530,3,1,250,2,1,1,1,514
1531,3,1,251,10,1,1,1,685
1532,3,1,252,10,0,0,1,643
1533,3,1,253,2,1,1,1,634
1534,3,1,254,20,1,1,1,688
1535,3,1,255,10,1,1,1,529
1536,3,1,256,32,0,0,1,953
1537,3,1,257,20,0,0,1,675
1538,3,1,258,10,1,1,1,530
1539,3,1,259,32,0,0,1,661
1540,3,1,260,2,1,1,1,661
1541,3,1,261,5,1,1,1,836
1542,3,1,262,32,0,0,1,846
1543,3,1,263,2,0,0,1,606
1544,3,1,264,10,1,1,1,1330
1545,3,1,265,20,1,1,1,837
1546,3,1,266,20,1,1,1,991
1547,3,1,267,10,1,1,1,679
1548,3,1,268,32,1,1,1,523
1549,3,1,269,20,0,0,1,1070
1550,3,1,270,5,0,0,1,595
1551,3,1,271,10,0,0,1,376
1552,3,1,272,5,0,0,1,508
1553,3,1,273,1,1,1,1,720
1554,3,1,274,5,1,1,1,539
1555,3,1,275,2,1,1,1,522
1556,3,1,276,2,1,1,1,699
1557,3,1,277,10,0,0,1,534
1558,3,1,278,10,1,1,1,593
1559,3,1,279,2,1,1,1,566
1560,3,1,280,32,1,1,1,612
1561,3,1,281,5,1,1,1,998
1562,3,1,282,32,0,0,1,521
1563,3,1,283,10,1,1,1,691
1564,3,1,284,20,0,0,1,1046
1565,3,1,285,10,1,1,1,910
1566,3,1,286,20,0,0,1,492
1567,3,1,287,20,0,0,1,501
1568,3,1,288,5,1,1,1,785
1569,3,1,289,20,1,1,1,578
1570,3,1,290,5,1,1,1,1129
1571,3,1,291,32,1,1,1,1286
1572,3,1,292,32,0,0,1,606
1573,3,1,293,2,0,0,1,734
1574,3,1,294,32,1,1,1,898
1575,3,1,295,2,0,0,1,1006
1576,3,1,296,32,1,1,1,576
1577,3,1,297,10,1,1,1,671
1578,3,1,298,20,1,1,1,910
1579,3,1,299,2,0,0,1,433
1580,3,1,300,2,1,1,1,1628
1581,3,1,301,10,1,1,0,687
1582,3,1,302,2,0,0,1,547
1583,3,1,303,32,0,0,1,706
1584,3,1,304,10,0,0,1,480
1585,3,1,305,10,1,1,1,694
1586,3,1,306,2,0,0,1,505
1587,3,1,307,20,0,0,1,619
1588,3,1,308,10,1,1,1,632
1589,3,1,309,5,1,1,1,1256
1590,3,1,310,10,0,0,1,539
1591,3,1,311,2,1,1,1,883
1592,3,1,312,2,1,1,1,497
1593,3,1,313,2,0,0,1,1102
1594,3,1,314,10,1,1,1,423
1595,3,1,315,32,0,0,1,845
1596,3,1,316,2,1,1,1,411
1597,3,1,317,5,1,1,1,476
1598,3,1,318,2,1,1,1,425
1599,3,1,319,32,0,0,1,583
1600,3,1,320,10,1,1,1,746
1601,3,1,321,10,1,1,1,902
1602,3,1,322,32,0,0,1,997
1603,3,1,323,2,1,1,1,617
1604,3,1,324,2,0,0,1,1192
1605,3,1,325,10,0,0,1,841
1606,3,1,326,32,0,0,1,548
1607,3,1,327,5,1,1,1,890
1608,3,1,328,2,1,1,1,886
1609,3,1,329,10,0,0,1,387
1610,3,1,330,32,1,1,1,909
1611,3,1,331,2,0,0,1,548
1612,3,1,332,32,1,1,1,659
1613,3,1,333,20,0,0,1,520
1614,3,1,334,32,1,1,1,718
1615,3,1,335,32,1,1,1,581
1616,3,1,336,10,0,0,1,1133
1617,3,1,337,2,0,0,1,771
1618,3,1,338,2,1,1,1,433
1619,3,1,339,32,0,0,1,700
1620,3,1,340,5,0,0,1,601
1621,3,1,341,20,0,0,1,395
1622,3,1,342,2,1,1,1,1856
1623,3,1,343,2,1,1,1,687
1624,3,1,344,32,0,0,1,465
1625,3,1,345,5,0,0,1,486
1626,3,1,346,32,0,0,1,495
1627,3,1,347,2,0,0,1,459
1628,3,1,348,10,0,0,1,362
1629,3,1,349,32,0,0,1,474
1630,3,1,350,5,0,0,1,419
1631,3,1,351,5,1,1,1,661
1632,3,1,352,2,0,0,1,527
1633,3,1,353,10,1,1,1,1141
1634,3,1,354,5,1,1,1,485
1635,3,1,355,1,1,1,0,495
1636,3,1,356,20,0,0,1,499
1637,3,1,357,20,0,0,1,493
1638,3,1,358,20,1,1,1,601
1639,3,1,359,2,0,0,1,967
1640,3,1,360,1,1,1,1,625
1641,3,1,361,20,1,1,1,659
1642,3,1,362,10,1,1,1,688
1643,3,1,363,32,0,0,1,682
1644,3,1,364,1,0,0,1,483
1645,3,1,365,10,0,0,1,818
1646,3,1,366,20,0,0,1,473
1647,3,1,367,5,1,1,1,646
1648,3,1,368,2,1,1,1,483
1649,3,1,369,5,0,0,1,662
1650,3,1,370,5,1,1,1,497
1651,3,1,371,5,0,0,1,551
1652,3,1,372,1,0,0,1,533
1653,3,1,373,5,1,1,1,715
1654,3,1,374,32,0,0,1,1777
1655,3,1,375,10,1,1,1,1286
1656,3,1,376,5,0,0,1,478
1657,3,1,377,2,1,1,1,1019
1658,3,1,378,10,1,1,1,869
1659,3,1,379,10,0,0,1,561
1660,3,1,380,20,1,1,1,577
1661,3,1,381,10,0,0,1,502
1662,3,1,382,32,1,1,1,461
1663,3,1,383,2,1,1,1,578
1664,3,1,384,5,1,1,1,1314
1665,3,1,385,32,0,0,1,451
1666,3,1,386,5,0,0,1,550
1667,3,1,387,32,1,1,1,524
1668,3,1,388,32,1,1,1,568
1669,3,1,389,5,0,0,1,732
1670,3,1,390,1,1,1,1,811
1671,3,1,391,1,0,0,1,410
1672,3,1,392,10,1,1,1,751
1673,3,1,393,2,1,1,1,829
1674,3,1,394,10,1,1,1,551
1675,3,1,395,5,0,0,1,489
1676,3,1,396,20,1,1,1,532
1677,3,1,397,20,0,0,1,1146
1678,3,1,398,32,1,1,1,581
1679,3,1,399,20,1,1,1,572
1680,3,1,400,5,1,1,1,1053
1681,3,1,401,2,1,1,1,1359
1682,3,1,402,1,1,1,1,483
1683,3,1,403,5,0,0,1,621
1684,3,1,404,5,1,1,1,754
1685,3,1,405,20,0,0,1,748
1686,3,1,406,10,1,1,1,510
1687,3,1,407,32,0,0,1,677
1688,3,1,408,32,1,1,1,876
1689,3,1,409,10,1,1,1,809
1690,3,1,410,10,0,0,1,827
1691,3,1,411,2,0,0,1,494
1692,3,1,412,10,1,1,1,689
1693,3,1,413,1,0,0,1,632
1694,3,1,414,20,0,0,1,605
1695,3,1,415,2,1,1,1,1541
1696,3,1,416,20,1,1,1,870
1697,3,1,417,32,0,0,1,723
1698,3,1,418,10,0,0,1,536
1699,3,1,419,2,0,0,1,582
1700,3,1,420,20,0,0,1,517
1701,3,1,421,32,1,1,1,802
1702,3,1,422,32,1,1,1,753
1703,3,1,423,20,1,1,1,538
1704,3,1,424,5,0,0,1,808
1705,3,1,425,20,1,1,1,597
1706,3,1,426,32,0,0,1,607
1707,3,1,427,20,0,0,1,875
1708,3,1,428,2,0,0,1,580
1709,3,1,429,10,0,0,1,402
1710,3,1,430,2,1,1,1,769
1711,3,1,431,5,1,1,1,1180
1712,3,1,432,32,1,1,1,588
1713,3,1,433,10,0,0,1,742
1714,3,1,434,20,1,1,1,599
1715,3,1,435,10,1,1,1,495
1716,3,1,436,32,1,1,1,669
1717,3,1,437,2,1,1,1,498
1718,3,1,438,32,1,1,1,728
1719,3,1,439,2,0,0,1,461
1720,3,1,440,2,1,1,1,532
1721,3,1,441,10,0,0,1,454
1722,3,1,442,10,1,1,1,796
1723,3,1,443,10,0,0,1,571
1724,3,1,444,20,0,0,1,844
1725,3,1,445,20,1,1,1,594
1726,3,1,446,5,0,0,1,511
1727,3,1,447,32,0,0,0,721
1728,3,1,448,5,0,0,1,974
1729,3,1,449,32,0,0,1,597
1730,3,1,450,1,0,0,1,1015
1731,3,1,451,32,0,0,1,508
1732,3,1,452,2,1,1,1,457
1733,3,1,453,20,1,1,1,570
1734,3,1,454,5,0,0,1,482
1735,3,1,455,20,0,0,1,1006
1736,3,1,456,5,1,1,1,1223
1737,3,1,457,10,1,1,1,629
1738,3,1,458,2,0,0,1,526
1739,3,1,459,5,0,0,1,411
1740,3,1,460,2,0,0,1,500
1741,3,1,461,20,0,0,1,1139
1742,3,1,462,32,1,1,1,1827
1743,3,1,463,5,0,0,1,1800
1744,3,1,464,32,1,1,1,607
1745,3,1,465,2,0,0,1,641
1746,3,1,466,20,1,1,1,600
1747,3,1,467,20,0,0,1,719
1748,3,1,468,5,1,1,1,603
1749,3,1,469,5,1,1,1,820
1750,3,1,470,5,1,1,1,594
1751,3,1,471,2,1,1,1,846
1752,3,1,472,5,1,1,1,1290
1753,3,1,473,20,0,0,1,584
1754,3,1,474,1,1,1,1,1695
1755,3,1,475,2,0,0,1,752
1756,3,1,476,10,0,0,1,1582
1757,3,1,477,1,0,0,1,1145
1758,3,1,478,32,1,1,1,559
1759,3,1,479,10,1,1,1,742
1760,3,1,480,20,0,0,1,607
1761,3,1,481,5,1,1,1,536
1762,3,1,482,2,1,1,1,785
1763,3,1,483,1,1,1,1,386
1764,3,1,484,5,0,0,1,579
1765,3,1,485,20,1,1,1,586
1766,3,1,486,5,0,0,1,474
1767,3,1,487,1,0,0,1,463
1768,3,1,488,2,0,0,1,641
1769,3,1,489,2,0,0,1,461
1770,3,1,490,5,1,1,1,595
1771,3,1,491,20,1,1,1,696
1772,3,1,492,10,1,1,1,596
1773,3,1,493,32,0,0,1,836
1774,3,1,494,2,0,0,1,993
1775,3,1,495,5,0,0,1,412
1776,3,1,496,32,0,0,1,593
1777,3,1,497,2,1,1,1,615
1778,3,1,498,32,0,0,1,576
1779,3,1,499,20,0,0,1,753
1780,3,1,500,5,0,0,1,669
1781,3,1,501,10,1,1,1,900
1782,3,1,502,32,0,0,1,619
1783,3,1,503,20,1,1,1,540
1784,3,1,504,10,0,0,1,778
1785,3,1,505,32,0,0,1,546
1786,3,1,506,32,0,0,1,750
1787,3,1,507,5,0,0,1,794
1788,3,1,508,20,1,1,1,535
1789,3,1,509,2,1,1,1,522
1790,3,1,510,20,1,1,1,459
1791,3,1,511,10,1,1,1,555
1792,3,1,512,10,0,0,1,756
1793,3,1,513,5,0,0,1,611
1794,3,1,514,20,1,1,1,551
1795,3,1,515,5,1,1,1,495
1796,3,1,516,32,1,1,1,536
1797,3,1,517,20,0,0,1,498
1798,3,1,518,20,0,0,1,609
1799,3,1,519,20,1,1,1,585
1800,3,1,520,10,0,0,1,551
1801,3,1,521,20,1,1,1,493
1802,3,1,522,10,1,1,1,443
1803,3,1,523,5,0,0,1,609
1804,3,1,524,20,1,1,1,546
1805,3,1,525,5,1,1,1,621
1806,3,1,526,10,1,1,1,718
1807,3,1,527,1,1,1,1,560
1808,3,1,528,5,0,0,1,882
1809,3,1,529,5,1,1,1,943
1810,3,1,530,5,0,0,1,438
1811,3,1,531,20,0,0,1,683
1812,3,1,532,2,1,1,1,509
1813,3,1,533,5,1,1,1,471
1814,3,1,534,32,1,1,1,673
1815,3,1,535,2,1,1,1,698
1816,3,1,536,32,1,1,1,724
1817,3,1,537,2,1,1,1,756
1818,3,1,538,1,0,0,1,880
1819,3,1,539,10,1,1,1,1195
1820,3,1,540,5,0,0,1,465
1821,3,1,541,20,0,0,1,348
1822,3,1,542,32,0,0,1,491
1823,3,1,543,10,0,0,0,524
1824,3,1,544,10,0,0,1,692
1825,3,1,545,5,1,1,1,652
1826,3,1,546,20,1,1,1,966
1827,3,1,547,5,1,1,1,459
1828,3,1,548,5,1,1,1,728
1829,3,1,549,20,1,1,1,480
1830,3,1,550,5,1,1,1,529
1831,3,1,551,5,0,0,1,1077
1832,3,1,552,5,1,1,1,476
1833,3,1,553,32,0,0,1,550
1834,3,1,554,10,1,1,1,726
1835,3,1,555,2,0,0,1,444
1836,3,1,556,20,0,0,1,568
1837,3,1,557,5,1,1,1,1410
1838,3,1,558,32,1,1,1,580
1839,3,1,559,20,1,1,1,469
1840,3,1,560,20,1,1,1,514
1841,3,1,561,1,0,0,1,814
1842,3,1,562,20,1,1,1,560
1843,3,1,563,2,1,1,1,775
1844,3,1,564,2,1,1,1,475
1845,3,1,565,20,1,1,1,713
1846,3,1,566,5,0,0,1,936
1847,3,1,567,2,0,0,1,1254
1848,3,1,568,5,1,1,1,1618
1849,3,1,569,2,0,0,1,445
1850,3,1,570,1,0,0,1,456
1851,3,1,571,32,1,1,1,516
1852,3,1,572,2,0,0,1,671
1853,3,1,573,20,1,1,1,605
1854,3,1,574,10,1,1,1,2767
1855,3,1,575,10,1,1,1,433
1856,3,1,576,10,0,0,1,545
1857,3,1,577,10,0,0,1,509
1858,3,1,578,20,1,1,1,762
1859,3,1,579,10,1,1,1,463
1860,3,1,580,10,0,0,1,510
1861,3,1,581,10,1,1,1,479
1862,3,1,582,1,0,0,1,622
1863,3,1,583,1,1,1,1,922
1864,3,1,584,5,0,0,1,626
1865,3,1,585,10,0,0,1,457
1866,3,1,586,1,1,1,1,543
1867,3,1,587,5,0,0,1,540
1868,3,1,588,2,0,0,0,529
1869,3,1,589,2,1,1,1,1338
1870,3,1,590,2,0,0,1,413
1871,3,1,591,1,1,1,1,553
1872,3,1,592,10,0,0,1,992
1873,3,1,593,5,0,0,1,394
1874,3,1,594,10,0,0,1,591
1875,3,1,595,20,0,0,1,612
1876,3,1,596,5,1,1,1,505
1877,3,1,597,2,1,1,0,456
1878,3,1,598,20,1,1,1,1533
1879,3,1,599,20,0,0,1,510
1880,3,1,600,10,0,0,1,632
1881,3,1,601,32,1,1,1,1023
1882,3,1,602,32,0,0,1,1805
1883,3,1,603,32,0,0,1,400
1884,3,1,604,20,1,1,1,517
1885,3,1,605,10,0,0,1,494
1886,3,1,606,2,0,0,1,383
1887,3,1,607,32,1,1,0,850
1888,3,1,608,2,1,1,1,948
1889,3,1,609,2,1,1,1,498
1890,3,1,610,32,1,1,1,560
1891,3,1,611,2,1,1,1,1066
1892,3,1,612,5,1,1,1,504
1893,3,1,613,10,0,0,1,432
1894,3,1,614,1,0,0,1,1373
1895,3,1,615,20,0,0,1,651
1896,3,1,616,20,1,1,1,701
1897,3,1,617,2,1,1,1,1980
1898,3,1,618,1,1,1,1,640
1899,3,1,619,20,0,0,1,1428
1900,3,1,620,32,1,1,1,600
1901,3,1,621,10,1,1,1,850
1902,3,1,622,10,0,0,1,864
1903,3,1,623,20,1,1,1,632
1904,3,1,624,2,0,0,1,403
1905,3,1,625,1,0,0,1,400
1906,3,1,626,10,0,0,1,497
1907,3,1,627,20,1,1,1,497
1908,3,1,628,2,1,1,1,825
1909,3,1,629,2,0,0,1,731
1910,3,1,630,20,0,0,1,591
1911,3,1,631,32,1,1,1,636
1912,3,1,632,32,0,0,1,577
1913,3,1,633,20,0,0,1,634
1914,3,1,634,5,1,1,1,681
1915,3,1,635,1,1,1,1,535
1916,3,1,636,10,1,1,1,579
1917,3,1,637,10,0,0,1,764
1918,3,1,638,32,1,1,1,592
1919,3,1,639,2,0,0,1,675
1920,3,1,640,10,1,1,1,583
1921,4,1,1,32,0,0,1,759
1922,4,1,2,5,0,0,1,500
1923,4,1,3,2,0,0,1,508
1924,4,1,4,20,0,0,1,732
1925,4,1,5,10,0,0,1,607
1926,4,1,6,2,1,1,1,933
1927,4,1,7,2,1,1,1,668
1928,4,1,8,1,0,0,1,489
1929,4,1,9,5,0,0,1,556
1930,4,1,10,20,1,1,1,1147
1931,4,1,11,2,1,1,1,478
1932,4,1,12,5,1,1,1,703
1933,4,1,13,32,1,1,1,540
1934,4,1,14,32,1,1,1,476
1935,4,1,15,32,0,0,1,782
1936,4,1,16,10,0,0,1,556
1937,4,1,17,2,0,0,1,755
1938,4,1,18,10,0,0,1,811
1939,4,1,19,10,1,1,1,1054
1940,4,1,20,20,1,1,1,740
1941,4,1,21,20,0,0,1,671
1942,4,1,22,5,1,1,1,607
1943,4,1,23,2,1,1,1,744
1944,4,1,24,2,0,0,1,582
1945,4,1,25,2,1,1,1,706
1946,4,1,26,5,1,1,1,768
1947,4,1,27,20,0,0,1,518
1948,4,1,28,2,0,0,1,658
1949,4,1,29,32,0,0,1,604
1950,4,1,30,20,0,0,1,616
1951,4,1,31,10,1,1,1,587
1952,4,1,32,20,1,1,1,600
1953,4,1,33,32,1,1,1,637
1954,4,1,34,20,1,1,1,713
1955,4,1,35,5,1,1,1,613
1956,4,1,36,32,0,0,1,813
1957,4,1,37,10,1,1,1,551
1958,4,1,38,1,1,1,1,485
1959,4,1,39,2,1,1,1,685
1960,4,1,40,1,1,1,1,403
1961,4,1,41,32,1,1,1,572
1962,4,1,42,10,0,0,1,675
1963,4,1,43,20,1,1,1,510
1964,4,1,44,20,1,1,1,510
1965,4,1,45,20,1,1,1,618
1966,4,1,46,20,1,1,1,686
1967,4,1,47,32,1,1,1,774
1968,4,1,48,1,0,0,1,488
1969,4,1,49,5,0,0,1,528
1970,4,1,50,32,1,1,1,561
1971,4,1,51,5,1,1,1,673
1972,4,1,52,2,0,0,1,787
1973,4,1,53,20,0,0,1,982
1974,4,1,54,5,1,1,1,515
1975,4,1,55,20,1,1,1,519
1976,4,1,56,32,1,1,1,540
1977,4,1,57,32,1,1,1,1239
1978,4,1,58,1,0,0,1,541
1979,4,1,59,32,1,1,1,1452
1980,4,1,60,10,0,0,1,703
1981,4,1,61,20,0,0,1,681
1982,4,1,62,10,1,1,1,561
1983,4,1,63,32,1,1,1,600
1984,4,1,64,32,0,0,1,1070
1985,4,1,65,20,0,0,1,560
1986,4,1,66,5,0,0,1,668
1987,4,1,67,5,0,0,1,640
1988,4,1,68,32,1,1,1,739
1989,4,1,69,20,1,1,1,752
1990,4,1,70,32,0,0,1,569
1991,4,1,71,5,0,0,1,723
1992,4,1,72,20,0,0,1,517
1993,4,1,73,5,0,0,1,488
1994,4,1,74,20,0,0,1,483
1995,4,1,75,20,0,0,1,1042
1996,4,1,76,2,0,0,1,634
1997,4,1,77,10,0,0,1,501
1998,4,1,78,20,0,0,1,570
1999,4,1,79,32,0,0,1,644
2000,4,1,80,5,0,0,1,481
2001,4,1,81,5,1,1,1,939
2002,4,1,82,32,0,0,1,470
2003,4,1,83,10,0,0,1,444
2004,4,1,84,20,0,0,1,552
2005,4,1,85,5,1,1,1,788
2006,4,1,86,20,1,1,1,929
2007,4,1,87,5,0,0,1,612
2008,4,1,88,20,1,1,1,539
2009,4,1,89,20,0,0,1,670
2010,4,1,90,5,0,0,1,608
2011,4,1,91,5,0,0,1,547
2012,4,1,92,10,1,1,1,1034
2013,4,1,93,10,1,1,1,777
2014,4,1,94,2,1,1,1,530
2015,4,1,95,10,0,0,1,552
2016,4,1,96,5,1,1,1,561
2017,4,1,97,10,0,0,1,720
2018,4,1,98,1,1,1,1,394
2019,4,1,99,5,0,0,1,682
2020,4,1,100,2,1,1,1,618
2021,4,1,101,2,0,0,1,663
2022,4,1,102,1,0,0,1,542
2023,4,1,103,5,0,0,1,594
2024,4,1,104,10,1,1,1,653
2025,4,1,105,5,1,1,1,649
2026,4,1,106,5,1,1,1,669
2027,4,1,107,5,1,1,1,562
2028,4,1,108,10,1,1,1,659
2029,4,1,109,1,0,0,1,687
2030,4,1,110,32,0,0,1,526
2031,4,1,111,10,1,1,1,664
2032,4,1,112,10,1,1,1,648
2033,4,1,113,20,1,1,1,485
2034,4,1,114,32,1,1,1,606
2035,4,1,115,2,1,1,1,498
2036,4,1,116,2,0,0,1,1033
2037,4,1,117,10,1,1,1,628
2038,4,1,118,32,1,1,1,570
2039,4,1,119,32,0,0,1,950
2040,4,1,120,20,0,0,1,988
2041,4,1,121,20,0,0,1,588
2042,4,1,122,32,1,1,1,555
2043,4,1,123,10,1,1,1,662
2044,4,1,124,2,1,1,1,630
2045,4,1,125,5,0,0,1,660
2046,4,1,126,32,1,1,1,692
2047,4,1,127,5,1,1,1,540
2048,4,1,128,1,1,1,1,557
2049,4,1,129,20,0,0,1,607
2050,4,1,130,2,1,1,1,919
2051,4,1,131,32,0,0,1,606
2052,4,1,132,32,1,1,1,729
2053,4,1,133,5,1,1,1,787
2054,4,1,134,2,1,1,1,1005
2055,4,1,135,20,0,0,1,642
2056,4,1,136,2,0,0,1,892
2057,4,1,137,2,0,0,1,548
2058,4,1,138,10,0,0,1,612
2059,4,1,139,2,0,0,1,648
2060,4,1,140,5,0,0,1,452
2061,4,1,141,32,0,0,1,547
2062,4,1,142,5,0,0,1,428
2063,4,1,143,5,0,0,1,435
2064,4,1,144,5,1,1,1,609
2065,4,1,145,32,0,0,1,568
2066,4,1,146,20,1,1,1,780
2067,4,1,147,5,1,1,1,691
2068,4,1,148,32,0,0,1,490
2069,4,1,149,5,0,0,1,837
2070,4,1,150,5,1,1,1,619
2071,4,1,151,2,1,1,1,636
2072,4,1,152,32,1,1,1,775
2073,4,1,153,5,1,1,1,628
2074,4,1,154,10,0,0,1,691
2075,4,1,155,5,1,1,1,677
2076,4,1,156,5,0,0,1,534
2077,4,1,157,5,1,1,1,654
2078,4,1,158,5,1,1,1,566
2079,4,1,159,1,0,0,1,500
2080,4,1,160,20,0,0,1,551
2081,4,1,161,32,1,1,1,578
2082,4,1,162,2,0,0,1,561
2083,4,1,163,10,0,0,1,604
2084,4,1,164,2,1,1,1,723
2085,4,1,165,10,0,0,1,656
2086,4,1,166,2,0,0,1,724
2087,4,1,167,10,1,1,1,516
2088,4,1,168,2,1,1,1,541
2089,4,1,169,2,1,1,1,599
2090,4,1,170,10,1,1,1,634
2091,4,1,171,10,0,0,1,561
2092,4,1,172,32,0,0,1,572
2093,4,1,173,32,1,1,1,479
2094,4,1,174,2,1,1,1,671
2095,4,1,175,2,0,0,1,458
2096,4,1,176,5,0,0,1,646
2097,4,1,177,1,1,1,1,451
2098,4,1,178,10,0,0,1,580
2099,4,1,179,10,0,0,1,654
2100,4,1,180,10,1,1,1,584
2101,4,1,181,32,1,1,1,522
2102,4,1,182,5,0,0,1,416
2103,4,1,183,20,1,1,1,367
2104,4,1,184,2,0,0,1,570
2105,4,1,185,20,0,0,1,726
2106,4,1,186,20,0,0,1,936
2107,4,1,187,32,0,0,1,427
2108,4,1,188,20,0,0,1,447
2109,4,1,189,20,0,0,1,1052
2110,4,1,190,20,0,0,0,632
2111,4,1,191,1,1,1,1,741
2112,4,1,192,20,0,0,1,1011
2113,4,1,193,5,0,0,1,485
2114,4,1,194,32,0,0,1,602
2115,4,1,195,10,1,1,1,800
2116,4,1,196,5,1,1,1,979
2117,4,1,197,2,1,1,1,517
2118,4,1,198,32,0,0,1,656
2119,4,1,199,2,0,0,1,473
2120,4,1,200,2,1,1,1,577
2121,4,1,201,20,0,0,1,539
2122,4,1,202,20,0,0,1,542
2123,4,1,203,32,0,0,1,887
2124,4,1,204,20,1,1,1,673
2125,4,1,205,1,0,0,1,529
2126,4,1,206,2,0,0,1,694
2127,4,1,207,20,1,1,1,694
2128,4,1,208,10,0,0,1,712
2129,4,1,209,20,0,0,1,599
2130,4,1,210,2,0,0,1,782
2131,4,1,211,2,1,1,1,577
2132,4,1,212,2,1,1,1,658
2133,4,1,213,2,0,0,1,644
2134,4,1,214,2,1,1,1,635
2135,4,1,215,10,0,0,1,524
2136,4,1,216,20,0,0,1,783
2137,4,1,217,32,0,0,1,496
2138,4,1,218,1,0,0,1,666
2139,4,1,219,10,1,1,1,695
2140,4,1,220,5,0,0,1,588
2141,4,1,221,20,1,1,1,707
2142,4,1,222,32,1,1,1,981
2143,4,1,223,32,0,0,1,566
2144,4,1,224,2,1,1,1,620
2145,4,1,225,5,0,0,1,616
2146,4,1,226,20,0,0,1,623
2147,4,1,227,20,1,1,1,626
2148,4,1,228,2,1,1,1,454
2149,4,1,229,20,1,1,1,507
2150,4,1,230,20,0,0,1,582
2151,4,1,231,20,1,1,1,535
2152,4,1,232,10,0,0,1,570
2153,4,1,233,5,0,0,1,681
2154,4,1,234,2,1,1,1,521
2155,4,1,235,32,0,0,1,598
2156,4,1,236,1,1,1,1,442
2157,4,1,237,20,1,1,1,533
2158,4,1,238,10,1,1,1,638
2159,4,1,239,2,1,1,1,594
2160,4,1,240,10,1,1,1,504
2161,4,1,241,20,1,1,1,565
2162,4,1,242,32,1,1,1,466
2163,4,1,243,10,1,1,1,944
2164,4,1,244,10,1,1,1,559
2165,4,1,245,2,0,0,1,639
2166,4,1,246,32,1,1,1,565
2167,4,1,247,2,0,0,1,488
2168,4,1,248,2,0,0,1,615
2169,4,1,249,5,1,1,1,742
2170,4,1,250,20,0,0,1,641
2171,4,1,251,5,0,0,1,527
2172,4,1,252,5,1,1,1,589
2173,4,1,253,32,1,1,1,514
2174,4,1,254,10,0,0,1,565
2175,4,1,255,10,0,0,1,986
2176,4,1,256,10,0,0,1,453
2177,4,1,257,5,1,1,1,544
2178,4,1,258,2,1,1,1,528
2179,4,1,259,32,0,0,1,653
2180,4,1,260,20,1,1,1,476
2181,4,1,261,20,0,0,1,512
2182,4,1,262,10,1,1,1,399
2183,4,1,263,2,1,1,1,538
2184,4,1,264,10,1,1,1,390
2185,4,1,265,5,1,1,1,620
2186,4,1,266,32,0,0,1,1058
2187,4,1,267,2,1,1,1,544
2188,4,1,268,5,1,1,1,625
2189,4,1,269,5,1,1,1,548
2190,4,1,270,20,1,1,1,652
2191,4,1,271,32,1,1,1,586
2192,4,1,272,5,0,0,0,522
2193,4,1,273,2,0,0,1,673
2194,4,1,274,2,0,0,1,717
2195,4,1,275,5,0,0,1,910
2196,4,1,276,5,1,1,1,665
2197,4,1,277,2,1,1,1,732
2198,4,1,278,10,1,1,1,624
2199,4,1,279,20,1,1,1,678
2200,4,1,280,10,0,0,1,725
2201,4,1,281,20,1,1,1,653
2202,4,1,282,10,1,1,1,669
2203,4,1,283,20,0,0,1,720
2204,4,1,284,20,1,1,1,551
2205,4,1,285,32,1,1,1,873
2206,4,1,286,32,1,1,1,898
2207,4,1,287,32,1,1,1,629
2208,4,1,288,2,0,0,1,627
2209,4,1,289,32,1,1,1,580
2210,4,1,290,20,1,1,1,692
2211,4,1,291,10,0,0,1,568
2212,4,1,292,20,1,1,1,523
2213,4,1,293,32,0,0,1,486
2214,4,1,294,10,1,1,1,536
2215,4,1,295,20,0,0,1,513
2216,4,1,296,1,0,0,1,528
2217,4,1,297,2,0,0,1,536
2218,4,1,298,1,1,1,1,494
2219,4,1,299,20,0,0,1,492
2220,4,1,300,20,0,0,1,804
2221,4,1,301,2,0,0,1,503
2222,4,1,302,5,1,1,1,475
2223,4,1,303,10,1,1,1,657
2224,4,1,304,10,1,1,1,570
2225,4,1,305,32,0,0,1,621
2226,4,1,306,2,1,1,1,393
2227,4,1,307,5,1,1,1,646
2228,4,1,308,32,0,0,1,1005
2229,4,1,309,20,0,0,1,746
2230,4,1,310,20,1,1,1,577
2231,4,1,311,10,0,0,1,681
2232,4,1,312,2,1,1,1,618
2233,4,1,313,10,0,0,1,971
2234,4,1,314,1,0,0,1,965
2235,4,1,315,5,0,0,1,806
2236,4,1,316,5,1,1,1,685
2237,4,1,317,5,1,1,1,528
2238,4,1,318,20,0,0,1,704
2239,4,1,319,32,0,0,1,1121
2240,4,1,320,10,1,1,1,590
2241,4,1,321,32,0,0,1,641
2242,4,1,322,2,0,0,1,616
2243,4,1,323,20,0,0,1,967
2244,4,1,324,2,0,0,1,660
2245,4,1,325,5,1,1,1,512
2246,4,1,326,2,1,1,1,487
2247,4,1,327,10,1,1,1,848
2248,4,1,328,20,0,0,1,718
2249,4,1,329,32,0,0,1,746
2250,4,1,330,10,1,1,1,664
2251,4,1,331,10,0,0,1,636
2252,4,1,332,5,1,1,1,656
2253,4,1,333,5,1,1,1,410
2254,4,1,334,2,0,0,1,463
2255,4,1,335,5,0,0,0,428
2256,4,1,336,32,1,1,1,658
2257,4,1,337,32,0,0,1,864
2258,4,1,338,2,0,0,1,749
2259,4,1,339,5,1,1,1,579
2260,4,1,340,5,0,0,1,768
2261,4,1,341,20,0,0,1,757
2262,4,1,342,10,0,0,1,734
2263,4,1,343,32,0,0,1,499
2264,4,1,344,32,1,1,1,1074
2265,4,1,345,10,0,0,1,788
2266,4,1,346,32,1,1,1,703
2267,4,1,347,32,0,0,1,607
2268,4,1,348,2,0,0,1,662
2269,4,1,349,20,1,1,1,724
2270,4,1,350,1,0,0,1,599
2271,4,1,351,32,0,0,1,720
2272,4,1,352,20,0,0,1,669
2273,4,1,353,20,1,1,1,673
2274,4,1,354,2,1,1,1,510
2275,4,1,355,10,0,0,1,587
2276,4,1,356,1,0,0,1,584
2277,4,1,357,10,0,0,1,728
2278,4,1,358,32,1,1,1,589
2279,4,1,359,1,0,0,1,545
2280,4,1,360,5,0,0,1,573
2281,4,1,361,20,1,1,1,818
2282,4,1,362,10,0,0,1,691
2283,4,1,363,10,1,1,1,791
2284,4,1,364,10,1,1,1,782
2285,4,1,365,20,1,1,1,615
2286,4,1,366,32,0,0,1,644
2287,4,1,367,32,0,0,1,754
2288,4,1,368,5,1,1,1,683
2289,4,1,369,20,1,1,1,627
2290,4,1,370,2,1,1,1,511
2291,4,1,371,20,1,1,1,526
2292,4,1,372,32,0,0,1,784
2293,4,1,373,2,1,1,1,529
2294,4,1,374,32,1,1,1,670
2295,4,1,375,2,1,1,1,451
2296,4,1,376,2,0,0,1,507
2297,4,1,377,10,0,0,1,539
2298,4,1,378,20,1,1,1,496
2299,4,1,379,2,1,1,1,578
2300,4,1,380,1,1,1,1,530
2301,4,1,381,5,0,0,1,714
2302,4,1,382,10,1,1,1,760
2303,4,1,383,20,0,0,1,661
2304,4,1,384,32,0,0,1,706
2305,4,1,385,5,1,1,1,682
2306,4,1,386,2,1,1,1,591
2307,4,1,387,20,1,1,1,710
2308,4,1,388,5,0,0,1,1027
2309,4,1,389,32,1,1,1,604
2310,4,1,390,32,1,1,1,698
2311,4,1,391,20,1,1,1,548
2312,4,1,392,32,0,0,1,825
2313,4,1,393,20,1,1,1,516
2314,4,1,394,5,0,0,1,612
2315,4,1,395,2,0,0,1,677
2316,4,1,396,20,0,0,1,581
2317,4,1,397,32,1,1,1,930
2318,4,1,398,1,1,1,1,690
2319,4,1,399,10,1,1,1,572
2320,4,1,400,20,1,1,1,684
2321,4,1,401,20,0,0,1,875
2322,4,1,402,20,1,1,1,630
2323,4,1,403,5,0,0,1,821
2324,4,1,404,2,0,0,1,739
2325,4,1,405,10,0,0,1,582
2326,4,1,406,10,0,0,1,765
2327,4,1,407,10,1,1,1,612
2328,4,1,408,2,0,0,1,585
2329,4,1,409,20,0,0,1,753
2330,4,1,410,2,1,1,1,554
2331,4,1,411,1,0,0,1,468
2332,4,1,412,32,0,0,1,622
2333,4,1,413,32,1,1,1,665
2334,4,1,414,20,0,0,1,552
2335,4,1,415,5,0,0,1,693
2336,4,1,416,32,1,1,1,729
2337,4,1,417,32,1,1,1,591
2338,4,1,418,10,1,1,1,548
2339,4,1,419,5,1,1,1,694
2340,4,1,420,5,0,0,1,715
2341,4,1,421,5,1,1,1,700
2342,4,1,422,20,1,1,1,640
2343,4,1,423,2,0,0,1,1122
2344,4,1,424,10,1,1,1,625
2345,4,1,425,10,0,0,1,735
2346,4,1,426,20,0,0,1,660
2347,4,1,427,2,1,1,1,692
2348,4,1,428,20,0,0,1,860
2349,4,1,429,5,1,1,1,763
2350,4,1,430,10,0,0,1,666
2351,4,1,431,2,0,0,1,628
2352,4,1,432,5,1,1,1,1043
2353,4,1,433,10,1,1,1,1410
2354,4,1,434,10,1,1,1,614
2355,4,1,435,32,1,1,1,609
2356,4,1,436,5,0,0,1,822
2357,4,1,437,32,1,1,1,492
2358,4,1,438,32,0,0,1,509
2359,4,1,439,5,1,1,1,480
2360,4,1,440,5,1,1,1,453
2361,4,1,441,5,1,1,1,560
2362,4,1,442,20,0,0,1,933
2363,4,1,443,20,1,1,1,508
2364,4,1,444,2,1,1,1,535
2365,4,1,445,32,1,1,1,537
2366,4,1,446,2,0,0,1,510
2367,4,1,447,10,0,0,1,771
2368,4,1,448,5,1,1,1,589
2369,4,1,449,2,0,0,1,541
2370,4,1,450,32,0,0,1,690
2371,4,1,451,10,0,0,1,618
2372,4,1,452,1,0,0,1,497
2373,4,1,453,10,1,1,1,534
2374,4,1,454,2,1,1,1,662
2375,4,1,455,20,0,0,1,604
2376,4,1,456,32,1,1,1,688
2377,4,1,457,2,0,0,1,518
2378,4,1,458,20,0,0,1,609
2379,4,1,459,5,1,1,1,834
2380,4,1,460,1,1,1,1,510
2381,4,1,461,20,1,1,1,560
2382,4,1,462,2,0,0,1,743
2383,4,1,463,10,0,0,1,551
2384,4,1,464,5,0,0,1,660
2385,4,1,465,10,0,0,1,736
2386,4,1,466,2,1,1,1,523
2387,4,1,467,10,1,1,1,525
2388,4,1,468,10,1,1,1,656
2389,4,1,469,5,0,0,1,589
2390,4,1,470,20,0,0,1,577
2391,4,1,471,10,0,0,1,542
2392,4,1,472,32,0,0,1,921
2393,4,1,473,32,1,1,1,589
2394,4,1,474,5,0,0,1,861
2395,4,1,475,32,0,0,1,713
2396,4,1,476,5,1,1,1,668
2397,4,1,477,5,1,1,1,711
2398,4,1,478,1,1,1,1,501
2399,4,1,479,32,0,0,1,807
2400,4,1,480,32,1,1,1,717
2401,4,1,481,5,0,0,1,686
2402,4,1,482,2,0,0,1,920
2403,4,1,483,20,1,1,1,698
2404,4,1,484,1,1,1,1,469
2405,4,1,485,5,0,0,1,645
2406,4,1,486,2,0,0,1,585
2407,4,1,487,5,1,1,1,523
2408,4,1,488,2,0,0,1,507
2409,4,1,489,32,0,0,1,624
2410,4,1,490,5,1,1,1,556
2411,4,1,491,2,1,1,1,619
2412,4,1,492,10,1,1,1,585
2413,4,1,493,20,1,1,1,532
2414,4,1,494,2,1,1,1,539
2415,4,1,495,32,0,0,1,629
2416,4,1,496,32,1,1,1,1084
2417,4,1,497,1,1,1,1,495
2418,4,1,498,10,1,1,1,584
2419,4,1,499,2,1,1,1,453
2420,4,1,500,2,0,0,1,691
2421,4,1,501,2,0,0,1,633
2422,4,1,502,2,1,1,1,889
2423,4,1,503,10,0,0,1,575
2424,4,1,504,5,1,1,1,670
2425,4,1,505,2,0,0,1,467
2426,4,1,506,1,1,1,1,721
2427,4,1,507,5,0,0,1,653
2428,4,1,508,10,0,0,1,875
2429,4,1,509,20,1,1,1,820
2430,4,1,510,2,0,0,1,667
2431,4,1,511,5,0,0,1,662
2432,4,1,512,20,1,1,1,691
2433,4,1,513,32,1,1,1,643
2434,4,1,514,10,0,0,1,738
2435,4,1,515,5,0,0,1,483
2436,4,1,516,1,1,1,1,497
2437,4,1,517,10,0,0,1,521
2438,4,1,518,1,0,0,1,462
2439,4,1,519,5,0,0,1,557
2440,4,1,520,2,1,1,1,792
2441,4,1,521,10,0,0,1,672
2442,4,1,522,5,0,0,1,651
2443,4,1,523,32,0,0,1,1192
2444,4,1,524,2,1,1,1,453
2445,4,1,525,20,0,0,1,629
2446,4,1,526,10,0,0,1,694
2447,4,1,527,32,0,0,1,567
2448,4,1,528,2,1,1,1,585
2449,4,1,529,10,1,1,1,543
2450,4,1,530,1,0,0,1,569
2451,4,1,531,32,1,1,1,576
2452,4,1,532,20,1,1,1,589
2453,4,1,533,32,0,0,1,543
2454,4,1,534,10,0,0,1,577
2455,4,1,535,2,0,0,1,716
2456,4,1,536,20,1,1,1,842
2457,4,1,537,32,1,1,1,644
2458,4,1,538,5,1,1,1,566
2459,4,1,539,2,1,1,1,485
2460,4,1,540,10,1,1,1,591
2461,4,1,541,2,1,1,1,545
2462,4,1,542,5,0,0,1,767
2463,4,1,543,10,1,1,1,591
2464,4,1,544,20,0,0,1,764
2465,4,1,545,32,1,1,1,544
2466,4,1,546,32,1,1,1,554
2467,4,1,547,5,0,0,1,481
2468,4,1,548,20,0,0,1,783
2469,4,1,549,32,0,0,1,590
2470,4,1,550,32,1,1,1,516
2471,4,1,551,20,1,1,1,546
2472,4,1,552,10,1,1,1,529
2473,4,1,553,5,1,1,1,540
2474,4,1,554,20,0,0,1,501
2475,4,1,555,20,1,1,1,723
2476,4,1,556,10,1,1,1,639
2477,4,1,557,32,1,1,1,795
2478,4,1,558,20,1,1,1,799
2479,4,1,559,1,0,0,1,779
2480,4,1,560,2,1,1,1,688
2481,4,1,561,1,0,0,1,538
2482,4,1,562,2,0,0,1,793
2483,4,1,563,2,0,0,1,630
2484,4,1,564,10,0,0,1,650
2485,4,1,565,32,0,0,1,1274
2486,4,1,566,32,1,1,1,579
2487,4,1,567,10,1,1,1,736
2488,4,1,568,5,0,0,1,746
2489,4,1,569,10,0,0,1,831
2490,4,1,570,2,1,1,1,535
2491,4,1,571,1,0,0,1,492
2492,4,1,572,10,1,1,1,546
2493,4,1,573,32,1,1,1,638
2494,4,1,574,5,0,0,1,542
2495,4,1,575,20,1,1,1,517
2496,4,1,576,1,1,1,1,534
2497,4,1,577,2,0,0,1,496
2498,4,1,578,5,0,0,1,576
2499,4,1,579,2,1,1,1,542
2500,4,1,580,5,1,1,1,645
2501,4,1,581,2,0,0,1,628
2502,4,1,582,5,1,1,1,467
2503,4,1,583,10,0,0,1,589
2504,4,1,584,10,0,0,1,469
2505,4,1,585,1,1,1,1,431
2506,4,1,586,10,0,0,1,546
2507,4,1,587,2,0,0,1,500
2508,4,1,588,2,0,0,1,690
2509,4,1,589,32,0,0,1,605
2510,4,1,590,5,0,0,1,597
2511,4,1,591,10,0,0,1,595
2512,4,1,592,2,0,0,1,465
2513,4,1,593,1,1,1,1,401
2514,4,1,594,20,1,1,1,663
2515,4,1,595,10,0,0,1,491
2516,4,1,596,10,0,0,1,535
2517,4,1,597,20,0,0,1,674
2518,4,1,598,32,0,0,1,627
2519,4,1,599,10,1,1,1,799
2520,4,1,600,2,1,1,1,571
2521,4,1,601,32,1,1,1,739
2522,4,1,602,10,1,1,1,468
2523,4,1,603,2,1,1,1,399
2524,4,1,604,5,0,0,1,471
2525,4,1,605,32,0,0,1,686
2526,4,1,606,5,1,1,1,631
2527,4,1,607,20,1,1,1,599
2528,4,1,608,10,1,1,1,658
2529,4,1,609,20,1,1,1,595
2530,4,1,610,5,0,0,1,544
2531,4,1,611,10,1,1,1,665
2532,4,1,612,32,0,0,1,767
2533,4,1,613,32,1,1,1,781
2534,4,1,614,10,0,0,1,679
2535,4,1,615,2,0,0,1,539
2536,4,1,616,5,1,1,1,551
2537,4,1,617,10,0,0,1,469
2538,4,1,618,32,1,1,1,927
2539,4,1,619,2,1,1,1,553
2540,4,1,620,10,1,1,1,748
2541,4,1,621,2,0,0,1,524
2542,4,1,622,32,0,0,1,537
2543,4,1,623,10,0,0,1,688
2544,4,1,624,20,0,0,1,662
2545,4,1,625,10,1,1,1,647
2546,4,1,626,5,0,0,1,568
2547,4,1,627,5,0,0,1,542
2548,4,1,628,20,0,0,1,603
2549,4,1,629,2,0,0,1,478
2550,4,1,630,32,1,1,1,606
2551,4,1,631,10,1,1,1,631
2552,4,1,632,1,1,1,1,451
2553,4,1,633,2,1,1,1,407
2554,4,1,634,32,0,0,1,576
2555,4,1,635,32,0,0,1,852
2556,4,1,636,10,1,1,1,585
2557,4,1,637,5,1,1,1,621
2558,4,1,638,5,0,0,1,551
2559,4,1,639,32,0,0,1,502
2560,4,1,640,20,1,1,1,558
2561,5,1,1,2,1,1,1,686
2562,5,1,2,2,0,0,1,676
2563,5,1,3,5,0,0,1,744
2564,5,1,4,2,1,1,1,701
2565,5,1,5,10,0,0,1,624
2566,5,1,6,10,1,1,1,636
2567,5,1,7,2,1,1,1,731
2568,5,1,8,20,0,0,1,580
2569,5,1,9,32,1,1,1,570
2570,5,1,10,10,0,0,1,665
2571,5,1,11,10,1,1,1,655
2572,5,1,12,5,1,1,1,674
2573,5,1,13,2,1,1,1,604
2574,5,1,14,2,1,1,1,752
2575,5,1,15,5,1,1,1,851
2576,5,1,16,32,0,0,1,623
2577,5,1,17,5,0,0,1,668
2578,5,1,18,1,0,0,1,539
2579,5,1,19,32,1,1,1,588
2580,5,1,20,5,0,0,1,551
2581,5,1,21,5,1,1,1,537
2582,5,1,22,10,0,0,1,665
2583,5,1,23,5,0,0,1,710
2584,5,1,24,20,1,1,1,715
2585,5,1,25,20,1,1,1,522
2586,5,1,26,10,1,1,1,744
2587,5,1,27,2,1,1,1,710
2588,5,1,28,5,0,0,1,735
2589,5,1,29,5,0,0,1,668
2590,5,1,30,10,1,1,1,987
2591,5,1,31,5,1,1,1,649
2592,5,1,32,2,1,1,1,490
2593,5,1,33,5,0,0,1,619
2594,5,1,34,10,1,1,1,565
2595,5,1,35,32,1,1,1,684
2596,5,1,36,32,1,1,1,788
2597,5,1,37,5,0,0,1,568
2598,5,1,38,2,0,0,1,631
2599,5,1,39,32,0,0,1,621
2600,5,1,40,5,1,1,1,800
2601,5,1,41,32,0,0,1,729
2602,5,1,42,32,1,1,1,568
2603,5,1,43,20,1,1,1,551
2604,5,1,44,1,0,0,1,512
2605,5,1,45,32,0,0,1,587
2606,5,1,46,10,1,1,1,689
2607,5,1,47,5,1,1,1,528
2608,5,1,48,1,1,1,1,470
2609,5,1,49,32,1,1,1,620
2610,5,1,50,5,0,0,1,533
2611,5,1,51,32,1,1,1,786
2612,5,1,52,5,1,1,1,502
2613,5,1,53,32,0,0,1,805
2614,5,1,54,5,0,0,1,829
2615,5,1,55,5,0,0,1,757
2616,5,1,56,10,0,0,1,844
2617,5,1,57,5,1,1,1,654
2618,5,1,58,32,1,1,1,925
2619,5,1,59,5,1,1,1,815
2620,5,1,60,10,1,1,1,686
2621,5,1,61,10,1,1,1,618
2622,5,1,62,32,1,1,1,631
2623,5,1,63,20,1,1,1,637
2624,5,1,64,10,0,0,1,678
2625,5,1,65,20,0,0,1,949
2626,5,1,66,10,1,1,1,881
2627,5,1,67,20,0,0,1,681
2628,5,1,68,10,0,0,1,599
2629,5,1,69,32,1,1,1,567
2630,5,1,70,20,1,1,1,658
2631,5,1,71,32,0,0,1,634
2632,5,1,72,2,1,1,1,628
2633,5,1,73,32,0,0,1,645
2634,5,1,74,2,0,0,1,537
2635,5,1,75,10,0,0,1,667
2636,5,1,76,5,0,0,1,583
2637,5,1,77,10,1,1,1,597
2638,5,1,78,10,0,0,1,893
2639,5,1,79,20,0,0,1,595
2640,5,1,80,5,0,0,1,551
2641,5,1,81,5,1,1,1,754
2642,5,1,82,20,1,1,1,589
2643,5,1,83,10,1,1,1,626
2644,5,1,84,2,1,1,1,535
2645,5,1,85,10,1,1,1,477
2646,5,1,86,10,0,0,1,590
2647,5,1,87,32,0,0,1,555
2648,5,1,88,5,0,0,1,531
2649,5,1,89,1,1,1,1,564
2650,5,1,90,32,1,1,1,618
2651,5,1,91,20,1,1,1,658
2652,5,1,92,20,0,0,1,576
2653,5,1,93,5,1,1,1,720
2654,5,1,94,5,0,0,1,691
2655,5,1,95,2,0,0,1,488
2656,5,1,96,2,0,0,1,417
2657,5,1,97,2,0,0,1,391
2658,5,1,98,2,0,0,1,372
2659,5,1,99,20,0,0,1,490
2660,5,1,100,2,1,1,1,487
2661,5,1,101,32,1,1,1,461
2662,5,1,102,5,1,1,1,791
2663,5,1,103,32,1,1,1,697
2664,5,1,104,10,0,0,1,918
2665,5,1,105,5,1,1,1,562
2666,5,1,106,5,0,0,1,659
2667,5,1,107,32,0,0,1,664
2668,5,1,108,2,1,1,1,783
2669,5,1,109,32,0,0,1,837
2670,5,1,110,20,1,1,1,777
2671,5,1,111,20,0,0,1,623
2672,5,1,112,2,0,0,1,541
2673,5,1,113,10,1,1,1,554
2674,5,1,114,32,1,1,1,722
2675,5,1,115,5,0,0,1,473
2676,5,1,116,10,0,0,1,614
2677,5,1,117,10,1,1,1,554
2678,5,1,118,2,1,1,1,672
2679,5,1,119,32,1,1,1,770
2680,5,1,120,32,0,0,1,565
2681,5,1,121,2,0,0,1,565
2682,5,1,122,5,1,1,1,564
2683,5,1,123,2,1,1,1,646
2684,5,1,124,2,0,0,1,579
2685,5,1,125,5,1,1,1,640
2686,5,1,126,10,1,1,1,607
2687,5,1,127,1,1,1,1,501
2688,5,1,128,32,0,0,1,675
2689,5,1,129,2,1,1,1,643
2690,5,1,130,32,0,0,1,630
2691,5,1,131,10,1,1,1,670
2692,5,1,132,5,1,1,1,565
2693,5,1,133,2,1,1,1,489
2694,5,1,134,32,1,1,1,534
2695,5,1,135,20,0,0,1,698
2696,5,1,136,2,1,1,1,481
2697,5,1,137,2,1,1,1,638
2698,5,1,138,1,0,0,1,813
2699,5,1,139,10,0,0,1,443
2700,5,1,140,2,1,1,1,542
2701,5,1,141,20,0,0,1,526
2702,5,1,142,10,1,1,1,669
2703,5,1,143,5,0,0,1,693
2704,5,1,144,2,0,0,1,693
2705,5,1,145,5,1,1,1,555
2706,5,1,146,32,0,0,1,594
2707,5,1,147,10,1,1,1,632
2708,5,1,148,20,0,0,1,644
2709,5,1,149,2,0,0,1,619
2710,5,1,150,2,1,1,1,553
2711,5,1,151,5,0,0,1,997
2712,5,1,152,32,0,0,1,754
2713,5,1,153,20,1,1,1,618
2714,5,1,154,32,1,1,1,604
2715,5,1,155,10,1,1,1,580
2716,5,1,156,20,1,1,1,635
2717,5,1,157,32,1,1,1,565
2718,5,1,158,1,1,1,1,504
2719,5,1,159,5,1,1,1,731
2720,5,1,160,10,1,1,1,461
2721,5,1,161,10,0,0,1,813
2722,5,1,162,20,1,1,1,558
2723,5,1,163,20,0,0,1,576
2724,5,1,164,32,1,1,1,614
2725,5,1,165,32,0,0,1,487
2726,5,1,166,20,1,1,1,556
2727,5,1,167,20,0,0,1,754
2728,5,1,168,20,0,0,1,603
2729,5,1,169,5,1,1,1,553
2730,5,1,170,20,0,0,1,623
2731,5,1,171,5,1,1,1,447
2732,5,1,172,5,0,0,1,809
2733,5,1,173,10,0,0,1,688
2734,5,1,174,10,1,1,1,532
2735,5,1,175,20,1,1,1,576
2736,5,1,176,32,1,1,1,692
2737,5,1,177,32,1,1,1,561
2738,5,1,178,5,0,0,1,653
2739,5,1,179,20,0,0,1,774
2740,5,1,180,5,1,1,1,592
2741,5,1,181,5,1,1,1,675
2742,5,1,182,5,1,1,1,602
2743,5,1,183,32,1,1,1,498
2744,5,1,184,20,0,0,1,618
2745,5,1,185,2,1,1,1,509
2746,5,1,186,5,0,0,1,462
2747,5,1,187,5,1,1,1,491
2748,5,1,188,20,0,0,1,689
2749,5,1,189,20,1,1,1,540
2750,5,1,190,20,1,1,1,540
2751,5,1,191,1,1,1,1,456
2752,5,1,192,5,0,0,1,525
2753,5,1,193,10,0,0,1,531
2754,5,1,194,10,0,0,1,684
2755,5,1,195,10,0,0,1,527
2756,5,1,196,20,0,0,1,673
2757,5,1,197,20,1,1,1,527
2758,5,1,198,5,1,1,1,774
2759,5,1,199,20,1,1,1,552
2760,5,1,200,5,0,0,1,750
2761,5,1,201,32,1,1,1,663
2762,5,1,202,5,0,0,1,514
2763,5,1,203,32,1,1,1,547
2764,5,1,204,2,0,0,1,646
2765,5,1,205,2,0,0,1,565
2766,5,1,206,32,0,0,1,509
2767,5,1,207,20,1,1,1,444
2768,5,1,208,1,0,0,1,427
2769,5,1,209,20,1,1,1,566
2770,5,1,210,10,1,1,1,582
2771,5,1,211,32,1,1,1,629
2772,5,1,212,32,1,1,1,694
2773,5,1,213,32,1,1,1,738
2774,5,1,214,20,1,1,1,810
2775,5,1,215,20,1,1,1,509
2776,5,1,216,20,1,1,1,403
2777,5,1,217,1,0,0,1,470
2778,5,1,218,2,1,1,1,696
2779,5,1,219,32,0,0,1,708
2780,5,1,220,20,1,1,1,718
2781,5,1,221,5,0,0,1,564
2782,5,1,222,5,1,1,1,694
2783,5,1,223,5,1,1,1,707
2784,5,1,224,32,1,1,1,554
2785,5,1,225,5,1,1,1,493
2786,5,1,226,32,1,1,1,503
2787,5,1,227,10,0,0,1,666
2788,5,1,228,2,1,1,1,543
2789,5,1,229,2,1,1,1,530
2790,5,1,230,20,0,0,1,716
2791,5,1,231,2,0,0,1,601
2792,5,1,232,2,0,0,1,577
2793,5,1,233,32,0,0,1,516
2794,5,1,234,1,0,0,1,582
2795,5,1,235,32,1,1,1,566
2796,5,1,236,2,0,0,1,645
2797,5,1,237,20,0,0,1,616
2798,5,1,238,2,0,0,1,696
2799,5,1,239,32,0,0,1,453
2800,5,1,240,20,0,0,1,686
2801,5,1,241,10,0,0,1,599
2802,5,1,242,10,1,1,1,558
2803,5,1,243,32,0,0,1,466
2804,5,1,244,10,0,0,1,440
2805,5,1,245,1,1,1,1,465
2806,5,1,246,5,1,1,1,472
2807,5,1,247,32,0,0,1,579
2808,5,1,248,32,0,0,1,511
2809,5,1,249,5,0,0,1,613
2810,5,1,250,20,0,0,1,502
2811,5,1,251,32,1,1,1,601
2812,5,1,252,32,0,0,1,692
2813,5,1,253,20,0,0,1,557
2814,5,1,254,32,0,0,1,653
2815,5,1,255,20,0,0,1,1044
2816,5,1,256,2,1,1,1,567
2817,5,1,257,2,0,0,1,469
2818,5,1,258,20,1,1,1,501
2819,5,1,259,10,1,1,1,515
2820,5,1,260,20,1,1,1,502
2821,5,1,261,5,0,0,1,723
2822,5,1,262,10,1,1,1,889
2823,5,1,263,1,0,0,1,455
2824,5,1,264,2,0,0,1,568
2825,5,1,265,1,1,1,1,459
2826,5,1,266,2,1,1,1,496
2827,5,1,267,20,1,1,1,444
2828,5,1,268,10,0,0,1,492
2829,5,1,269,20,0,0,1,528
2830,5,1,270,10,1,1,1,441
2831,5,1,271,5,0,0,1,402
2832,5,1,272,32,1,1,1,578
2833,5,1,273,10,1,1,1,439
2834,5,1,274,10,0,0,1,536
2835,5,1,275,32,0,0,1,675
2836,5,1,276,5,0,0,1,634
2837,5,1,277,20,1,1,1,484
2838,5,1,278,2,0,0,1,754
2839,5,1,279,1,1,1,1,621
2840,5,1,280,5,0,0,1,457
2841,5,1,281,20,0,0,1,582
2842,5,1,282,20,0,0,1,603
2843,5,1,283,2,1,1,1,442
2844,5,1,284,10,1,1,1,471
2845,5,1,285,10,1,1,1,404
2846,5,1,286,20,1,1,1,503
2847,5,1,287,5,0,0,1,536
2848,5,1,288,2,1,1,1,546
2849,5,1,289,20,1,1,1,428
2850,5,1,290,20,1,1,1,523
2851,5,1,291,10,0,0,1,581
2852,5,1,292,2,1,1,1,570
2853,5,1,293,2,1,1,1,954
2854,5,1,294,2,1,1,1,439
2855,5,1,295,2,0,0,1,562
2856,5,1,296,2,0,0,1,511
2857,5,1,297,2,1,1,1,398
2858,5,1,298,32,1,1,1,567
2859,5,1,299,32,0,0,1,571
2860,5,1,300,20,0,0,1,603
2861,5,1,301,2,0,0,1,407
2862,5,1,302,1,0,0,1,427
2863,5,1,303,10,1,1,1,676
2864,5,1,304,5,1,1,1,465
2865,5,1,305,2,0,0,1,474
2866,5,1,306,1,0,0,1,486
2867,5,1,307,2,1,1,1,350
2868,5,1,308,5,0,0,1,352
2869,5,1,309,32,1,1,1,492
2870,5,1,310,32,0,0,1,655
2871,5,1,311,5,0,0,1,662
2872,5,1,312,5,1,1,1,392
2873,5,1,313,10,1,1,1,566
2874,5,1,314,10,0,0,1,537
2875,5,1,315,10,0,0,1,538
2876,5,1,316,20,1,1,1,503
2877,5,1,317,5,0,0,1,431
2878,5,1,318,5,1,1,1,528
2879,5,1,319,20,0,0,1,493
2880,5,1,320,10,0,0,1,612
2881,5,1,321,10,1,1,1,631
2882,5,1,322,2,0,0,1,639
2883,5,1,323,2,0,0,1,764
2884,5,1,324,32,0,0,1,526
2885,5,1,325,5,1,1,1,412
2886,5,1,326,20,0,0,1,570
2887,5,1,327,2,1,1,1,507
2888,5,1,328,1,0,0,1,511
2889,5,1,329,5,1,1,1,565
2890,5,1,330,1,1,1,1,431
2891,5,1,331,2,0,0,0,697
2892,5,1,332,2,1,1,1,553
2893,5,1,333,10,0,0,1,540
2894,5,1,334,20,1,1,1,816
2895,5,1,335,32,0,0,1,701
2896,5,1,336,20,0,0,1,993
2897,5,1,337,2,1,1,1,480
2898,5,1,338,32,1,1,1,539
2899,5,1,339,20,0,0,1,539
2900,5,1,340,2,1,1,1,459
2901,5,1,341,20,1,1,1,492
2902,5,1,342,2,1,1,1,503
2903,5,1,343,10,0,0,1,530
2904,5,1,344,2,1,1,1,539
2905,5,1,345,20,1,1,1,522
2906,5,1,346,32,0,0,1,667
2907,5,1,347,32,1,1,1,968
2908,5,1,348,20,1,1,1,623
2909,5,1,349,20,1,1,1,651
2910,5,1,350,1,0,0,1,608
2911,5,1,351,32,0,0,1,613
2912,5,1,352,10,0,0,1,495
2913,5,1,353,10,0,0,1,414
2914,5,1,354,2,1,1,1,392
2915,5,1,355,2,0,0,1,645
2916,5,1,356,10,1,1,1,597
2917,5,1,357,2,1,1,1,403
2918,5,1,358,32,1,1,1,671
2919,5,1,359,32,1,1,1,511
2920,5,1,360,20,0,0,1,637
2921,5,1,361,1,0,0,1,565
2922,5,1,362,2,1,1,1,440
2923,5,1,363,2,0,0,1,391
2924,5,1,364,5,0,0,1,681
2925,5,1,365,20,1,1,1,478
2926,5,1,366,10,1,1,1,609
2927,5,1,367,2,1,1,1,585
2928,5,1,368,10,1,1,1,608
2929,5,1,369,5,1,1,1,418
2930,5,1,370,5,0,0,1,769
2931,5,1,371,1,1,1,1,495
2932,5,1,372,20,0,0,1,512
2933,5,1,373,20,0,0,1,483
2934,5,1,374,20,1,1,1,734
2935,5,1,375,2,1,1,1,597
2936,5,1,376,20,0,0,1,719
2937,5,1,377,10,1,1,1,626
2938,5,1,378,32,0,0,1,631
2939,5,1,379,5,0,0,1,576
2940,5,1,380,5,1,1,1,733
2941,5,1,381,20,1,1,1,433
2942,5,1,382,32,1,1,1,591
2943,5,1,383,1,0,0,1,519
2944,5,1,384,32,0,0,1,680
2945,5,1,385,10,1,1,1,501
2946,5,1,386,2,1,1,1,649
2947,5,1,387,10,0,0,1,947
2948,5,1,388,2,0,0,1,515
2949,5,1,389,10,1,1,1,587
2950,5,1,390,2,0,0,1,444
2951,5,1,391,20,0,0,1,496
2952,5,1,392,1,1,1,1,435
2953,5,1,393,2,0,0,1,400
2954,5,1,394,1,1,1,1,437
2955,5,1,395,5,0,0,1,564
2956,5,1,396,32,0,0,1,492
2957,5,1,397,32,1,1,1,622
2958,5,1,398,1,0,0,1,642
2959,5,1,399,20,0,0,1,482
2960,5,1,400,10,1,1,1,628
2961,5,1,401,10,1,1,1,523
2962,5,1,402,10,1,1,1,420
2963,5,1,403,32,0,0,1,494
2964,5,1,404,32,1,1,1,582
2965,5,1,405,20,1,1,1,510
2966,5,1,406,5,1,1,1,428
2967,5,1,407,2,0,0,1,411
2968,5,1,408,32,1,1,1,483
2969,5,1,409,5,1,1,1,485
2970,5,1,410,10,0,0,1,600
2971,5,1,411,32,1,1,1,537
2972,5,1,412,20,0,0,1,672
2973,5,1,413,20,0,0,1,550
2974,5,1,414,2,0,0,1,546
2975,5,1,415,32,0,0,1,674
2976,5,1,416,5,0,0,1,485
2977,5,1,417,20,0,0,1,400
2978,5,1,418,10,1,1,1,677
2979,5,1,419,5,1,1,1,582
2980,5,1,420,32,0,0,1,557
2981,5,1,421,1,1,1,1,529
2982,5,1,422,32,0,0,1,597
2983,5,1,423,32,0,0,1,671
2984,5,1,424,1,1,1,1,701
2985,5,1,425,10,0,0,1,855
2986,5,1,426,2,0,0,1,594
2987,5,1,427,20,0,0,1,393
2988,5,1,428,2,0,0,1,586
2989,5,1,429,5,1,1,1,956
2990,5,1,430,1,0,0,1,778
2991,5,1,431,10,0,0,1,599
2992,5,1,432,10,0,0,1,486
2993,5,1,433,2,0,0,1,451
2994,5,1,434,32,1,1,1,493
2995,5,1,435,5,0,0,1,599
2996,5,1,436,2,0,0,1,411
2997,5,1,437,10,0,0,1,866
2998,5,1,438,20,0,0,1,523
2999,5,1,439,2,1,1,1,547
3000,5,1,440,32,0,0,1,632
3001,5,1,441,5,1,1,1,464
3002,5,1,442,5,0,0,1,476
3003,5,1,443,10,0,0,0,359
3004,5,1,444,5,0,0,1,637
3005,5,1,445,20,0,0,1,520
3006,5,1,446,10,0,0,1,459
3007,5,1,447,20,1,1,1,490
3008,5,1,448,32,1,1,1,665
3009,5,1,449,5,0,0,1,554
3010,5,1,450,10,1,1,1,491
3011,5,1,451,32,0,0,1,566
3012,5,1,452,1,1,1,1,474
3013,5,1,453,20,1,1,1,539
3014,5,1,454,5,1,1,1,593
3015,5,1,455,20,1,1,1,436
3016,5,1,456,32,0,0,1,627
3017,5,1,457,20,0,0,1,588
3018,5,1,458,20,0,0,1,493
3019,5,1,459,32,0,0,1,489
3020,5,1,460,32,0,0,1,540
3021,5,1,461,20,1,1,1,582
3022,5,1,462,20,1,1,1,517
3023,5,1,463,20,1,1,1,501
3024,5,1,464,32,0,0,1,469
3025,5,1,465,2,0,0,1,541
3026,5,1,466,2,1,1,1,438
3027,5,1,467,10,0,0,1,706
3028,5,1,468,10,1,1,1,589
3029,5,1,469,2,0,0,1,683
3030,5,1,470,20,1,1,1,565
3031,5,1,471,32,0,0,1,497
3032,5,1,472,10,1,1,1,488
3033,5,1,473,20,0,0,1,524
3034,5,1,474,10,0,0,1,618
3035,5,1,475,5,0,0,1,566
3036,5,1,476,2,1,1,1,428
3037,5,1,477,5,0,0,1,528
3038,5,1,478,32,0,0,1,535
3039,5,1,479,5,1,1,1,517
3040,5,1,480,2,1,1,1,449
3041,5,1,481,32,0,0,1,598
3042,5,1,482,10,0,0,1,395
3043,5,1,483,10,0,0,1,838
3044,5,1,484,5,1,1,1,474
3045,5,1,485,20,0,0,1,746
3046,5,1,486,32,1,1,1,583
3047,5,1,487,5,0,0,1,424
3048,5,1,488,10,0,0,1,457
3049,5,1,489,10,1,1,1,477
3050,5,1,490,20,0,0,1,605
3051,5,1,491,2,0,0,1,503
3052,5,1,492,5,0,0,1,581
3053,5,1,493,5,1,1,1,557
3054,5,1,494,10,0,0,1,535
3055,5,1,495,2,0,0,1,416
3056,5,1,496,2,1,1,1,591
3057,5,1,497,10,0,0,1,575
3058,5,1,498,2,0,0,1,414
3059,5,1,499,5,1,1,1,515
3060,5,1,500,10,0,0,1,636
3061,5,1,501,5,1,1,1,602
3062,5,1,502,5,1,1,1,505
3063,5,1,503,32,0,0,1,438
3064,5,1,504,10,0,0,1,471
3065,5,1,505,20,1,1,1,703
3066,5,1,506,10,0,0,1,589
3067,5,1,507,32,1,1,1,582
3068,5,1,508,20,0,0,1,613
3069,5,1,509,10,1,1,1,558
3070,5,1,510,32,0,0,1,1139
3071,5,1,511,5,1,1,1,554
3072,5,1,512,20,1,1,1,543
3073,5,1,513,20,0,0,1,668
3074,5,1,514,10,0,0,1,477
3075,5,1,515,1,0,0,1,648
3076,5,1,516,32,1,1,1,507
3077,5,1,517,2,1,1,1,552
3078,5,1,518,5,0,0,1,511
3079,5,1,519,32,1,1,1,682
3080,5,1,520,5,0,0,1,505
3081,5,1,521,32,1,1,1,599
3082,5,1,522,1,1,1,1,444
3083,5,1,523,20,0,0,1,505
3084,5,1,524,5,0,0,1,583
3085,5,1,525,5,1,1,1,644
3086,5,1,526,20,0,0,1,552
3087,5,1,527,10,1,1,1,473
3088,5,1,528,10,1,1,1,678
3089,5,1,529,10,1,1,1,553
3090,5,1,530,20,1,1,1,604
3091,5,1,531,10,1,1,1,741
3092,5,1,532,20,1,1,1,459
3093,5,1,533,5,0,0,1,560
3094,5,1,534,32,1,1,1,503
3095,5,1,535,2,0,0,0,560
3096,5,1,536,20,1,1,1,537
3097,5,1,537,5,1,1,1,699
3098,5,1,538,2,0,0,1,495
3099,5,1,539,32,1,1,1,547
3100,5,1,540,10,0,0,1,482
3101,5,1,541,32,1,1,1,862
3102,5,1,542,32,1,1,1,519
3103,5,1,543,20,0,0,1,628
3104,5,1,544,5,0,0,1,551
3105,5,1,545,2,0,0,1,438
3106,5,1,546,20,0,0,1,834
3107,5,1,547,20,1,1,1,616
3108,5,1,548,2,0,0,1,625
3109,5,1,549,10,1,1,1,608
3110,5,1,550,10,0,0,1,929
3111,5,1,551,32,0,0,1,481
3112,5,1,552,5,0,0,1,457
3113,5,1,553,20,1,1,1,499
3114,5,1,554,5,1,1,1,453
3115,5,1,555,20,1,1,1,600
3116,5,1,556,20,1,1,0,584
3117,5,1,557,10,1,1,1,886
3118,5,1,558,2,0,0,1,859
3119,5,1,559,10,0,0,1,587
3120,5,1,560,32,0,0,1,657
3121,5,1,561,2,0,0,1,1056
3122,5,1,562,2,1,1,1,463
3123,5,1,563,2,1,1,1,368
3124,5,1,564,2,0,0,1,732
3125,5,1,565,1,0,0,1,373
3126,5,1,566,10,0,0,1,599
3127,5,1,567,5,1,1,1,524
3128,5,1,568,2,0,0,1,564
3129,5,1,569,20,1,1,1,553
3130,5,1,570,32,1,1,1,683
3131,5,1,571,2,0,0,1,625
3132,5,1,572,2,1,1,1,685
3133,5,1,573,2,0,0,1,501
3134,5,1,574,32,1,1,1,630
3135,5,1,575,10,0,0,1,539
3136,5,1,576,2,0,0,1,573
3137,5,1,577,2,1,1,1,475
3138,5,1,578,1,1,1,1,406
3139,5,1,579,1,1,1,1,666
3140,5,1,580,1,0,0,1,467
3141,5,1,581,2,1,1,1,552
3142,5,1,582,32,1,1,1,476
3143,5,1,583,10,0,0,1,641
3144,5,1,584,2,0,0,1,697
3145,5,1,585,5,0,0,1,515
3146,5,1,586,5,1,1,1,483
3147,5,1,587,10,0,0,1,787
3148,5,1,588,10,1,1,1,518
3149,5,1,589,32,0,0,1,471
3150,5,1,590,2,0,0,1,468
3151,5,1,591,2,1,1,1,586
3152,5,1,592,10,1,1,1,510
3153,5,1,593,20,0,0,1,580
3154,5,1,594,1,0,0,1,381
3155,5,1,595,5,0,0,1,594
3156,5,1,596,1,1,1,1,636
3157,5,1,597,5,1,1,1,718
3158,5,1,598,20,0,0,1,715
3159,5,1,599,20,1,1,1,846
3160,5,1,600,2,1,1,1,547
3161,5,1,601,2,1,1,1,452
3162,5,1,602,5,1,1,1,556
3163,5,1,603,5,0,0,1,577
3164,5,1,604,32,1,1,1,583
3165,5,1,605,2,0,0,1,598
3166,5,1,606,10,0,0,1,509
3167,5,1,607,10,1,1,1,495
3168,5,1,608,10,1,1,1,558
3169,5,1,609,20,1,1,1,562
3170,5,1,610,5,1,1,1,775
3171,5,1,611,5,1,1,1,546
3172,5,1,612,5,0,0,1,518
3173,5,1,613,5,1,1,1,415
3174,5,1,614,2,0,0,1,473
3175,5,1,615,32,1,1,1,454
3176,5,1,616,20,0,0,1,659
3177,5,1,617,1,0,0,1,560
3178,5,1,618,20,1,1,1,598
3179,5,1,619,10,0,0,1,556
3180,5,1,620,32,0,0,1,442
3181,5,1,621,5,0,0,1,464
3182,5,1,622,10,1,1,1,708
3183,5,1,623,2,1,1,1,465
3184,5,1,624,10,1,1,1,437
3185,5,1,625,10,0,0,1,668
3186,5,1,626,5,0,0,1,691
3187,5,1,627,32,0,0,1,697
3188,5,1,628,10,1,1,1,748
3189,5,1,629,32,0,0,1,583
3190,5,1,630,20,0,0,1,510
3191,5,1,631,2,1,1,1,562
3192,5,1,632,32,0,0,1,537
3193,5,1,633,10,0,0,1,450
3194,5,1,634,2,0,0,1,580
3195,5,1,635,32,0,0,1,746
3196,5,1,636,5,1,1,1,629
3197,5,1,637,1,1,1,1,492
3198,5,1,638,32,1,1,1,760
3199,5,1,639,20,0,0,1,915
3200,5,1,640,32,0,0,1,672
3201,6,1,1,32,0,0,1,712
3202,6,1,2,10,1,1,1,575
3203,6,1,3,2,0,0,1,824
3204,6,1,4,10,1,1,1,638
3205,6,1,5,32,1,1,1,633
3206,6,1,6,10,1,1,1,541
3207,6,1,7,10,1,1,1,614
3208,6,1,8,10,0,0,1,508
3209,6,1,9,10,0,0,1,574
3210,6,1,10,20,1,1,1,517
3211,6,1,11,5,0,0,1,519
3212,6,1,12,10,1,1,1,638
3213,6,1,13,20,0,0,1,914
3214,6,1,14,2,0,0,1,626
3215,6,1,15,5,1,1,1,610
3216,6,1,16,1,0,0,1,519
3217,6,1,17,10,1,1,1,565
3218,6,1,18,5,0,0,1,657
3219,6,1,19,20,0,0,1,566
3220,6,1,20,32,1,1,1,591
3221,6,1,21,5,1,1,1,595
3222,6,1,22,10,1,1,1,571
3223,6,1,23,10,0,0,1,674
3224,6,1,24,32,1,1,1,922
3225,6,1,25,32,1,1,1,695
3226,6,1,26,5,1,1,1,641
3227,6,1,27,1,1,1,1,523
3228,6,1,28,5,1,1,1,504
3229,6,1,29,20,1,1,1,581
3230,6,1,30,32,1,1,1,561
3231,6,1,31,5,1,1,1,664
3232,6,1,32,20,1,1,1,688
3233,6,1,33,1,0,0,1,562
3234,6,1,34,5,0,0,1,653
3235,6,1,35,2,1,1,1,653
3236,6,1,36,5,0,0,1,605
3237,6,1,37,5,0,0,1,737
3238,6,1,38,10,0,0,1,614
3239,6,1,39,10,1,1,1,753
3240,6,1,40,10,1,1,1,559
3241,6,1,41,32,0,0,1,660
3242,6,1,42,1,0,0,1,474
3243,6,1,43,1,1,1,1,779
3244,6,1,44,32,1,1,1,583
3245,6,1,45,20,1,1,1,557
3246,6,1,46,32,0,0,1,620
3247,6,1,47,10,0,0,1,578
3248,6,1,48,5,1,1,1,556
3249,6,1,49,5,0,0,1,777
3250,6,1,50,10,0,0,1,567
3251,6,1,51,5,1,1,1,594
3252,6,1,52,10,1,1,1,738
3253,6,1,53,2,0,0,1,761
3254,6,1,54,5,1,1,1,537
3255,6,1,55,20,0,0,1,855
3256,6,1,56,20,0,0,1,611
3257,6,1,57,2,1,1,1,878
3258,6,1,58,32,1,1,1,557
3259,6,1,59,2,0,0,1,729
3260,6,1,60,20,0,0,1,586
3261,6,1,61,32,0,0,1,550
3262,6,1,62,10,0,0,1,712
3263,6,1,63,32,0,0,1,452
3264,6,1,64,20,1,1,1,448
3265,6,1,65,20,0,0,1,481
3266,6,1,66,20,0,0,1,501
3267,6,1,67,10,0,0,1,414
3268,6,1,68,20,1,1,1,662
3269,6,1,69,32,1,1,1,505
3270,6,1,70,32,0,0,1,697
3271,6,1,71,32,1,1,1,605
3272,6,1,72,1,0,0,1,434
3273,6,1,73,5,1,1,1,521
3274,6,1,74,5,0,0,1,449
3275,6,1,75,32,1,1,1,490
3276,6,1,76,20,0,0,0,674
3277,6,1,77,32,0,0,1,553
3278,6,1,78,5,1,1,1,587
3279,6,1,79,20,1,1,1,834
3280,6,1,80,10,0,0,1,951
3281,6,1,81,2,0,0,1,710
3282,6,1,82,20,1,1,1,622
3283,6,1,83,5,1,1,1,552
3284,6,1,84,5,0,0,1,579
3285,6,1,85,10,1,1,1,531
3286,6,1,86,5,1,1,1,494
3287,6,1,87,2,0,0,1,462
3288,6,1,88,5,0,0,1,611
3289,6,1,89,1,1,1,1,577
3290,6,1,90,20,0,0,1,456
3291,6,1,91,5,0,0,1,469
3292,6,1,92,10,0,0,1,535
3293,6,1,93,5,0,0,1,624
3294,6,1,94,1,1,1,1,871
3295,6,1,95,5,1,1,1,529
3296,6,1,96,10,0,0,1,874
3297,6,1,97,2,0,0,1,725
3298,6,1,98,1,1,1,1,667
3299,6,1,99,2,0,0,1,658
3300,6,1,100,32,1,1,1,779
3301,6,1,101,2,1,1,1,521
3302,6,1,102,2,0,0,1,684
3303,6,1,103,32,1,1,1,662
3304,6,1,104,5,0,0,1,698
3305,6,1,105,1,0,0,1,514
3306,6,1,106,20,1,1,1,620
3307,6,1,107,32,1,1,1,586
3308,6,1,108,20,0,0,1,668
3309,6,1,109,1,0,0,1,472
3310,6,1,110,5,0,0,1,547
3311,6,1,111,10,1,1,1,825
3312,6,1,112,32,1,1,1,648
3313,6,1,113,20,1,1,1,576
3314,6,1,114,2,1,1,1,729
3315,6,1,115,32,0,0,1,769
3316,6,1,116,10,0,0,1,574
3317,6,1,117,2,1,1,1,758
3318,6,1,118,2,0,0,1,430
3319,6,1,119,10,1,1,1,577
3320,6,1,120,5,0,0,1,640
3321,6,1,121,2,0,0,1,811
3322,6,1,122,10,0,0,1,566
3323,6,1,123,2,1,1,1,655
3324,6,1,124,20,1,1,1,564
3325,6,1,125,5,0,0,1,511
3326,6,1,126,2,0,0,1,497
3327,6,1,127,20,1,1,1,695
3328,6,1,128,10,0,0,1,683
3329,6,1,129,20,1,1,1,646
3330,6,1,130,20,1,1,1,669
3331,6,1,131,5,0,0,1,608
3332,6,1,132,1,1,1,1,568
3333,6,1,133,5,0,0,1,1245
3334,6,1,134,5,1,1,1,623
3335,6,1,135,20,0,0,1,764
3336,6,1,136,5,1,1,1,788
3337,6,1,137,32,1,1,1,606
3338,6,1,138,10,0,0,1,562
3339,6,1,139,2,1,1,1,1063
3340,6,1,140,5,0,0,1,663
3341,6,1,141,2,1,1,1,1048
3342,6,1,142,32,1,1,1,772
3343,6,1,143,2,0,0,1,695
3344,6,1,144,20,0,0,1,690
3345,6,1,145,10,0,0,1,854
3346,6,1,146,20,0,0,1,708
3347,6,1,147,1,0,0,1,655
3348,6,1,148,2,0,0,1,608
3349,6,1,149,10,1,1,1,640
3350,6,1,150,32,0,0,1,557
3351,6,1,151,10,0,0,1,613
3352,6,1,152,2,1,1,1,604
3353,6,1,153,10,1,1,1,722
3354,6,1,154,2,0,0,1,726
3355,6,1,155,5,1,1,1,660
3356,6,1,156,2,1,1,1,605
3357,6,1,157,2,1,1,1,845
3358,6,1,158,2,1,1,1,665
3359,6,1,159,2,0,0,1,905
3360,6,1,160,2,1,1,1,524
3361,6,1,161,5,0,0,1,602
3362,6,1,162,32,1,1,1,939
3363,6,1,163,32,0,0,1,687
3364,6,1,164,2,0,0,1,547
3365,6,1,165,20,0,0,1,520
3366,6,1,166,32,1,1,1,690
3367,6,1,167,2,0,0,1,614
3368,6,1,168,32,1,1,1,591
3369,6,1,169,20,1,1,1,867
3370,6,1,170,32,1,1,1,681
3371,6,1,171,5,1,1,1,718
3372,6,1,172,2,0,0,1,602
3373,6,1,173,2,0,0,1,490
3374,6,1,174,10,1,1,1,599
3375,6,1,175,20,1,1,1,633
3376,6,1,176,10,1,1,1,713
3377,6,1,177,20,0,0,1,603
3378,6,1,178,20,0,0,1,503
3379,6,1,179,10,1,1,1,881
3380,6,1,180,32,0,0,1,634
3381,6,1,181,10,0,0,1,765
3382,6,1,182,5,1,1,1,907
3383,6,1,183,32,1,1,1,619
3384,6,1,184,2,1,1,1,612
3385,6,1,185,32,1,1,1,684
3386,6,1,186,20,0,0,1,804
3387,6,1,187,1,0,0,1,490
3388,6,1,188,20,1,1,1,545
3389,6,1,189,1,0,0,1,469
3390,6,1,190,32,1,1,1,604
3391,6,1,191,32,1,1,1,601
3392,6,1,192,20,0,0,1,653
3393,6,1,193,20,1,1,1,792
3394,6,1,194,20,1,1,1,519
3395,6,1,195,32,0,0,1,531
3396,6,1,196,2,0,0,1,571
3397,6,1,197,32,1,1,1,1007
3398,6,1,198,5,0,0,1,659
3399,6,1,199,10,0,0,1,544
3400,6,1,200,20,1,1,1,720
3401,6,1,201,10,1,1,1,664
3402,6,1,202,5,0,0,1,551
3403,6,1,203,20,1,1,1,468
3404,6,1,204,2,1,1,1,459
3405,6,1,205,10,0,0,1,602
3406,6,1,206,5,1,1,1,627
3407,6,1,207,2,0,0,1,476
3408,6,1,208,5,1,1,1,589
3409,6,1,209,32,1,1,1,631
3410,6,1,210,32,0,0,1,641
3411,6,1,211,10,0,0,1,663
3412,6,1,212,10,0,0,1,523
3413,6,1,213,1,0,0,1,441
3414,6,1,214,5,0,0,1,520
3415,6,1,215,20,0,0,1,551
3416,6,1,216,32,0,0,1,647
3417,6,1,217,2,0,0,1,658
3418,6,1,218,20,0,0,1,1024
3419,6,1,219,1,0,0,1,459
3420,6,1,220,2,1,1,1,558
3421,6,1,221,32,1,1,1,581
3422,6,1,222,20,0,0,1,613
3423,6,1,223,32,0,0,1,588
3424,6,1,224,2,0,0,1,645
3425,6,1,225,10,1,1,1,659
3426,6,1,226,1,0,0,1,470
3427,6,1,227,10,0,0,1,401
3428,6,1,228,2,1,1,1,607
3429,6,1,229,2,1,1,1,479
3430,6,1,230,2,1,1,1,532
3431,6,1,231,10,1,1,1,589
3432,6,1,232,2,0,0,1,924
3433,6,1,233,20,0,0,1,656
3434,6,1,234,1,1,1,1,697
3435,6,1,235,1,0,0,1,505
3436,6,1,236,5,1,1,1,635
3437,6,1,237,20,0,0,1,686
3438,6,1,238,5,0,0,1,645
3439,6,1,239,10,0,0,1,622
3440,6,1,240,20,0,0,1,666
3441,6,1,241,20,0,0,1,568
3442,6,1,242,5,0,0,1,540
3443,6,1,243,5,0,0,1,447
3444,6,1,244,10,1,1,1,657
3445,6,1,245,20,0,0,1,681
3446,6,1,246,20,1,1,1,579
3447,6,1,247,5,1,1,1,478
3448,6,1,248,32,0,0,1,561
3449,6,1,249,2,0,0,1,435
3450,6,1,250,20,0,0,1,532
3451,6,1,251,1,1,1,1,529
3452,6,1,252,32,1,1,1,691
3453,6,1,253,20,0,0,1,758
3454,6,1,254,32,0,0,1,555
3455,6,1,255,2,0,0,1,632
3456,6,1,256,20,0,0,1,591
3457,6,1,257,32,1,1,1,658
3458,6,1,258,10,0,0,1,495
3459,6,1,259,5,0,0,1,505
3460,6,1,260,20,1,1,1,826
3461,6,1,261,20,1,1,1,665
3462,6,1,262,5,0,0,1,600
3463,6,1,263,20,1,1,1,650
3464,6,1,264,32,0,0,1,811
3465,6,1,265,10,0,0,1,694
3466,6,1,266,5,0,0,1,775
3467,6,1,267,5,1,1,1,712
3468,6,1,268,5,1,1,1,446
3469,6,1,269,20,1,1,1,519
3470,6,1,270,10,1,1,1,656
3471,6,1,271,5,0,0,1,514
3472,6,1,272,5,1,1,1,515
3473,6,1,273,32,1,1,1,721
3474,6,1,274,32,0,0,1,514
3475,6,1,275,20,0,0,1,678
3476,6,1,276,2,1,1,1,652
3477,6,1,277,20,0,0,1,543
3478,6,1,278,2,0,0,1,601
3479,6,1,279,20,1,1,1,733
3480,6,1,280,5,1,1,1,641
3481,6,1,281,32,1,1,1,484
3482,6,1,282,10,1,1,1,632
3483,6,1,283,10,1,1,1,478
3484,6,1,284,10,1,1,1,451
3485,6,1,285,5,0,0,1,497
3486,6,1,286,20,0,0,1,605
3487,6,1,287,1,1,1,1,426
3488,6,1,288,5,1,1,1,623
3489,6,1,289,2,1,1,1,459
3490,6,1,290,2,1,1,1,626
3491,6,1,291,32,0,0,1,791
3492,6,1,292,5,0,0,1,507
3493,6,1,293,10,0,0,1,565
3494,6,1,294,20,1,1,1,636
3495,6,1,295,32,1,1,1,569
3496,6,1,296,20,0,0,1,641
3497,6,1,297,1,1,1,1,821
3498,6,1,298,20,0,0,1,576
3499,6,1,299,10,1,1,1,618
3500,6,1,300,32,0,0,1,469
3501,6,1,301,2,1,1,1,572
3502,6,1,302,20,1,1,1,701
3503,6,1,303,5,0,0,1,516
3504,6,1,304,32,0,0,1,603
3505,6,1,305,1,0,0,1,602
3506,6,1,306,2,1,1,1,555
3507,6,1,307,20,1,1,1,697
3508,6,1,308,32,0,0,1,607
3509,6,1,309,2,0,0,1,564
3510,6,1,310,20,1,1,1,596
3511,6,1,311,20,1,1,1,868
3512,6,1,312,10,0,0,1,927
3513,6,1,313,5,0,0,1,694
3514,6,1,314,1,0,0,1,451
3515,6,1,315,20,1,1,1,711
3516,6,1,316,2,0,0,1,448
3517,6,1,317,5,1,1,1,531
3518,6,1,318,5,0,0,1,576
3519,6,1,319,32,0,0,1,721
3520,6,1,320,1,1,1,1,783
3521,6,1,321,5,0,0,1,602
3522,6,1,322,5,0,0,1,543
3523,6,1,323,32,0,0,1,844
3524,6,1,324,2,1,1,1,452
3525,6,1,325,20,1,1,1,527
3526,6,1,326,5,0,0,1,467
3527,6,1,327,32,0,0,1,565
3528,6,1,328,2,1,1,1,513
3529,6,1,329,32,0,0,1,522
3530,6,1,330,32,0,0,1,538
3531,6,1,331,2,1,1,1,764
3532,6,1,332,20,0,0,1,755
3533,6,1,333,20,0,0,1,737
3534,6,1,334,5,0,0,1,582
3535,6,1,335,20,0,0,1,591
3536,6,1,336,32,0,0,1,595
3537,6,1,337,32,1,1,1,941
3538,6,1,338,20,1,1,1,1023
3539,6,1,339,10,0,0,1,868
3540,6,1,340,32,1,1,1,687
3541,6,1,341,20,0,0,1,542
3542,6,1,342,5,1,1,1,527
3543,6,1,343,2,1,1,1,455
3544,6,1,344,5,1,1,1,600
3545,6,1,345,1,1,1,1,541
3546,6,1,346,20,0,0,1,585
3547,6,1,347,2,0,0,1,546
3548,6,1,348,2,0,0,1,456
3549,6,1,349,2,0,0,1,493
3550,6,1,350,10,0,0,1,536
3551,6,1,351,2,1,1,1,586
3552,6,1,352,10,0,0,1,552
3553,6,1,353,20,1,1,1,806
3554,6,1,354,10,0,0,1,541
3555,6,1,355,5,0,0,1,637
3556,6,1,356,10,1,1,1,682
3557,6,1,357,20,1,1,1,701
3558,6,1,358,20,1,1,1,617
3559,6,1,359,32,1,1,1,564
3560,6,1,360,10,0,0,1,566
3561,6,1,361,10,0,0,1,753
3562,6,1,362,2,1,1,0,497
3563,6,1,363,5,1,1,1,809
3564,6,1,364,10,0,0,1,855
3565,6,1,365,32,0,0,1,828
3566,6,1,366,10,0,0,1,534
3567,6,1,367,2,1,1,1,727
3568,6,1,368,10,1,1,1,606
3569,6,1,369,5,1,1,1,636
3570,6,1,370,2,1,1,1,677
3571,6,1,371,20,1,1,1,563
3572,6,1,372,2,0,0,1,932
3573,6,1,373,5,1,1,1,754
3574,6,1,374,32,0,0,1,558
3575,6,1,375,10,1,1,1,599
3576,6,1,376,32,0,0,1,894
3577,6,1,377,10,0,0,1,791
3578,6,1,378,32,0,0,1,592
3579,6,1,379,32,0,0,1,707
3580,6,1,380,5,1,1,1,851
3581,6,1,381,2,1,1,1,1028
3582,6,1,382,20,0,0,1,1040
3583,6,1,383,5,1,1,1,738
3584,6,1,384,10,1,1,1,576
3585,6,1,385,10,1,1,1,630
3586,6,1,386,10,1,1,1,624
3587,6,1,387,20,1,1,1,520
3588,6,1,388,32,0,0,1,965
3589,6,1,389,10,0,0,1,645
3590,6,1,390,1,1,1,1,867
3591,6,1,391,2,0,0,1,735
3592,6,1,392,20,0,0,1,519
3593,6,1,393,32,0,0,1,475
3594,6,1,394,5,0,0,1,493
3595,6,1,395,2,0,0,1,578
3596,6,1,396,32,0,0,1,635
3597,6,1,397,10,0,0,1,647
3598,6,1,398,5,1,1,1,633
3599,6,1,399,10,0,0,1,624
3600,6,1,400,5,0,0,1,520
3601,6,1,401,2,1,1,1,637
3602,6,1,402,2,1,1,1,627
3603,6,1,403,10,1,1,1,725
3604,6,1,404,20,0,0,1,663
3605,6,1,405,5,0,0,1,546
3606,6,1,406,2,0,0,1,423
3607,6,1,407,32,0,0,1,520
3608,6,1,408,5,1,1,1,644
3609,6,1,409,2,1,1,1,652
3610,6,1,410,20,0,0,1,563
3611,6,1,411,32,1,1,1,974
3612,6,1,412,2,0,0,1,616
3613,6,1,413,2,1,1,1,609
3614,6,1,414,2,1,1,1,719
3615,6,1,415,10,1,1,1,646
3616,6,1,416,5,0,0,1,521
3617,6,1,417,32,0,0,1,517
3618,6,1,418,1,1,1,1,717
3619,6,1,419,20,1,1,1,800
3620,6,1,420,10,1,1,1,614
3621,6,1,421,32,0,0,1,706
3622,6,1,422,10,1,1,1,635
3623,6,1,423,2,0,0,1,564
3624,6,1,424,1,1,1,1,802
3625,6,1,425,32,1,1,1,587
3626,6,1,426,10,0,0,1,582
3627,6,1,427,2,1,1,1,618
3628,6,1,428,2,0,0,1,602
3629,6,1,429,10,0,0,1,636
3630,6,1,430,32,1,1,1,702
3631,6,1,431,5,1,1,1,699
3632,6,1,432,32,0,0,1,562
3633,6,1,433,10,0,0,1,467
3634,6,1,434,32,1,1,1,700
3635,6,1,435,20,1,1,1,626
3636,6,1,436,5,1,1,1,652
3637,6,1,437,2,1,1,1,655
3638,6,1,438,10,0,0,1,533
3639,6,1,439,10,1,1,1,665
3640,6,1,440,20,0,0,1,449
3641,6,1,441,2,0,0,1,939
3642,6,1,442,2,0,0,1,676
3643,6,1,443,2,0,0,1,464
3644,6,1,444,10,1,1,1,596
3645,6,1,445,10,1,1,1,734
3646,6,1,446,32,1,1,1,727
3647,6,1,447,5,0,0,1,563
3648,6,1,448,2,0,0,1,1201
3649,6,1,449,10,1,1,1,545
3650,6,1,450,32,0,0,1,525
3651,6,1,451,5,0,0,1,487
3652,6,1,452,32,0,0,1,475
3653,6,1,453,10,0,0,1,519
3654,6,1,454,2,1,1,1,654
3655,6,1,455,5,1,1,1,547
3656,6,1,456,5,1,1,1,660
3657,6,1,457,1,1,1,1,598
3658,6,1,458,2,0,0,1,999
3659,6,1,459,32,0,0,1,550
3660,6,1,460,5,0,0,1,417
3661,6,1,461,2,1,1,1,653
3662,6,1,462,20,1,1,1,674
3663,6,1,463,1,0,0,1,535
3664,6,1,464,10,1,1,1,552
3665,6,1,465,5,0,0,1,673
3666,6,1,466,10,0,0,1,540
3667,6,1,467,32,0,0,1,547
3668,6,1,468,20,1,1,1,927
3669,6,1,469,20,0,0,1,654
3670,6,1,470,20,0,0,1,636
3671,6,1,471,20,0,0,1,468
3672,6,1,472,20,1,1,1,570
3673,6,1,473,10,1,1,1,780
3674,6,1,474,20,1,1,1,626
3675,6,1,475,20,0,0,1,639
3676,6,1,476,5,1,1,1,1011
3677,6,1,477,20,1,1,1,478
3678,6,1,478,10,0,0,1,674
3679,6,1,479,2,1,1,1,801
3680,6,1,480,10,1,1,1,588
3681,6,1,481,20,0,0,1,731
3682,6,1,482,2,0,0,1,491
3683,6,1,483,32,1,1,1,527
3684,6,1,484,5,1,1,1,616
3685,6,1,485,2,1,1,1,549
3686,6,1,486,5,0,0,1,1146
3687,6,1,487,5,1,1,1,480
3688,6,1,488,5,1,1,1,612
3689,6,1,489,32,1,1,1,789
3690,6,1,490,10,0,0,1,599
3691,6,1,491,10,1,1,1,627
3692,6,1,492,2,0,0,1,680
3693,6,1,493,32,0,0,1,713
3694,6,1,494,5,0,0,1,748
3695,6,1,495,32,0,0,1,481
3696,6,1,496,1,1,1,1,508
3697,6,1,497,20,0,0,1,571
3698,6,1,498,20,0,0,1,612
3699,6,1,499,10,1,1,1,496
3700,6,1,500,10,1,1,1,548
3701,6,1,501,20,1,1,1,491
3702,6,1,502,2,1,1,1,540
3703,6,1,503,2,0,0,1,877
3704,6,1,504,20,1,1,1,684
3705,6,1,505,20,1,1,1,581
3706,6,1,506,32,1,1,1,601
3707,6,1,507,32,1,1,1,831
3708,6,1,508,32,1,1,1,572
3709,6,1,509,32,0,0,1,731
3710,6,1,510,10,1,1,1,619
3711,6,1,511,5,1,1,1,512
3712,6,1,512,32,0,0,1,551
3713,6,1,513,32,1,1,1,654
3714,6,1,514,5,0,0,1,574
3715,6,1,515,32,0,0,1,595
3716,6,1,516,2,1,1,1,580
3717,6,1,517,10,1,1,1,703
3718,6,1,518,20,0,0,1,522
3719,6,1,519,10,1,1,1,668
3720,6,1,520,32,0,0,1,558
3721,6,1,521,32,1,1,1,780
3722,6,1,522,32,1,1,1,786
3723,6,1,523,32,0,0,1,569
3724,6,1,524,20,0,0,1,655
3725,6,1,525,32,1,1,1,601
3726,6,1,526,32,0,0,1,603
3727,6,1,527,20,1,1,1,702
3728,6,1,528,5,1,1,1,576
3729,6,1,529,20,0,0,1,729
3730,6,1,530,5,1,1,1,565
3731,6,1,531,2,1,1,1,539
3732,6,1,532,1,0,0,1,422
3733,6,1,533,32,1,1,1,504
3734,6,1,534,2,1,1,1,459
3735,6,1,535,2,0,0,1,594
3736,6,1,536,10,1,1,1,667
3737,6,1,537,2,1,1,1,479
3738,6,1,538,2,1,1,1,644
3739,6,1,539,32,1,1,1,513
3740,6,1,540,10,1,1,1,591
3741,6,1,541,2,1,1,1,483
3742,6,1,542,20,0,0,1,621
3743,6,1,543,5,0,0,1,521
3744,6,1,544,2,0,0,1,393
3745,6,1,545,32,1,1,1,576
3746,6,1,546,20,1,1,1,479
3747,6,1,547,2,0,0,1,468
3748,6,1,548,5,0,0,1,550
3749,6,1,549,5,0,0,1,765
3750,6,1,550,10,1,1,1,677
3751,6,1,551,2,0,0,1,520
3752,6,1,552,10,0,0,1,497
3753,6,1,553,1,1,1,1,611
3754,6,1,554,5,1,1,1,671
3755,6,1,555,2,0,0,1,513
3756,6,1,556,10,1,1,1,612
3757,6,1,557,1,1,1,1,594
3758,6,1,558,10,0,0,1,789
3759,6,1,559,2,0,0,1,742
3760,6,1,560,20,1,1,1,846
3761,6,1,561,2,1,1,1,709
3762,6,1,562,32,1,1,1,1180
3763,6,1,563,32,1,1,1,644
3764,6,1,564,32,0,0,1,1025
3765,6,1,565,5,1,1,1,547
3766,6,1,566,20,1,1,1,631
3767,6,1,567,2,1,1,1,568
3768,6,1,568,5,1,1,1,712
3769,6,1,569,32,1,1,1,798
3770,6,1,570,5,0,0,1,926
3771,6,1,571,2,0,0,1,573
3772,6,1,572,2,0,0,1,611
3773,6,1,573,20,0,0,1,750
3774,6,1,574,5,0,0,1,744
3775,6,1,575,5,0,0,1,766
3776,6,1,576,10,1,1,1,632
3777,6,1,577,5,0,0,1,794
3778,6,1,578,2,0,0,1,666
3779,6,1,579,2,1,1,1,634
3780,6,1,580,5,1,1,1,625
3781,6,1,581,1,0,0,1,559
3782,6,1,582,5,1,1,1,606
3783,6,1,583,1,0,0,1,474
3784,6,1,584,10,0,0,1,859
3785,6,1,585,10,0,0,1,633
3786,6,1,586,1,1,1,1,851
3787,6,1,587,32,0,0,1,669
3788,6,1,588,20,0,0,1,590
3789,6,1,589,10,1,1,1,779
3790,6,1,590,20,1,1,1,598
3791,6,1,591,2,1,1,1,688
3792,6,1,592,10,0,0,1,969
3793,6,1,593,10,0,0,1,605
3794,6,1,594,5,1,1,1,627
3795,6,1,595,2,0,0,1,735
3796,6,1,596,5,1,1,1,604
3797,6,1,597,5,1,1,1,607
3798,6,1,598,10,0,0,1,671
3799,6,1,599,5,1,1,1,577
3800,6,1,600,32,0,0,1,634
3801,6,1,601,2,1,1,1,1279
3802,6,1,602,2,0,0,1,689
3803,6,1,603,20,1,1,1,689
3804,6,1,604,10,1,1,1,604
3805,6,1,605,32,1,1,1,664
3806,6,1,606,5,0,0,1,856
3807,6,1,607,20,0,0,1,544
3808,6,1,608,20,1,1,1,1028
3809,6,1,609,2,1,1,1,1179
3810,6,1,610,5,0,0,1,700
3811,6,1,611,10,0,0,1,904
3812,6,1,612,32,0,0,1,736
3813,6,1,613,10,0,0,1,817
3814,6,1,614,2,1,1,1,823
3815,6,1,615,32,1,1,1,830
3816,6,1,616,2,1,1,1,643
3817,6,1,617,32,1,1,1,769
3818,6,1,618,20,0,0,1,1085
3819,6,1,619,5,0,0,1,760
3820,6,1,620,10,1,1,1,681
3821,6,1,621,32,0,0,1,655
3822,6,1,622,20,1,1,1,561
3823,6,1,623,10,0,0,1,601
3824,6,1,624,32,0,0,1,634
3825,6,1,625,32,1,1,1,666
3826,6,1,626,5,1,1,1,1403
3827,6,1,627,32,0,0,1,548
3828,6,1,628,32,1,1,1,573
3829,6,1,629,20,1,1,1,600
3830,6,1,630,20,0,0,1,650
3831,6,1,631,1,0,0,1,532
3832,6,1,632,2,1,1,1,585
3833,6,1,633,20,1,1,1,580
3834,6,1,634,5,1,1,1,657
3835,6,1,635,10,0,0,1,897
3836,6,1,636,2,0,0,1,566
3837,6,1,637,10,1,1,1,582
3838,6,1,638,5,1,1,1,956
3839,6,1,639,10,1,1,1,648
3840,6,1,640,10,0,0,1,628
3841,7,1,1,32,0,0,1,751
3842,7,1,2,2,0,0,1,526
3843,7,1,3,5,0,0,0,550
3844,7,1,4,32,1,1,1,1121
3845,7,1,5,1,1,1,1,783
3846,7,1,6,5,0,0,1,778
3847,7,1,7,20,0,0,1,1060
3848,7,1,8,2,1,1,1,487
3849,7,1,9,32,1,1,1,1171
3850,7,1,10,32,1,1,1,522
3851,7,1,11,10,1,1,1,514
3852,7,1,12,32,1,1,1,960
3853,7,1,13,2,0,0,1,507
3854,7,1,14,2,1,1,1,615
3855,7,1,15,5,1,1,1,475
3856,7,1,16,5,0,0,1,612
3857,7,1,17,2,0,0,1,505
3858,7,1,18,20,1,1,1,486
3859,7,1,19,2,1,1,1,466
3860,7,1,20,1,0,0,1,564
3861,7,1,21,20,1,1,1,537
3862,7,1,22,20,1,1,1,504
3863,7,1,23,1,0,0,1,518
3864,7,1,24,5,0,0,1,473
3865,7,1,25,32,0,0,1,599
3866,7,1,26,20,0,0,1,480
3867,7,1,27,20,0,0,1,777
3868,7,1,28,20,1,1,0,901
3869,7,1,29,20,0,0,1,717
3870,7,1,30,5,1,1,1,837
3871,7,1,31,20,1,1,1,662
3872,7,1,32,32,1,1,1,681
3873,7,1,33,32,1,1,1,562
3874,7,1,34,10,1,1,1,677
3875,7,1,35,20,1,1,1,3367
3876,7,1,36,5,0,0,0,548
3877,7,1,37,20,1,1,1,773
3878,7,1,38,32,0,0,1,672
3879,7,1,39,2,1,1,1,704
3880,7,1,40,20,0,0,1,896
3881,7,1,41,2,1,1,1,630
3882,7,1,42,20,0,0,1,556
3883,7,1,43,32,0,0,1,593
3884,7,1,44,10,0,0,1,526
3885,7,1,45,2,0,0,1,739
3886,7,1,46,5,0,0,1,563
3887,7,1,47,5,0,0,1,458
3888,7,1,48,32,0,0,1,1719
3889,7,1,49,20,1,1,1,549
3890,7,1,50,2,0,0,1,1037
3891,7,1,51,32,0,0,1,695
3892,7,1,52,2,1,1,1,892
3893,7,1,53,2,0,0,1,568
3894,7,1,54,32,0,0,1,556
3895,7,1,55,1,1,1,1,771
3896,7,1,56,10,1,1,1,553
3897,7,1,57,2,1,1,1,641
3898,7,1,58,32,1,1,1,617
3899,7,1,59,20,1,1,1,983
3900,7,1,60,5,1,1,1,762
3901,7,1,61,32,1,1,1,1703
3902,7,1,62,32,1,1,1,1172
3903,7,1,63,20,1,1,1,499
3904,7,1,64,5,1,1,1,441
3905,7,1,65,1,0,0,1,516
3906,7,1,66,2,1,1,1,480
3907,7,1,67,10,1,1,1,533
3908,7,1,68,10,1,1,1,769
3909,7,1,69,20,0,0,1,581
3910,7,1,70,32,0,0,1,455
3911,7,1,71,32,0,0,1,713
3912,7,1,72,2,1,1,1,476
3913,7,1,73,5,1,1,1,541
3914,7,1,74,10,0,0,1,622
3915,7,1,75,10,0,0,1,532
3916,7,1,76,32,1,1,1,867
3917,7,1,77,5,1,1,1,665
3918,7,1,78,32,1,1,1,600
3919,7,1,79,2,1,1,1,747
3920,7,1,80,32,0,0,1,963
3921,7,1,81,2,0,0,1,813
3922,7,1,82,10,0,0,1,546
3923,7,1,83,32,1,1,1,651
3924,7,1,84,32,1,1,1,1435
3925,7,1,85,10,0,0,1,556
3926,7,1,86,2,0,0,1,467
3927,7,1,87,32,1,1,1,575
3928,7,1,88,5,0,0,1,639
3929,7,1,89,2,0,0,1,474
3930,7,1,90,2,1,1,1,502
3931,7,1,91,5,0,0,1,1201
3932,7,1,92,32,0,0,1,556
3933,7,1,93,5,0,0,1,551
3934,7,1,94,32,1,1,1,574
3935,7,1,95,2,1,1,1,483
3936,7,1,96,2,1,1,1,628
3937,7,1,97,1,0,0,1,713
3938,7,1,98,5,1,1,1,429
3939,7,1,99,32,1,1,1,578
3940,7,1,100,2,0,0,1,781
3941,7,1,101,32,1,1,1,726
3942,7,1,102,10,1,1,1,600
3943,7,1,103,5,0,0,1,1020
3944,7,1,104,32,0,0,1,951
3945,7,1,105,10,1,1,1,517
3946,7,1,106,10,0,0,1,599
3947,7,1,107,1,1,1,1,565
3948,7,1,108,2,0,0,1,598
3949,7,1,109,5,0,0,1,570
3950,7,1,110,2,0,0,1,543
3951,7,1,111,5,0,0,1,578
3952,7,1,112,32,0,0,1,734
3953,7,1,113,32,1,1,1,826
3954,7,1,114,1,0,0,1,559
3955,7,1,115,32,0,0,1,523
3956,7,1,116,10,0,0,1,486
3957,7,1,117,5,1,1,1,577
3958,7,1,118,10,0,0,1,699
3959,7,1,119,2,0,0,1,583
3960,7,1,120,10,0,0,1,759
3961,7,1,121,10,1,1,1,1273
3962,7,1,122,5,1,1,1,876
3963,7,1,123,10,0,0,1,547
3964,7,1,124,2,1,1,1,994
3965,7,1,125,20,0,0,1,627
3966,7,1,126,2,0,0,1,573
3967,7,1,127,1,0,0,1,916
3968,7,1,128,5,1,1,1,769
3969,7,1,129,32,0,0,1,705
3970,7,1,130,32,1,1,1,2044
3971,7,1,131,2,0,0,1,1190
3972,7,1,132,20,1,1,1,1187
3973,7,1,133,2,0,0,1,873
3974,7,1,134,10,1,1,1,1199
3975,7,1,135,10,1,1,1,1056
3976,7,1,136,10,0,0,1,1147
