trial_id,Subject,block_n,Trial,set_size,correctResponse,resp,acc,RT
1,1,1,1,2,1,1,1,457
2,1,1,2,5,1,1,1,461
3,1,1,3,32,0,0,1,491
4,1,1,4,5,0,0,1,500
5,1,1,5,10,1,1,1,449
6,1,1,6,32,0,0,1,566
7,1,1,7,10,0,0,1,427
8,1,1,8,2,1,1,1,438
9,1,1,9,5,1,1,1,443
10,1,1,10,1,0,0,1,369
11,1,1,11,5,1,1,1,575
12,1,1,12,2,0,0,1,406
13,1,1,13,20,0,0,1,456
14,1,1,14,5,1,1,1,413
15,1,1,15,10,1,1,1,433
16,1,1,16,10,1,1,1,574
17,1,1,17,10,1,1,1,447
18,1,1,18,5,1,1,1,595
19,1,1,19,20,1,1,1,502
20,1,1,20,10,0,0,1,1094
21,1,1,21,20,1,1,1,507
22,1,1,22,10,1,1,1,555
23,1,1,23,2,0,0,1,457
24,1,1,24,20,0,0,1,750
25,1,1,25,32,0,0,1,557
26,1,1,26,32,1,1,1,601
27,1,1,27,20,1,1,1,1279
28,1,1,28,10,0,0,1,609
29,1,1,29,5,0,0,1,534
30,1,1,30,2,1,1,1,524
31,1,1,31,32,0,0,1,695
32,1,1,32,10,1,1,1,493
33,1,1,33,10,1,1,1,508
34,1,1,34,20,1,1,1,614
35,1,1,35,5,1,1,1,524
36,1,1,36,20,0,0,1,610
37,1,1,37,5,0,0,1,468
38,1,1,38,2,0,0,1,433
39,1,1,39,20,1,1,1,597
40,1,1,40,5,0,0,1,470
41,1,1,41,1,1,1,1,519
42,1,1,42,2,0,0,1,441
43,1,1,43,1,1,1,1,393
44,1,1,44,5,1,1,1,527
45,1,1,45,32,1,1,1,533
46,1,1,46,2,0,0,1,531
47,1,1,47,2,1,1,1,469
48,1,1,48,20,0,0,1,723
49,1,1,49,5,0,0,1,549
50,1,1,50,2,0,0,1,533
51,1,1,51,20,1,1,1,541
52,1,1,52,32,1,1,1,585
53,1,1,53,5,1,1,1,508
54,1,1,54,32,1,1,1,561
55,1,1,55,32,0,0,1,783
56,1,1,56,5,0,0,1,520
57,1,1,57,32,1,1,1,508
58,1,1,58,10,1,1,1,477
59,1,1,59,32,1,1,1,605
60,1,1,60,2,1,1,1,494
61,1,1,61,5,0,0,1,464
62,1,1,62,32,1,1,1,509
63,1,1,63,20,0,0,1,719
64,1,1,64,2,1,1,1,476
65,1,1,65,2,0,0,0,468
66,1,1,66,32,1,1,1,561
67,1,1,67,32,0,0,1,473
68,1,1,68,2,1,1,1,435
69,1,1,69,32,0,0,1,1046
70,1,1,70,5,0,0,1,486
71,1,1,71,20,0,0,1,657
72,1,1,72,2,1,1,1,498
73,1,1,73,1,0,0,1,406
74,1,1,74,20,0,0,1,740
75,1,1,75,20,0,0,1,465
76,1,1,76,20,1,1,1,464
77,1,1,77,5,0,0,1,531
78,1,1,78,20,0,0,1,633
79,1,1,79,20,1,1,1,484
80,1,1,80,2,1,1,1,492
81,1,1,81,32,1,1,1,610
82,1,1,82,32,0,0,1,495
83,1,1,83,2,0,0,0,445
84,1,1,84,2,1,1,1,536
85,1,1,85,10,0,0,1,455
86,1,1,86,2,1,1,1,482
87,1,1,87,10,0,0,1,586
88,1,1,88,20,0,0,1,469
89,1,1,89,32,1,1,1,568
90,1,1,90,20,0,0,1,488
91,1,1,91,32,0,0,1,466
92,1,1,92,1,1,1,1,445
93,1,1,93,1,0,0,1,434
94,1,1,94,20,1,1,1,521
95,1,1,95,5,0,0,1,418
96,1,1,96,2,1,1,1,501
97,1,1,97,5,1,1,1,603
98,1,1,98,5,1,1,1,456
99,1,1,99,20,0,0,1,901
100,1,1,100,2,1,1,1,501
101,1,1,101,20,0,0,1,774
102,1,1,102,5,0,0,1,457
103,1,1,103,2,1,1,1,431
104,1,1,104,32,0,0,1,521
105,1,1,105,2,1,1,1,808
106,1,1,106,10,1,1,1,450
107,1,1,107,5,1,1,1,685
108,1,1,108,32,0,0,1,504
109,1,1,109,20,1,1,1,1782
110,1,1,110,10,0,0,1,479
111,1,1,111,32,0,0,1,634
112,1,1,112,20,0,0,1,435
113,1,1,113,2,0,0,1,609
114,1,1,114,32,1,1,1,491
115,1,1,115,32,1,1,1,512
116,1,1,116,10,0,0,1,539
117,1,1,117,10,0,0,1,615
118,1,1,118,5,0,0,1,465
119,1,1,119,5,1,1,1,483
120,1,1,120,20,1,1,1,761
121,1,1,121,10,1,1,1,507
122,1,1,122,32,0,0,1,1041
123,1,1,123,10,1,1,1,645
124,1,1,124,10,1,1,1,531
125,1,1,125,10,0,0,1,549
126,1,1,126,32,0,0,1,959
127,1,1,127,5,1,1,1,431
128,1,1,128,20,1,1,1,786
129,1,1,129,32,1,1,1,1180
130,1,1,130,32,0,0,1,786
131,1,1,131,32,0,0,1,499
132,1,1,132,2,0,0,1,458
133,1,1,133,20,0,0,1,482
134,1,1,134,1,1,1,1,531
135,1,1,135,5,0,0,1,565
136,1,1,136,5,1,1,1,720
137,1,1,137,5,0,0,1,420
138,1,1,138,2,0,0,1,521
139,1,1,139,32,0,0,1,773
140,1,1,140,20,0,0,1,769
141,1,1,141,10,0,0,1,617
142,1,1,142,20,1,1,1,482
143,1,1,143,20,0,0,1,740
144,1,1,144,10,1,1,1,468
145,1,1,145,20,0,0,1,497
146,1,1,146,2,1,1,1,497
147,1,1,147,20,1,1,1,759
148,1,1,148,20,1,1,0,1082
149,1,1,149,10,1,1,1,465
150,1,1,150,5,1,1,1,501
151,1,1,151,10,0,0,1,646
152,1,1,152,32,1,1,1,544
153,1,1,153,32,1,1,1,1167
154,1,1,154,1,0,0,1,534
155,1,1,155,5,1,1,1,405
156,1,1,156,10,0,0,1,499
157,1,1,157,1,1,1,1,454
158,1,1,158,5,0,0,1,401
159,1,1,159,2,0,0,1,451
160,1,1,160,20,0,0,1,583
161,1,1,161,32,1,1,1,551
162,1,1,162,2,0,0,1,439
163,1,1,163,20,1,1,1,559
164,1,1,164,5,0,0,1,652
165,1,1,165,5,0,0,1,420
166,1,1,166,20,0,0,1,530
167,1,1,167,2,0,0,1,475
168,1,1,168,1,1,1,1,497
169,1,1,169,32,1,1,1,608
170,1,1,170,32,0,0,1,433
171,1,1,171,20,0,0,1,526
172,1,1,172,20,1,1,1,514
173,1,1,173,2,1,1,1,442
174,1,1,174,20,1,1,1,688
175,1,1,175,1,1,1,1,484
176,1,1,176,5,0,0,1,401
177,1,1,177,10,1,1,1,413
178,1,1,178,1,1,1,1,503
179,1,1,179,5,0,0,1,543
180,1,1,180,5,1,1,1,497
181,1,1,181,2,1,1,1,517
182,1,1,182,10,0,0,1,500
183,1,1,183,2,1,1,1,484
184,1,1,184,20,1,1,1,666
185,1,1,185,10,0,0,1,521
186,1,1,186,2,0,0,1,533
187,1,1,187,5,1,1,1,555
188,1,1,188,10,1,1,1,475
189,1,1,189,20,0,0,1,498
190,1,1,190,32,0,0,1,1406
191,1,1,191,10,0,0,1,595
192,1,1,192,10,1,1,1,519
193,1,1,193,2,0,0,1,392
194,1,1,194,32,1,1,1,1395
195,1,1,195,32,0,0,1,718
196,1,1,196,10,1,1,1,408
197,1,1,197,20,0,0,1,514
198,1,1,198,20,1,1,1,504
199,1,1,199,20,1,1,1,631
200,1,1,200,2,0,0,1,647
201,1,1,201,20,1,1,1,505
202,1,1,202,20,1,1,1,569
203,1,1,203,5,0,0,1,479
204,1,1,204,2,1,1,1,519
205,1,1,205,2,0,0,1,467
206,1,1,206,10,0,0,1,453
207,1,1,207,32,0,0,1,602
208,1,1,208,20,1,1,1,432
209,1,1,209,32,1,1,1,549
210,1,1,210,32,0,0,1,536
211,1,1,211,5,1,1,1,502
212,1,1,212,5,0,0,1,614
213,1,1,213,5,0,0,1,491
214,1,1,214,2,1,1,1,446
215,1,1,215,2,1,1,1,615
216,1,1,216,2,1,1,1,535
217,1,1,217,32,0,0,1,540
218,1,1,218,32,0,0,1,526
219,1,1,219,20,1,1,1,611
220,1,1,220,1,0,0,1,533
221,1,1,221,20,1,1,1,525
222,1,1,222,1,1,1,1,568
223,1,1,223,32,1,1,1,586
224,1,1,224,32,1,1,1,546
225,1,1,225,10,1,1,1,657
226,1,1,226,5,1,1,1,495
227,1,1,227,1,0,0,1,529
228,1,1,228,5,0,0,1,462
229,1,1,229,5,1,1,1,543
230,1,1,230,10,0,0,1,593
231,1,1,231,5,0,0,1,537
232,1,1,232,2,0,0,1,504
233,1,1,233,10,1,1,1,504
234,1,1,234,10,0,0,1,916
235,1,1,235,5,1,1,1,528
236,1,1,236,2,1,1,1,504
237,1,1,237,10,0,0,1,720
238,1,1,238,32,1,1,1,555
239,1,1,239,32,1,1,1,650
240,1,1,240,5,1,1,1,474
241,1,1,241,10,0,0,1,508
242,1,1,242,2,0,0,1,509
243,1,1,243,5,0,0,1,452
244,1,1,244,20,1,1,1,525
245,1,1,245,5,0,0,1,610
246,1,1,246,10,1,1,1,551
247,1,1,247,2,0,0,1,480
248,1,1,248,32,1,1,1,549
249,1,1,249,5,1,1,1,1404
250,1,1,250,20,0,0,1,807
251,1,1,251,2,0,0,1,512
252,1,1,252,5,1,1,0,1077
253,1,1,253,20,1,1,1,910
254,1,1,254,32,0,0,1,483
255,1,1,255,2,1,1,1,559
256,1,1,256,20,1,1,1,640
257,1,1,257,20,0,0,1,766
258,1,1,258,2,0,0,1,456
259,1,1,259,5,1,1,1,539
260,1,1,260,10,1,1,1,524
261,1,1,261,2,0,0,1,366
262,1,1,262,5,0,0,1,599
263,1,1,263,32,1,1,1,581
264,1,1,264,2,1,1,1,496
265,1,1,265,20,0,0,1,469
266,1,1,266,5,1,1,1,458
267,1,1,267,10,0,0,1,574
268,1,1,268,32,1,1,1,459
269,1,1,269,20,0,0,1,423
270,1,1,270,10,0,0,1,605
271,1,1,271,20,0,0,1,455
272,1,1,272,20,1,1,1,476
273,1,1,273,10,1,1,1,497
274,1,1,274,20,1,1,1,423
275,1,1,275,2,1,1,1,566
276,1,1,276,10,1,1,1,614
277,1,1,277,20,1,1,1,481
278,1,1,278,32,0,0,1,496
279,1,1,279,10,0,0,1,439
280,1,1,280,5,1,1,1,413
281,1,1,281,10,1,1,1,463
282,1,1,282,32,0,0,1,498
283,1,1,283,5,1,1,1,461
284,1,1,284,1,0,0,1,469
285,1,1,285,20,1,1,1,442
286,1,1,286,10,1,1,1,516
287,1,1,287,32,1,1,1,485
288,1,1,288,5,1,1,1,419
289,1,1,289,32,0,0,1,471
290,1,1,290,20,0,0,0,955
291,1,1,291,10,0,0,1,442
292,1,1,292,32,0,0,1,783
293,1,1,293,10,1,1,1,702
294,1,1,294,20,0,0,1,559
295,1,1,295,5,0,0,1,489
296,1,1,296,5,0,0,1,547
297,1,1,297,5,0,0,1,500
298,1,1,298,5,0,0,1,417
299,1,1,299,5,1,1,1,1298
300,1,1,300,32,0,0,1,1039
301,1,1,301,1,0,0,1,410
302,1,1,302,20,0,0,1,463
303,1,1,303,5,0,0,1,443
304,1,1,304,2,1,1,1,481
305,1,1,305,32,1,1,1,603
306,1,1,306,32,0,0,1,871
307,1,1,307,20,1,1,1,520
308,1,1,308,5,1,1,1,417
309,1,1,309,32,0,0,1,708
310,1,1,310,10,0,0,1,420
311,1,1,311,10,0,0,1,543
312,1,1,312,32,1,1,1,610
313,1,1,313,32,0,0,1,462
314,1,1,314,5,0,0,1,420
315,1,1,315,2,0,0,1,402
316,1,1,316,5,1,1,1,500
317,1,1,317,1,0,0,1,418
318,1,1,318,2,0,0,1,364
319,1,1,319,10,0,0,1,439
320,1,1,320,20,0,0,1,874
321,1,1,321,2,0,0,1,473
322,1,1,322,2,0,0,1,403
323,1,1,323,20,0,0,1,458
324,1,1,324,1,0,0,1,366
325,1,1,325,10,1,1,1,483
326,1,1,326,5,1,1,0,494
327,1,1,327,32,0,0,1,504
328,1,1,328,1,0,0,1,471
329,1,1,329,2,0,0,1,509
330,1,1,330,5,1,1,1,490
331,1,1,331,1,1,1,1,552
332,1,1,332,20,0,0,1,491
333,1,1,333,2,0,0,1,460
334,1,1,334,1,0,0,1,452
335,1,1,335,2,1,1,1,420
336,1,1,336,20,1,1,1,669
337,1,1,337,5,1,1,1,673
338,1,1,338,1,0,0,1,432
339,1,1,339,20,1,1,1,446
340,1,1,340,10,0,0,1,651
341,1,1,341,2,0,0,1,514
342,1,1,342,10,1,1,1,749
343,1,1,343,2,1,1,1,420
344,1,1,344,32,1,1,1,528
345,1,1,345,2,0,0,1,554
346,1,1,346,20,0,0,1,772
347,1,1,347,10,1,1,1,879
348,1,1,348,2,0,0,1,542
349,1,1,349,2,1,1,1,716
350,1,1,350,5,0,0,1,464
351,1,1,351,32,1,1,1,479
352,1,1,352,2,0,0,1,499
353,1,1,353,32,0,0,1,1035
354,1,1,354,32,1,1,1,418
355,1,1,355,5,1,1,1,456
356,1,1,356,32,0,0,1,601
357,1,1,357,20,1,1,1,374
358,1,1,358,5,1,1,1,919
359,1,1,359,32,0,0,1,713
360,1,1,360,1,0,0,1,511
361,1,1,361,10,1,1,1,502
362,1,1,362,2,0,0,1,381
363,1,1,363,32,1,1,1,557
364,1,1,364,2,0,0,1,422
365,1,1,365,32,1,1,1,509
366,1,1,366,20,1,1,1,507
367,1,1,367,10,1,1,1,631
368,1,1,368,2,0,0,1,433
369,1,1,369,5,0,0,1,628
370,1,1,370,32,0,0,1,475
371,1,1,371,10,1,1,1,434
372,1,1,372,20,0,0,1,548
373,1,1,373,5,1,1,1,460
374,1,1,374,5,1,1,1,543
375,1,1,375,2,1,1,1,416
376,1,1,376,32,1,1,1,604
377,1,1,377,1,1,1,1,500
378,1,1,378,2,1,1,1,584
379,1,1,379,32,1,1,1,756
380,1,1,380,2,1,1,1,352
381,1,1,381,32,0,0,1,453
382,1,1,382,10,0,0,1,677
383,1,1,383,10,0,0,1,530
384,1,1,384,32,1,1,1,549
385,1,1,385,2,0,0,1,451
386,1,1,386,2,1,1,1,417
387,1,1,387,10,0,0,1,473
388,1,1,388,20,1,1,1,447
389,1,1,389,5,1,1,1,382
390,1,1,390,2,0,0,1,441
391,1,1,391,20,1,1,1,654
392,1,1,392,20,1,1,1,694
393,1,1,393,5,1,1,1,1070
394,1,1,394,2,0,0,1,464
395,1,1,395,2,1,1,1,425
396,1,1,396,10,0,0,1,585
397,1,1,397,10,0,0,1,490
398,1,1,398,20,1,1,1,462
399,1,1,399,32,1,1,1,467
400,1,1,400,10,1,1,1,467
401,1,1,401,10,1,1,1,441
402,1,1,402,20,0,0,1,425
403,1,1,403,2,1,1,1,409
404,1,1,404,5,0,0,1,370
405,1,1,405,32,0,0,1,747
406,1,1,406,20,0,0,1,586
407,1,1,407,10,0,0,1,469
408,1,1,408,20,1,1,1,606
409,1,1,409,32,0,0,1,380
410,1,1,410,5,1,1,1,485
411,1,1,411,32,1,1,1,509
412,1,1,412,32,0,0,1,630
413,1,1,413,2,0,0,1,499
414,1,1,414,5,0,0,1,565
415,1,1,415,2,1,1,1,447
416,1,1,416,5,1,1,1,399
417,1,1,417,32,1,1,1,493
418,1,1,418,5,1,1,1,465
419,1,1,419,2,1,1,1,533
420,1,1,420,32,1,1,1,495
421,1,1,421,5,1,1,1,551
422,1,1,422,2,0,0,1,514
423,1,1,423,20,0,0,1,564
424,1,1,424,2,1,1,1,504
425,1,1,425,32,0,0,1,512
426,1,1,426,32,1,1,1,1127
427,1,1,427,2,0,0,1,469
428,1,1,428,5,0,0,1,659
429,1,1,429,20,1,1,1,522
430,1,1,430,10,1,1,1,455
431,1,1,431,10,1,1,1,476
432,1,1,432,5,0,0,1,668
433,1,1,433,5,1,1,1,584
434,1,1,434,1,1,1,1,444
435,1,1,435,10,1,1,1,535
436,1,1,436,32,0,0,1,2057
437,1,1,437,10,1,1,1,508
438,1,1,438,20,0,0,1,889
439,1,1,439,32,1,1,1,495
440,1,1,440,1,1,1,1,443
441,1,1,441,32,0,0,1,666
442,1,1,442,1,0,0,1,501
443,1,1,443,5,1,1,1,755
444,1,1,444,32,1,1,1,463
445,1,1,445,20,1,1,1,629
446,1,1,446,32,0,0,1,581
447,1,1,447,2,1,1,1,440
448,1,1,448,2,1,1,1,618
449,1,1,449,5,1,1,1,513
450,1,1,450,2,0,0,1,497
451,1,1,451,10,1,1,1,641
452,1,1,452,20,0,0,1,503
453,1,1,453,10,0,0,1,632
454,1,1,454,20,1,1,1,431
455,1,1,455,5,1,1,1,404
456,1,1,456,2,1,1,1,471
457,1,1,457,1,1,1,1,400
458,1,1,458,20,1,1,1,612
459,1,1,459,10,0,0,1,403
460,1,1,460,10,1,1,1,640
461,1,1,461,10,1,1,1,434
462,1,1,462,10,1,1,1,444
463,1,1,463,2,1,1,1,576
464,1,1,464,32,1,1,1,428
465,1,1,465,5,0,0,1,435
466,1,1,466,32,1,1,1,1030
467,1,1,467,5,0,0,1,682
468,1,1,468,10,0,0,1,451
469,1,1,469,10,0,0,1,541
470,1,1,470,2,1,1,1,510
471,1,1,471,2,1,1,1,410
472,1,1,472,10,1,1,1,575
473,1,1,473,5,1,1,1,407
474,1,1,474,32,1,1,1,647
475,1,1,475,2,0,0,1,580
476,1,1,476,20,1,1,1,507
477,1,1,477,20,1,1,1,447
478,1,1,478,20,0,0,1,554
479,1,1,479,2,1,1,1,453
480,1,1,480,2,0,0,1,434
481,1,1,481,2,0,0,1,439
482,1,1,482,2,0,0,1,416
483,1,1,483,32,1,1,1,1434
484,1,1,484,20,0,0,1,398
485,1,1,485,10,0,0,1,461
486,1,1,486,32,1,1,1,607
487,1,1,487,5,0,0,1,551
488,1,1,488,20,0,0,1,449
489,1,1,489,1,1,1,1,414
490,1,1,490,20,0,0,1,606
491,1,1,491,5,1,1,1,440
492,1,1,492,1,1,1,1,577
493,1,1,493,5,1,1,1,421
494,1,1,494,32,1,1,1,752
495,1,1,495,1,1,1,1,564
496,1,1,496,5,1,1,1,503
497,1,1,497,32,1,1,1,836
498,1,1,498,20,0,0,1,506
499,1,1,499,10,1,1,1,411
500,1,1,500,10,0,0,1,617
501,1,1,501,20,1,1,1,486
502,1,1,502,10,0,0,1,560
503,1,1,503,32,1,1,1,494
504,1,1,504,1,0,0,1,420
505,1,1,505,2,1,1,1,501
506,1,1,506,10,0,0,0,637
507,1,1,507,2,1,1,1,565
508,1,1,508,2,1,1,1,392
509,1,1,509,20,0,0,1,807
510,1,1,510,10,1,1,1,511
511,1,1,511,2,0,0,1,537
512,1,1,512,20,1,1,1,777
513,1,1,513,32,1,1,1,654
514,1,1,514,20,1,1,1,541
515,1,1,515,10,1,1,1,881
516,1,1,516,32,0,0,1,561
517,1,1,517,10,1,1,1,461
518,1,1,518,2,0,0,1,467
519,1,1,519,32,1,1,1,470
520,1,1,520,5,0,0,1,517
521,1,1,521,10,0,0,1,445
522,1,1,522,2,1,1,1,476
523,1,1,523,32,1,1,1,525
524,1,1,524,2,0,0,0,458
525,1,1,525,32,0,0,1,1395
526,1,1,526,10,0,0,1,496
527,1,1,527,5,0,0,1,529
528,1,1,528,1,0,0,1,637
529,1,1,529,20,0,0,1,535
530,1,1,530,2,0,0,1,511
531,1,1,531,32,1,1,1,1274
532,1,1,532,10,0,0,1,504
533,1,1,533,20,0,0,1,701
534,1,1,534,10,0,0,1,845
535,1,1,535,10,0,0,1,461
536,1,1,536,2,1,1,1,627
537,1,1,537,5,0,0,1,584
538,1,1,538,10,0,0,1,458
539,1,1,539,5,0,0,1,523
540,1,1,540,10,1,1,1,472
541,1,1,541,10,0,0,1,534
542,1,1,542,2,1,1,1,577
543,1,1,543,20,0,0,1,562
544,1,1,544,2,1,1,1,430
545,1,1,545,10,0,0,1,440
546,1,1,546,10,1,1,1,433
547,1,1,547,5,0,0,1,500
548,1,1,548,32,0,0,1,877
549,1,1,549,10,0,0,1,605
550,1,1,550,32,0,0,1,582
551,1,1,551,20,0,0,1,492
552,1,1,552,20,0,0,1,606
553,1,1,553,10,1,1,1,512
554,1,1,554,10,1,1,1,497
555,1,1,555,5,0,0,1,471
556,1,1,556,32,0,0,1,510
557,1,1,557,5,0,0,1,456
558,1,1,558,10,0,0,1,443
559,1,1,559,5,0,0,1,1005
560,1,1,560,10,0,0,1,608
561,1,1,561,32,0,0,1,672
562,1,1,562,1,0,0,1,411
563,1,1,563,20,1,1,1,519
564,1,1,564,5,0,0,1,429
565,1,1,565,2,1,1,1,775
566,1,1,566,32,1,1,1,621
567,1,1,567,5,1,1,1,643
568,1,1,568,20,0,0,1,442
569,1,1,569,5,0,0,1,463
570,1,1,570,20,1,1,1,435
571,1,1,571,32,1,1,1,491
572,1,1,572,20,0,0,1,566
573,1,1,573,10,1,1,1,729
574,1,1,574,10,0,0,1,781
575,1,1,575,2,1,1,1,701
576,1,1,576,5,0,0,1,713
577,1,1,577,20,1,1,1,679
578,1,1,578,1,1,1,1,427
579,1,1,579,2,1,1,1,467
580,1,1,580,2,1,1,1,539
581,1,1,581,10,1,1,1,570
582,1,1,582,1,1,1,1,523
583,1,1,583,10,1,1,1,658
584,1,1,584,5,0,0,1,557
585,1,1,585,5,0,0,1,714
586,1,1,586,10,1,1,1,646
587,1,1,587,20,0,0,1,581
588,1,1,588,20,1,1,1,829
589,1,1,589,20,0,0,1,630
590,1,1,590,20,0,0,1,764
591,1,1,591,20,1,1,1,842
592,1,1,592,2,1,1,1,370
593,1,1,593,10,1,1,1,872
594,1,1,594,2,0,0,1,335
595,1,1,595,20,0,0,1,511
596,1,1,596,5,1,1,1,649
597,1,1,597,2,0,0,1,431
598,1,1,598,20,1,1,1,752
599,1,1,599,32,0,0,1,780
600,1,1,600,10,1,1,1,719
601,1,1,601,2,0,0,1,490
602,1,1,602,2,0,0,1,637
603,1,1,603,32,0,0,1,584
604,1,1,604,10,0,0,1,433
605,1,1,605,5,1,1,1,425
606,1,1,606,2,0,0,1,346
607,1,1,607,32,0,0,1,580
608,1,1,608,10,0,0,1,471
609,1,1,609,5,1,1,1,564
610,1,1,610,5,0,0,1,492
611,1,1,611,1,1,1,1,511
612,1,1,612,1,0,0,1,451
613,1,1,613,32,1,1,1,894
614,1,1,614,32,0,0,1,536
615,1,1,615,10,0,0,1,477
616,1,1,616,5,0,0,1,586
617,1,1,617,5,1,1,1,633
618,1,1,618,10,0,0,1,1006
619,1,1,619,2,0,0,1,615
620,1,1,620,2,1,1,1,652
621,1,1,621,20,1,1,1,1036
622,1,1,622,5,1,1,1,1276
623,1,1,623,1,0,0,1,578
624,1,1,624,32,0,0,1,1978
625,1,1,625,5,0,0,1,738
626,1,1,626,2,0,0,1,563
627,1,1,627,10,0,0,1,564
628,1,1,628,32,0,0,1,562
629,1,1,629,32,0,0,1,922
630,1,1,630,20,0,0,1,1354
631,1,1,631,5,0,0,1,502
632,1,1,632,5,0,0,1,463
633,1,1,633,32,0,0,1,438
634,1,1,634,10,0,0,1,539
635,1,1,635,10,1,1,1,542
636,1,1,636,32,1,1,1,719
637,1,1,637,2,0,0,1,871
638,1,1,638,20,0,0,1,508
639,1,1,639,10,1,1,1,653
640,1,1,640,20,1,1,1,1662
641,2,1,1,2,0,0,1,852
642,2,1,2,20,0,0,1,521
643,2,1,3,32,0,0,1,1179
644,2,1,4,10,0,0,1,662
645,2,1,5,5,1,1,1,478
646,2,1,6,5,1,1,1,602
647,2,1,7,32,0,0,1,1491
648,2,1,8,10,1,1,1,496
649,2,1,9,32,1,1,1,774
650,2,1,10,1,1,1,1,531
651,2,1,11,5,1,1,1,511
652,2,1,12,10,1,1,1,497
653,2,1,13,2,1,1,1,385
654,2,1,14,32,0,0,1,804
655,2,1,15,5,0,0,1,467
656,2,1,16,10,1,1,1,369
657,2,1,17,10,0,0,1,1313
658,2,1,18,5,0,0,1,509
659,2,1,19,1,1,1,1,858
660,2,1,20,20,0,0,1,748
661,2,1,21,1,0,0,1,391
662,2,1,22,32,1,1,1,491
663,2,1,23,1,1,1,1,401
664,2,1,24,20,0,0,1,913
665,2,1,25,5,1,1,1,758
666,2,1,26,20,1,1,1,630
667,2,1,27,20,0,0,1,398
668,2,1,28,10,1,1,1,475
669,2,1,29,5,0,0,1,523
670,2,1,30,32,1,1,1,1763
671,2,1,31,10,0,0,1,405
672,2,1,32,10,1,1,1,399
673,2,1,33,1,1,1,1,433
674,2,1,34,32,0,0,1,364
675,2,1,35,32,0,0,1,651
676,2,1,36,2,1,1,1,425
677,2,1,37,2,0,0,1,338
678,2,1,38,2,1,1,1,419
679,2,1,39,32,0,0,1,1889
680,2,1,40,10,1,1,1,398
681,2,1,41,32,1,1,1,2343
682,2,1,42,10,1,1,1,438
683,2,1,43,20,0,0,1,530
684,2,1,44,10,0,0,1,364
685,2,1,45,20,1,1,1,450
686,2,1,46,5,0,0,1,449
687,2,1,47,5,1,1,1,439
688,2,1,48,10,0,0,1,344
689,2,1,49,1,1,1,1,400
690,2,1,50,10,0,0,1,522
691,2,1,51,5,0,0,1,419
692,2,1,52,32,1,1,1,432
693,2,1,53,32,0,0,1,685
694,2,1,54,20,0,0,1,641
695,2,1,55,5,0,0,1,459
696,2,1,56,2,0,0,1,405
697,2,1,57,10,0,0,1,367
698,2,1,58,32,0,0,1,824
699,2,1,59,1,0,0,1,344
700,2,1,60,10,0,0,1,410
701,2,1,61,10,1,1,1,538
702,2,1,62,5,1,1,1,440
703,2,1,63,5,1,1,1,950
704,2,1,64,2,1,1,1,404
705,2,1,65,20,1,1,1,553
706,2,1,66,5,0,0,1,651
707,2,1,67,5,1,1,1,505
708,2,1,68,2,0,0,1,450
709,2,1,69,20,0,0,1,762
710,2,1,70,32,1,1,1,694
711,2,1,71,10,0,0,1,387
712,2,1,72,10,1,1,1,528
713,2,1,73,32,1,1,1,1351
714,2,1,74,5,0,0,1,517
715,2,1,75,5,1,1,1,430
716,2,1,76,10,1,1,1,538
717,2,1,77,20,0,0,1,580
718,2,1,78,32,1,1,1,522
719,2,1,79,10,0,0,1,466
720,2,1,80,5,1,1,1,455
721,2,1,81,32,0,0,1,719
722,2,1,82,20,0,0,1,617
723,2,1,83,10,0,0,1,500
724,2,1,84,2,0,0,1,394
725,2,1,85,2,1,1,1,488
726,2,1,86,20,1,1,1,399
727,2,1,87,2,0,0,1,461
728,2,1,88,2,0,0,1,322
729,2,1,89,5,0,0,1,437
730,2,1,90,10,0,0,1,390
731,2,1,91,32,0,0,1,812
732,2,1,92,10,1,1,1,744
733,2,1,93,2,1,1,1,467
734,2,1,94,2,0,0,1,479
735,2,1,95,20,0,0,1,679
736,2,1,96,1,0,0,1,418
737,2,1,97,20,0,0,1,708
738,2,1,98,32,0,0,1,511
739,2,1,99,2,0,0,1,377
740,2,1,100,1,1,1,1,385
741,2,1,101,32,1,1,1,741
742,2,1,102,20,0,0,1,420
743,2,1,103,5,1,1,1,439
744,2,1,104,1,1,1,1,434
745,2,1,105,10,0,0,1,380
746,2,1,106,5,0,0,1,666
747,2,1,107,5,0,0,1,445
748,2,1,108,5,1,1,1,407
749,2,1,109,10,1,1,1,363
750,2,1,110,10,1,1,1,462
751,2,1,111,20,0,0,1,602
752,2,1,112,32,0,0,1,630
753,2,1,113,10,0,0,1,585
754,2,1,114,5,0,0,1,483
755,2,1,115,2,1,1,1,359
756,2,1,116,2,1,1,1,360
757,2,1,117,2,0,0,1,383
758,2,1,118,10,0,0,1,367
759,2,1,119,10,1,1,1,361
760,2,1,120,32,1,1,1,681
761,2,1,121,20,0,0,1,361
762,2,1,122,1,1,1,1,419
763,2,1,123,20,0,0,1,1130
764,2,1,124,32,0,0,1,1691
765,2,1,125,2,0,0,1,366
766,2,1,126,32,0,0,1,392
767,2,1,127,20,0,0,1,490
768,2,1,128,5,0,0,1,345
769,2,1,129,5,0,0,1,341
770,2,1,130,32,0,0,1,473
771,2,1,131,10,0,0,1,493
772,2,1,132,20,0,0,1,513
773,2,1,133,2,1,1,1,410
774,2,1,134,10,0,0,1,496
775,2,1,135,2,0,0,1,392
776,2,1,136,10,0,0,1,963
777,2,1,137,1,1,1,1,389
778,2,1,138,5,1,1,1,678
779,2,1,139,32,0,0,1,561
780,2,1,140,32,0,0,1,481
781,2,1,141,2,0,0,1,340
782,2,1,142,10,1,1,1,383
783,2,1,143,20,0,0,1,1053
784,2,1,144,10,1,1,1,417
785,2,1,145,32,1,1,1,2030
786,2,1,146,20,1,1,1,648
787,2,1,147,10,1,1,1,797
788,2,1,148,10,0,0,1,478
789,2,1,149,32,0,0,1,937
790,2,1,150,10,1,1,1,411
791,2,1,151,2,0,0,1,604
792,2,1,152,2,1,1,1,357
793,2,1,153,20,1,1,1,606
794,2,1,154,2,1,1,1,429
795,2,1,155,32,0,0,1,518
796,2,1,156,10,0,0,1,436
797,2,1,157,32,1,1,1,624
798,2,1,158,1,1,1,1,404
799,2,1,159,1,0,0,1,347
800,2,1,160,2,0,0,1,526
801,2,1,161,2,0,0,1,495
802,2,1,162,20,0,0,1,671
803,2,1,163,2,0,0,1,377
804,2,1,164,20,1,1,1,915
805,2,1,165,1,1,1,1,436
806,2,1,166,20,0,0,1,484
807,2,1,167,10,0,0,1,379
808,2,1,168,32,0,0,1,848
809,2,1,169,32,1,1,1,660
810,2,1,170,5,1,1,1,356
811,2,1,171,2,0,0,1,424
812,2,1,172,20,1,1,1,420
813,2,1,173,10,1,1,1,821
814,2,1,174,20,1,1,1,1259
815,2,1,175,2,1,1,1,417
816,2,1,176,2,0,0,1,345
817,2,1,177,5,1,1,1,330
818,2,1,178,2,0,0,1,567
819,2,1,179,5,0,0,1,758
820,2,1,180,5,0,0,1,770
821,2,1,181,20,1,1,1,473
822,2,1,182,5,1,1,1,416
823,2,1,183,5,1,1,1,404
824,2,1,184,20,0,0,1,395
825,2,1,185,2,0,0,1,634
826,2,1,186,32,0,0,1,416
827,2,1,187,20,0,0,1,404
828,2,1,188,10,0,0,1,561
829,2,1,189,2,1,1,1,453
830,2,1,190,32,1,1,1,891
831,2,1,191,20,0,0,1,338
832,2,1,192,10,0,0,1,849
833,2,1,193,10,0,0,1,500
834,2,1,194,20,1,1,1,610
835,2,1,195,1,1,1,1,379
836,2,1,196,2,0,0,1,548
837,2,1,197,10,1,1,1,458
838,2,1,198,10,1,1,1,473
839,2,1,199,32,1,1,1,573
840,2,1,200,10,0,0,1,427
841,2,1,201,5,1,1,1,1036
842,2,1,202,10,1,1,1,648
843,2,1,203,5,0,0,1,670
844,2,1,204,5,1,1,1,529
845,2,1,205,1,0,0,1,385
846,2,1,206,5,1,1,1,382
847,2,1,207,5,0,0,1,618
848,2,1,208,5,0,0,1,380
849,2,1,209,10,0,0,1,358
850,2,1,210,5,0,0,1,469
851,2,1,211,5,1,1,1,539
852,2,1,212,2,1,1,1,544
853,2,1,213,20,1,1,1,678
854,2,1,214,2,1,1,1,445
855,2,1,215,2,1,1,1,370
856,2,1,216,5,0,0,1,442
857,2,1,217,2,1,1,1,543
858,2,1,218,10,0,0,1,490
859,2,1,219,10,0,0,1,506
860,2,1,220,32,1,1,1,627
861,2,1,221,10,1,1,1,355
862,2,1,222,2,1,1,1,365
863,2,1,223,5,1,1,1,490
864,2,1,224,2,1,1,1,378
865,2,1,225,2,1,1,1,428
866,2,1,226,20,1,1,1,537
867,2,1,227,32,1,1,1,512
868,2,1,228,32,0,0,1,457
869,2,1,229,5,1,1,1,395
870,2,1,230,2,1,1,1,343
871,2,1,231,5,0,0,1,338
872,2,1,232,20,0,0,1,1008
873,2,1,233,32,1,1,1,1430
874,2,1,234,10,1,1,1,437
875,2,1,235,5,1,1,1,451
876,2,1,236,5,1,1,1,556
877,2,1,237,32,1,1,1,549
878,2,1,238,32,1,1,1,840
879,2,1,239,5,0,0,1,612
880,2,1,240,5,0,0,1,389
881,2,1,241,20,0,0,1,431
882,2,1,242,10,1,1,1,550
883,2,1,243,10,1,1,1,319
884,2,1,244,10,0,0,1,547
885,2,1,245,20,0,0,1,608
886,2,1,246,1,1,1,1,342
887,2,1,247,5,1,1,1,460
888,2,1,248,32,1,1,1,863
889,2,1,249,2,0,0,1,376
890,2,1,250,2,0,0,1,503
891,2,1,251,10,0,0,1,823
892,2,1,252,2,0,0,1,580
893,2,1,253,5,1,1,1,626
894,2,1,254,10,0,0,1,627
895,2,1,255,20,1,1,1,484
896,2,1,256,10,0,0,1,757
897,2,1,257,2,0,0,1,518
898,2,1,258,32,0,0,1,655
899,2,1,259,5,0,0,1,351
900,2,1,260,20,0,0,1,468
901,2,1,261,2,1,1,1,372
902,2,1,262,5,1,1,1,545
903,2,1,263,32,1,1,1,483
904,2,1,264,2,1,1,1,340
905,2,1,265,20,0,0,1,505
906,2,1,266,10,0,0,1,407
907,2,1,267,2,1,1,1,391
908,2,1,268,20,1,1,1,377
909,2,1,269,20,0,0,1,498
910,2,1,270,10,1,1,1,517
911,2,1,271,5,1,1,1,658
912,2,1,272,2,1,1,1,403
913,2,1,273,20,0,0,1,408
914,2,1,274,20,0,0,1,613
915,2,1,275,2,1,1,1,443
916,2,1,276,2,0,0,1,389
917,2,1,277,32,1,1,1,1676
918,2,1,278,20,1,1,1,756
919,2,1,279,10,1,1,1,576
920,2,1,280,10,1,1,1,487
921,2,1,281,1,0,0,1,367
922,2,1,282,20,0,0,1,588
923,2,1,283,32,0,0,1,337
924,2,1,284,5,1,1,1,515
925,2,1,285,32,1,1,1,866
926,2,1,286,10,1,1,1,439
927,2,1,287,5,0,0,1,484
928,2,1,288,2,1,1,1,323
929,2,1,289,20,1,1,1,306
930,2,1,290,2,0,0,1,305
931,2,1,291,10,1,1,1,409
932,2,1,292,32,0,0,1,447
933,2,1,293,2,0,0,1,357
934,2,1,294,2,0,0,1,416
935,2,1,295,5,1,1,1,600
936,2,1,296,1,0,0,1,325
937,2,1,297,20,1,1,1,448
938,2,1,298,1,1,1,1,371
939,2,1,299,10,1,1,1,558
940,2,1,300,2,0,0,1,268
941,2,1,301,20,1,1,1,424
942,2,1,302,5,0,0,1,346
943,2,1,303,32,0,0,1,650
944,2,1,304,2,0,0,1,414
945,2,1,305,32,1,1,1,480
946,2,1,306,20,0,0,1,379
947,2,1,307,2,1,1,1,370
948,2,1,308,20,1,1,1,474
949,2,1,309,20,1,1,1,471
950,2,1,310,1,1,1,1,399
951,2,1,311,2,0,0,1,382
952,2,1,312,5,1,1,1,359
953,2,1,313,20,0,0,1,486
954,2,1,314,10,1,1,1,354
955,2,1,315,10,1,1,1,389
956,2,1,316,2,0,0,1,333
957,2,1,317,2,1,1,1,368
958,2,1,318,2,0,0,1,417
959,2,1,319,32,0,0,1,505
960,2,1,320,5,1,1,1,300
961,2,1,321,2,0,0,1,774
962,2,1,322,20,0,0,1,436
963,2,1,323,32,1,1,1,378
964,2,1,324,2,1,1,1,517
965,2,1,325,10,0,0,1,345
966,2,1,326,20,0,0,1,510
967,2,1,327,10,0,0,1,473
968,2,1,328,5,0,0,1,358
969,2,1,329,10,0,0,1,582
970,2,1,330,20,0,0,1,428
971,2,1,331,5,0,0,1,399
972,2,1,332,5,0,0,1,540
973,2,1,333,1,0,0,1,329
974,2,1,334,10,1,1,1,574
975,2,1,335,2,1,1,1,449
976,2,1,336,10,0,0,1,817
977,2,1,337,20,1,1,1,633
978,2,1,338,5,1,1,1,407
979,2,1,339,20,0,0,1,346
980,2,1,340,5,1,1,1,600
981,2,1,341,32,1,1,1,673
982,2,1,342,2,0,0,1,490
983,2,1,343,32,1,1,1,505
984,2,1,344,20,0,0,1,357
985,2,1,345,5,0,0,1,365
986,2,1,346,10,0,0,1,465
987,2,1,347,10,0,0,1,846
988,2,1,348,20,1,1,1,984
989,2,1,349,20,1,1,1,351
990,2,1,350,10,0,0,1,533
991,2,1,351,2,0,0,1,315
992,2,1,352,32,1,1,1,762
993,2,1,353,32,0,0,1,512
994,2,1,354,32,0,0,1,905
995,2,1,355,32,0,0,1,836
996,2,1,356,5,1,1,1,500
997,2,1,357,32,0,0,1,481
998,2,1,358,32,1,1,1,507
999,2,1,359,20,0,0,1,682
1000,2,1,360,20,1,1,1,623
1001,2,1,361,5,1,1,1,493
1002,2,1,362,5,0,0,1,358
1003,2,1,363,32,0,0,1,416
1004,2,1,364,2,1,1,1,407
1005,2,1,365,20,1,1,1,520
1006,2,1,366,32,1,1,1,390
1007,2,1,367,2,1,1,1,492
1008,2,1,368,32,1,1,1,351
1009,2,1,369,5,1,1,1,347
1010,2,1,370,2,0,0,1,323
1011,2,1,371,2,1,1,1,342
1012,2,1,372,2,0,0,1,337
1013,2,1,373,2,0,0,1,548
1014,2,1,374,10,1,1,1,379
1015,2,1,375,32,0,0,1,633
1016,2,1,376,5,1,1,1,543
1017,2,1,377,32,0,0,1,328
1018,2,1,378,5,0,0,1,389
1019,2,1,379,20,1,1,1,616
1020,2,1,380,10,1,1,1,718
1021,2,1,381,20,1,1,1,679
1022,2,1,382,32,1,1,1,534
1023,2,1,383,20,1,1,1,394
1024,2,1,384,1,0,0,1,329
1025,2,1,385,2,1,1,1,649
1026,2,1,386,32,1,1,1,854
1027,2,1,387,32,1,1,1,927
1028,2,1,388,2,1,1,1,691
1029,2,1,389,10,1,1,1,444
1030,2,1,390,2,1,1,1,394
1031,2,1,391,2,1,1,1,553
1032,2,1,392,20,1,1,1,614
1033,2,1,393,32,0,0,1,631
1034,2,1,394,32,0,0,1,433
1035,2,1,395,2,0,0,1,596
1036,2,1,396,10,1,1,1,448
1037,2,1,397,32,0,0,1,476
1038,2,1,398,5,1,1,1,486
1039,2,1,399,20,0,0,1,538
1040,2,1,400,10,1,1,1,493
1041,2,1,401,32,1,1,1,652
1042,2,1,402,5,0,0,1,341
1043,2,1,403,2,0,0,1,297
1044,2,1,404,20,1,1,1,364
1045,2,1,405,20,1,1,1,990
1046,2,1,406,5,1,1,1,445
1047,2,1,407,10,1,1,1,1007
1048,2,1,408,20,0,0,1,401
1049,2,1,409,2,0,0,1,867
1050,2,1,410,32,0,0,1,580
1051,2,1,411,20,0,0,1,1071
1052,2,1,412,20,0,0,1,784
1053,2,1,413,32,1,1,1,471
1054,2,1,414,5,0,0,1,328
1055,2,1,415,2,0,0,1,329
1056,2,1,416,32,1,1,1,620
1057,2,1,417,10,1,1,1,580
1058,2,1,418,10,1,1,1,399
1059,2,1,419,32,1,1,1,395
1060,2,1,420,32,1,1,1,522
1061,2,1,421,10,1,1,1,393
1062,2,1,422,32,0,0,1,426
1063,2,1,423,10,0,0,1,325
1064,2,1,424,5,0,0,1,314
1065,2,1,425,1,0,0,1,341
1066,2,1,426,5,0,0,0,462
1067,2,1,427,5,1,1,1,372
1068,2,1,428,32,0,0,1,1704
1069,2,1,429,32,0,0,1,397
1070,2,1,430,5,0,0,1,397
1071,2,1,431,10,0,0,1,597
1072,2,1,432,2,1,1,1,436
1073,2,1,433,5,1,1,1,481
1074,2,1,434,2,1,1,1,471
1075,2,1,435,10,0,0,1,688
1076,2,1,436,32,1,1,1,809
1077,2,1,437,32,0,0,1,422
1078,2,1,438,2,1,1,1,454
1079,2,1,439,32,0,0,1,1084
1080,2,1,440,20,1,1,1,688
1081,2,1,441,1,0,0,1,1301
1082,2,1,442,10,0,0,1,664
1083,2,1,443,5,1,1,1,881
1084,2,1,444,2,0,0,1,332
1085,2,1,445,2,0,0,1,453
1086,2,1,446,10,1,1,1,675
1087,2,1,447,5,1,1,1,490
1088,2,1,448,20,1,1,1,427
1089,2,1,449,2,1,1,1,468
1090,2,1,450,20,0,0,1,498
1091,2,1,451,32,1,1,1,382
1092,2,1,452,10,1,1,1,769
1093,2,1,453,2,0,0,1,347
1094,2,1,454,5,0,0,1,395
1095,2,1,455,5,0,0,1,381
1096,2,1,456,1,0,0,1,401
1097,2,1,457,32,1,1,1,517
1098,2,1,458,20,1,1,1,592
1099,2,1,459,5,0,0,1,764
1100,2,1,460,5,0,0,1,506
1101,2,1,461,5,0,0,1,485
1102,2,1,462,1,0,0,1,377
1103,2,1,463,32,0,0,1,403
1104,2,1,464,2,1,1,1,642
1105,2,1,465,2,1,1,1,420
1106,2,1,466,10,0,0,1,429
1107,2,1,467,32,1,1,1,569
1108,2,1,468,5,1,1,1,398
1109,2,1,469,32,0,0,1,1712
1110,2,1,470,5,0,0,1,403
1111,2,1,471,10,0,0,1,499
1112,2,1,472,32,1,1,1,684
1113,2,1,473,1,1,1,1,368
1114,2,1,474,10,0,0,1,389
1115,2,1,475,20,1,1,1,406
1116,2,1,476,10,1,1,1,465
1117,2,1,477,5,1,1,1,347
1118,2,1,478,20,1,1,1,474
1119,2,1,479,5,0,0,1,519
1120,2,1,480,32,1,1,1,554
1121,2,1,481,2,1,1,1,989
1122,2,1,482,5,1,1,1,608
1123,2,1,483,20,1,1,1,507
1124,2,1,484,20,1,1,1,556
1125,2,1,485,32,1,1,1,648
1126,2,1,486,1,0,0,1,596
1127,2,1,487,10,0,0,1,835
1128,2,1,488,20,0,0,1,725
1129,2,1,489,2,0,0,1,557
1130,2,1,490,5,1,1,1,734
1131,2,1,491,2,0,0,1,447
1132,2,1,492,32,1,1,1,551
1133,2,1,493,32,1,1,1,518
1134,2,1,494,5,1,1,1,443
1135,2,1,495,2,1,1,1,476
1136,2,1,496,32,0,0,1,502
1137,2,1,497,5,1,1,1,570
1138,2,1,498,32,1,1,1,1034
1139,2,1,499,2,1,1,1,457
1140,2,1,500,20,1,1,1,581
1141,2,1,501,2,0,0,1,576
1142,2,1,502,2,0,0,1,475
1143,2,1,503,5,0,0,1,325
1144,2,1,504,5,1,1,1,481
1145,2,1,505,2,1,1,1,521
1146,2,1,506,20,1,1,1,645
1147,2,1,507,10,1,1,1,480
1148,2,1,508,20,1,1,1,444
1149,2,1,509,10,0,0,1,415
1150,2,1,510,20,0,0,1,558
1151,2,1,511,32,0,0,1,754
1152,2,1,512,5,1,1,1,348
1153,2,1,513,32,0,0,1,360
1154,2,1,514,5,1,1,1,337
1155,2,1,515,1,0,0,1,296
1156,2,1,516,10,1,1,1,364
1157,2,1,517,2,1,1,1,289
1158,2,1,518,5,0,0,1,373
1159,2,1,519,2,1,1,1,364
1160,2,1,520,5,0,0,1,328
1161,2,1,521,2,0,0,1,347
1162,2,1,522,5,1,1,1,343
1163,2,1,523,10,1,1,1,509
1164,2,1,524,10,1,1,1,408
1165,2,1,525,20,1,1,1,776
1166,2,1,526,10,0,0,1,535
1167,2,1,527,20,1,1,1,396
1168,2,1,528,20,1,1,1,559
1169,2,1,529,1,0,0,1,363
1170,2,1,530,20,1,1,1,653
1171,2,1,531,5,0,0,1,341
1172,2,1,532,2,0,0,1,521
1173,2,1,533,20,1,1,1,468
1174,2,1,534,2,1,1,1,414
1175,2,1,535,2,1,1,1,461
1176,2,1,536,5,0,0,1,355
1177,2,1,537,20,1,1,1,444
1178,2,1,538,5,0,0,1,891
1179,2,1,539,20,0,0,1,603
1180,2,1,540,32,0,0,1,456
1181,2,1,541,2,1,1,1,376
1182,2,1,542,5,0,0,1,612
1183,2,1,543,2,0,0,1,414
1184,2,1,544,1,0,0,1,372
1185,2,1,545,20,0,0,1,1122
1186,2,1,546,20,1,1,1,404
1187,2,1,547,2,0,0,1,464
1188,2,1,548,10,1,1,1,543
1189,2,1,549,2,1,1,1,644
1190,2,1,550,32,1,1,1,441
1191,2,1,551,2,1,1,1,471
1192,2,1,552,5,1,1,1,355
1193,2,1,553,20,0,0,1,448
1194,2,1,554,10,0,0,1,352
1195,2,1,555,5,0,0,1,377
1196,2,1,556,32,1,1,1,463
1197,2,1,557,5,0,0,1,406
1198,2,1,558,2,1,1,1,545
1199,2,1,559,20,0,0,1,667
1200,2,1,560,20,1,1,1,634
1201,2,1,561,20,0,0,1,390
1202,2,1,562,32,0,0,1,484
1203,2,1,563,10,0,0,1,509
1204,2,1,564,10,1,1,1,397
1205,2,1,565,10,0,0,1,504
1206,2,1,566,32,1,1,1,442
1207,2,1,567,1,0,0,1,311
1208,2,1,568,10,1,1,1,725
1209,2,1,569,10,1,1,1,388
1210,2,1,570,10,0,0,1,526
1211,2,1,571,32,0,0,1,718
1212,2,1,572,20,1,1,1,460
1213,2,1,573,5,1,1,1,362
1214,2,1,574,20,1,1,1,862
1215,2,1,575,10,1,1,1,423
1216,2,1,576,10,1,1,1,671
1217,2,1,577,2,1,1,1,255
1218,2,1,578,5,0,0,1,630
1219,2,1,579,10,0,0,1,808
1220,2,1,580,5,1,1,1,371
1221,2,1,581,1,1,1,1,355
1222,2,1,582,32,0,0,1,537
1223,2,1,583,10,0,0,1,555
1224,2,1,584,32,0,0,1,1610
1225,2,1,585,20,0,0,1,403
1226,2,1,586,2,1,1,1,642
1227,2,1,587,2,1,1,1,420
1228,2,1,588,5,0,0,1,353
1229,2,1,589,5,0,0,1,540
1230,2,1,590,20,0,0,1,409
1231,2,1,591,32,0,0,1,1003
1232,2,1,592,32,0,0,1,674
1233,2,1,593,2,0,0,1,618
1234,2,1,594,32,1,1,1,441
1235,2,1,595,32,1,1,1,428
1236,2,1,596,5,1,1,1,344
1237,2,1,597,10,1,1,1,311
1238,2,1,598,2,0,0,1,401
1239,2,1,599,10,0,0,1,729
1240,2,1,600,20,1,1,1,493
1241,2,1,601,20,0,0,1,1051
1242,2,1,602,20,1,1,1,574
1243,2,1,603,20,0,0,1,475
1244,2,1,604,32,1,1,1,1698
1245,2,1,605,32,0,0,1,597
1246,2,1,606,2,0,0,0,339
1247,2,1,607,10,1,1,1,592
1248,2,1,608,32,0,0,1,447
1249,2,1,609,20,0,0,1,582
1250,2,1,610,32,1,1,1,482
1251,2,1,611,20,1,1,1,565
1252,2,1,612,32,0,0,1,562
1253,2,1,613,20,1,1,1,455
1254,2,1,614,20,0,0,1,416
1255,2,1,615,1,1,1,1,308
1256,2,1,616,32,0,0,1,423
1257,2,1,617,32,1,1,1,504
1258,2,1,618,2,0,0,1,475
1259,2,1,619,1,0,0,1,382
1260,2,1,620,5,0,0,1,369
1261,2,1,621,1,1,1,1,424
1262,2,1,622,20,1,1,1,414
1263,2,1,623,20,1,1,1,354
1264,2,1,624,10,0,0,1,649
1265,2,1,625,10,1,1,1,616
1266,2,1,626,5,0,0,1,563
1267,2,1,627,20,1,1,1,500
1268,2,1,628,10,0,0,1,471
1269,2,1,629,1,1,1,1,505
1270,2,1,630,1,0,0,1,412
1271,2,1,631,5,1,1,1,345
1272,2,1,632,20,0,0,1,907
1273,2,1,633,20,1,1,1,727
1274,2,1,634,5,0,0,1,436
1275,2,1,635,32,0,0,1,946
1276,2,1,636,20,0,0,1,547
1277,2,1,637,10,0,0,1,435
1278,2,1,638,32,1,1,1,408
1279,2,1,639,32,1,1,1,537
1280,2,1,640,2,1,1,1,566
1281,3,1,1,10,0,0,1,1356
1282,3,1,2,10,0,0,1,772
1283,3,1,3,10,1,1,1,518
1284,3,1,4,20,1,1,1,466
1285,3,1,5,20,0,0,1,416
1286,3,1,6,20,1,1,1,488
1287,3,1,7,20,0,0,1,521
1288,3,1,8,32,1,1,1,469
1289,3,1,9,2,1,1,1,371
1290,3,1,10,2,1,1,1,368
1291,3,1,11,20,0,0,1,409
1292,3,1,12,10,1,1,1,662
1293,3,1,13,32,1,1,1,472
1294,3,1,14,1,1,1,1,466
1295,3,1,15,32,1,1,1,370
1296,3,1,16,5,1,1,1,399
1297,3,1,17,2,0,0,1,397
1298,3,1,18,10,0,0,1,444
1299,3,1,19,2,0,0,1,440
1300,3,1,20,2,1,1,1,823
1301,3,1,21,32,0,0,1,594
1302,3,1,22,1,0,0,1,426
1303,3,1,23,10,1,1,1,504
1304,3,1,24,5,1,1,0,457
1305,3,1,25,10,0,0,1,1366
1306,3,1,26,20,1,1,1,640
1307,3,1,27,20,0,0,1,867
1308,3,1,28,20,0,0,1,629
1309,3,1,29,32,1,1,1,1431
1310,3,1,30,2,1,1,1,562
1311,3,1,31,10,1,1,1,426
1312,3,1,32,20,1,1,1,519
1313,3,1,33,10,1,1,1,1061
1314,3,1,34,32,0,0,1,1040
1315,3,1,35,10,0,0,1,519
1316,3,1,36,2,1,1,1,399
1317,3,1,37,5,0,0,1,520
1318,3,1,38,5,1,1,1,440
1319,3,1,39,20,1,1,0,1195
1320,3,1,40,10,1,1,1,756
1321,3,1,41,2,1,1,1,838
1322,3,1,42,20,1,1,1,471
1323,3,1,43,10,1,1,1,518
1324,3,1,44,10,0,0,1,909
1325,3,1,45,5,0,0,1,570
1326,3,1,46,5,0,0,1,509
1327,3,1,47,20,1,1,1,518
1328,3,1,48,32,0,0,1,797
1329,3,1,49,5,0,0,1,440
1330,3,1,50,2,1,1,1,380
1331,3,1,51,32,0,0,1,515
1332,3,1,52,2,1,1,1,536
1333,3,1,53,10,1,1,1,772
1334,3,1,54,10,0,0,1,546
1335,3,1,55,20,1,1,1,914
1336,3,1,56,20,0,0,1,591
1337,3,1,57,20,1,1,1,514
1338,3,1,58,32,1,1,1,557
1339,3,1,59,20,1,1,1,531
1340,3,1,60,20,1,1,1,459
1341,3,1,61,20,0,0,1,598
1342,3,1,62,10,0,0,1,503
1343,3,1,63,2,0,0,1,513
1344,3,1,64,5,0,0,1,548
1345,3,1,65,32,0,0,1,611
1346,3,1,66,5,1,1,1,488
1347,3,1,67,10,0,0,1,457
1348,3,1,68,2,0,0,1,372
1349,3,1,69,2,0,0,1,935
1350,3,1,70,1,1,1,1,653
1351,3,1,71,1,1,1,1,367
1352,3,1,72,32,1,1,1,1129
1353,3,1,73,10,1,1,1,640
1354,3,1,74,10,0,0,1,486
1355,3,1,75,20,0,0,1,466
1356,3,1,76,2,0,0,1,404
1357,3,1,77,20,1,1,1,690
1358,3,1,78,20,0,0,1,418
1359,3,1,79,20,1,1,1,700
1360,3,1,80,5,0,0,1,413
1361,3,1,81,2,0,0,1,540
1362,3,1,82,2,1,1,1,589
1363,3,1,83,5,1,1,1,443
1364,3,1,84,2,1,1,1,418
1365,3,1,85,1,0,0,1,410
1366,3,1,86,20,0,0,1,744
1367,3,1,87,2,0,0,1,419
1368,3,1,88,1,0,0,1,455
1369,3,1,89,2,0,0,1,491
1370,3,1,90,2,0,0,1,424
1371,3,1,91,5,0,0,1,457
1372,3,1,92,32,0,0,1,868
1373,3,1,93,20,1,1,1,611
1374,3,1,94,32,0,0,1,466
1375,3,1,95,32,1,1,1,1257
1376,3,1,96,2,0,0,1,508
1377,3,1,97,20,0,0,1,489
1378,3,1,98,10,0,0,1,442
1379,3,1,99,2,1,1,1,387
1380,3,1,100,2,0,0,1,440
1381,3,1,101,20,1,1,1,499
1382,3,1,102,1,0,0,1,392
1383,3,1,103,10,1,1,1,427
1384,3,1,104,20,1,1,1,481
1385,3,1,105,32,1,1,1,458
1386,3,1,106,10,0,0,1,621
1387,3,1,107,2,1,1,1,899
1388,3,1,108,5,1,1,1,609
1389,3,1,109,1,1,1,1,393
1390,3,1,110,20,0,0,1,770
1391,3,1,111,2,0,0,1,474
1392,3,1,112,5,0,0,1,417
1393,3,1,113,10,0,0,1,457
1394,3,1,114,5,0,0,1,533
1395,3,1,115,2,0,0,1,491
1396,3,1,116,1,1,1,1,424
1397,3,1,117,5,0,0,1,523
1398,3,1,118,32,1,1,1,896
1399,3,1,119,32,0,0,1,872
1400,3,1,120,10,0,0,1,550
1401,3,1,121,20,1,1,1,793
1402,3,1,122,5,1,1,1,441
1403,3,1,123,10,1,1,1,474
1404,3,1,124,5,0,0,1,578
1405,3,1,125,5,1,1,1,574
1406,3,1,126,32,1,1,1,1621
1407,3,1,127,20,1,1,1,572
1408,3,1,128,5,0,0,1,416
1409,3,1,129,20,1,1,1,403
1410,3,1,130,32,0,0,1,765
1411,3,1,131,2,0,0,1,380
1412,3,1,132,10,1,1,1,694
1413,3,1,133,10,0,0,1,453
1414,3,1,134,20,0,0,1,1035
1415,3,1,135,5,1,1,1,595
1416,3,1,136,2,0,0,1,380
1417,3,1,137,10,1,1,1,426
1418,3,1,138,20,1,1,1,954
1419,3,1,139,2,1,1,1,391
1420,3,1,140,10,0,0,1,738
1421,3,1,141,32,1,1,1,1919
1422,3,1,142,32,0,0,1,469
1423,3,1,143,2,1,1,1,483
1424,3,1,144,10,0,0,1,446
1425,3,1,145,32,1,1,1,431
1426,3,1,146,5,0,0,1,497
1427,3,1,147,10,0,0,1,426
1428,3,1,148,5,1,1,1,419
1429,3,1,149,2,0,0,1,438
1430,3,1,150,10,0,0,1,532
1431,3,1,151,5,0,0,1,625
1432,3,1,152,32,1,1,1,520
1433,3,1,153,2,0,0,1,345
1434,3,1,154,32,1,1,1,615
1435,3,1,155,5,0,0,1,420
1436,3,1,156,5,0,0,1,416
1437,3,1,157,2,0,0,1,371
1438,3,1,158,10,0,0,1,394
1439,3,1,159,32,0,0,1,474
1440,3,1,160,32,1,1,1,818
1441,3,1,161,10,0,0,1,436
1442,3,1,162,20,0,0,1,496
1443,3,1,163,32,0,0,1,584
1444,3,1,164,5,1,1,1,843
1445,3,1,165,5,0,0,1,371
1446,3,1,166,5,1,1,1,455
1447,3,1,167,5,0,0,1,418
1448,3,1,168,2,0,0,1,381
1449,3,1,169,5,0,0,1,1544
1450,3,1,170,2,1,1,1,393
1451,3,1,171,2,1,1,1,566
1452,3,1,172,32,0,0,1,408
1453,3,1,173,5,1,1,1,433
1454,3,1,174,20,1,1,1,655
1455,3,1,175,2,1,1,1,391
1456,3,1,176,32,1,1,1,488
1457,3,1,177,5,0,0,1,408
1458,3,1,178,5,1,1,1,475
1459,3,1,179,5,1,1,1,417
1460,3,1,180,2,0,0,1,329
1461,3,1,181,5,0,0,1,331
1462,3,1,182,10,0,0,1,555
1463,3,1,183,32,0,0,1,496
1464,3,1,184,2,0,0,1,502
1465,3,1,185,5,1,1,1,517
1466,3,1,186,10,0,0,1,499
1467,3,1,187,2,1,1,1,405
1468,3,1,188,10,0,0,1,395
1469,3,1,189,20,0,0,1,557
1470,3,1,190,2,1,1,1,392
1471,3,1,191,10,1,1,1,473
1472,3,1,192,5,1,1,1,1277
1473,3,1,193,20,1,1,1,546
1474,3,1,194,32,0,0,1,447
1475,3,1,195,5,0,0,1,452
1476,3,1,196,10,0,0,1,454
1477,3,1,197,10,1,1,1,381
1478,3,1,198,2,0,0,1,365
1479,3,1,199,10,0,0,1,419
1480,3,1,200,2,0,0,1,438
1481,3,1,201,32,0,0,1,460
1482,3,1,202,1,0,0,1,415
1483,3,1,203,2,1,1,1,355
1484,3,1,204,10,1,1,1,602
1485,3,1,205,10,0,0,1,486
1486,3,1,206,32,1,1,1,564
1487,3,1,207,5,1,1,1,426
1488,3,1,208,2,0,0,1,342
1489,3,1,209,10,1,1,1,577
1490,3,1,210,20,1,1,1,442
1491,3,1,211,1,1,1,1,399
1492,3,1,212,1,1,1,1,314
1493,3,1,213,2,0,0,1,388
1494,3,1,214,5,1,1,1,365
1495,3,1,215,32,0,0,1,983
1496,3,1,216,5,1,1,1,643
1497,3,1,217,20,1,1,1,419
1498,3,1,218,5,0,0,0,351
1499,3,1,219,32,1,1,1,465
1500,3,1,220,10,1,1,1,409
1501,3,1,221,5,0,0,1,372
1502,3,1,222,32,0,0,1,439
1503,3,1,223,20,1,1,1,630
1504,3,1,224,10,0,0,1,483
1505,3,1,225,20,0,0,1,747
1506,3,1,226,10,1,1,1,489
1507,3,1,227,1,0,0,1,408
1508,3,1,228,32,0,0,1,1055
1509,3,1,229,5,1,1,1,468
1510,3,1,230,20,1,1,1,787
1511,3,1,231,1,0,0,1,397
1512,3,1,232,2,1,1,1,341
1513,3,1,233,20,1,1,1,860
1514,3,1,234,32,0,0,1,457
1515,3,1,235,32,0,0,1,456
1516,3,1,236,20,0,0,1,443
1517,3,1,237,10,1,1,1,408
1518,3,1,238,5,0,0,1,532
1519,3,1,239,20,1,1,1,405
1520,3,1,240,20,0,0,1,518
1521,3,1,241,10,1,1,1,786
1522,3,1,242,10,1,1,1,507
1523,3,1,243,5,0,0,1,486
1524,3,1,244,2,1,1,1,438
1525,3,1,245,5,1,1,1,476
1526,3,1,246,10,1,1,1,469
1527,3,1,247,2,1,1,1,390
1528,3,1,248,2,0,0,1,405
1529,3,1,249,10,0,0,1,508
1530,3,1,250,32,0,0,1,641
1531,3,1,251,5,1,1,1,413
1532,3,1,252,5,0,0,1,328
1533,3,1,253,20,0,0,1,394
1534,3,1,254,10,0,0,1,422
1535,3,1,255,2,1,1,1,432
1536,3,1,256,2,1,1,1,431
1537,3,1,257,10,0,0,1,536
1538,3,1,258,2,0,0,1,414
1539,3,1,259,5,1,1,1,536
1540,3,1,260,20,1,1,1,491
1541,3,1,261,32,0,0,1,1154
1542,3,1,262,5,1,1,1,512
1543,3,1,263,5,1,1,1,399
1544,3,1,264,10,1,1,1,520
1545,3,1,265,32,1,1,1,735
1546,3,1,266,10,0,0,1,694
1547,3,1,267,5,0,0,1,419
1548,3,1,268,2,1,1,1,356
1549,3,1,269,2,1,1,1,328
1550,3,1,270,2,0,0,1,327
1551,3,1,271,1,0,0,1,416
1552,3,1,272,10,0,0,1,515
1553,3,1,273,10,1,1,1,463
1554,3,1,274,2,0,0,1,458
1555,3,1,275,32,1,1,1,535
1556,3,1,276,5,1,1,1,411
1557,3,1,277,2,1,1,1,410
1558,3,1,278,2,0,0,1,344
1559,3,1,279,5,1,1,1,369
1560,3,1,280,32,1,1,1,454
1561,3,1,281,10,1,1,1,1201
1562,3,1,282,20,1,1,1,448
1563,3,1,283,5,0,0,1,462
1564,3,1,284,2,0,0,1,446
1565,3,1,285,20,1,1,1,504
1566,3,1,286,2,0,0,1,416
1567,3,1,287,10,1,1,1,430
1568,3,1,288,10,1,1,1,1023
1569,3,1,289,32,1,1,1,519
1570,3,1,290,32,0,0,1,657
1571,3,1,291,20,1,1,1,406
1572,3,1,292,10,1,1,1,621
1573,3,1,293,10,1,1,1,515
1574,3,1,294,2,0,0,1,355
1575,3,1,295,1,1,1,1,365
1576,3,1,296,2,1,1,1,384
1577,3,1,297,5,1,1,1,654
1578,3,1,298,5,1,1,1,406
1579,3,1,299,20,0,0,1,730
1580,3,1,300,20,0,0,1,824
1581,3,1,301,2,0,0,1,361
1582,3,1,302,2,0,0,1,744
1583,3,1,303,10,0,0,1,432
1584,3,1,304,10,0,0,1,390
1585,3,1,305,5,1,1,1,432
1586,3,1,306,20,1,1,1,535
1587,3,1,307,2,1,1,1,461
1588,3,1,308,10,0,0,1,572
1589,3,1,309,5,0,0,1,554
1590,3,1,310,5,0,0,1,378
1591,3,1,311,1,1,1,1,385
1592,3,1,312,5,1,1,1,355
1593,3,1,313,10,1,1,1,513
1594,3,1,314,20,0,0,1,596
1595,3,1,315,2,1,1,1,437
1596,3,1,316,10,0,0,1,473
1597,3,1,317,2,0,0,1,521
1598,3,1,318,10,1,1,1,442
1599,3,1,319,5,1,1,1,415
1600,3,1,320,10,0,0,1,461
1601,3,1,321,20,1,1,1,646
1602,3,1,322,10,1,1,1,452
1603,3,1,323,32,1,1,1,484
1604,3,1,324,32,0,0,1,578
1605,3,1,325,32,1,1,1,521
1606,3,1,326,1,1,1,1,386
1607,3,1,327,32,0,0,1,610
1608,3,1,328,32,1,1,1,442
1609,3,1,329,10,1,1,1,377
1610,3,1,330,10,0,0,1,875
1611,3,1,331,32,1,1,1,462
1612,3,1,332,1,0,0,1,376
1613,3,1,333,20,0,0,1,522
1614,3,1,334,32,0,0,1,467
1615,3,1,335,20,0,0,1,492
1616,3,1,336,32,1,1,1,636
1617,3,1,337,32,0,0,1,409
1618,3,1,338,20,1,1,1,538
1619,3,1,339,20,1,1,1,372
1620,3,1,340,10,1,1,1,479
1621,3,1,341,1,0,0,1,358
1622,3,1,342,20,0,0,1,497
1623,3,1,343,20,1,1,1,775
1624,3,1,344,32,0,0,1,403
1625,3,1,345,2,0,0,1,395
1626,3,1,346,5,0,0,1,394
1627,3,1,347,5,1,1,1,368
1628,3,1,348,32,1,1,1,397
1629,3,1,349,20,0,0,1,491
1630,3,1,350,2,1,1,1,368
1631,3,1,351,10,1,1,1,372
1632,3,1,352,32,0,0,1,983
1633,3,1,353,10,0,0,1,448
1634,3,1,354,10,1,1,1,358
1635,3,1,355,32,0,0,1,958
1636,3,1,356,20,0,0,1,495
1637,3,1,357,10,1,1,1,423
1638,3,1,358,5,0,0,1,385
1639,3,1,359,10,1,1,1,462
1640,3,1,360,2,1,1,1,412
1641,3,1,361,5,1,1,1,524
1642,3,1,362,10,1,1,1,476
1643,3,1,363,32,1,1,1,635
1644,3,1,364,32,1,1,1,415
1645,3,1,365,20,1,1,1,637
1646,3,1,366,32,1,1,1,1828
1647,3,1,367,20,0,0,1,740
1648,3,1,368,20,0,0,1,481
1649,3,1,369,2,0,0,1,474
1650,3,1,370,1,0,0,1,326
1651,3,1,371,10,1,1,1,745
1652,3,1,372,5,1,1,1,440
1653,3,1,373,1,1,1,1,326
1654,3,1,374,20,1,1,1,390
1655,3,1,375,10,1,1,1,441
1656,3,1,376,20,0,0,1,407
1657,3,1,377,10,1,1,1,450
1658,3,1,378,2,0,0,1,342
1659,3,1,379,20,1,1,1,350
1660,3,1,380,5,0,0,1,628
1661,3,1,381,1,0,0,1,345
1662,3,1,382,5,0,0,1,354
1663,3,1,383,2,0,0,1,367
1664,3,1,384,2,1,1,1,371
1665,3,1,385,10,0,0,1,448
1666,3,1,386,2,1,1,1,501
1667,3,1,387,1,0,0,1,368
1668,3,1,388,20,1,1,1,534
1669,3,1,389,2,1,1,0,321
1670,3,1,390,2,1,1,1,364
1671,3,1,391,32,0,0,1,609
1672,3,1,392,2,0,0,1,383
1673,3,1,393,32,0,0,1,1363
1674,3,1,394,32,1,1,1,449
1675,3,1,395,2,1,1,1,443
1676,3,1,396,20,0,0,1,661
1677,3,1,397,5,0,0,1,578
1678,3,1,398,20,1,1,1,444
1679,3,1,399,32,0,0,1,1178
1680,3,1,400,5,0,0,1,632
1681,3,1,401,32,0,0,1,891
1682,3,1,402,2,0,0,1,340
1683,3,1,403,5,1,1,1,381
1684,3,1,404,2,0,0,1,404
1685,3,1,405,5,1,1,1,434
1686,3,1,406,10,1,1,1,434
1687,3,1,407,32,1,1,1,420
1688,3,1,408,20,1,1,1,1088
1689,3,1,409,10,0,0,1,455
1690,3,1,410,32,1,1,1,2248
1691,3,1,411,1,0,0,1,432
1692,3,1,412,32,1,1,1,694
1693,3,1,413,1,0,0,1,391
1694,3,1,414,20,1,1,1,427
1695,3,1,415,5,1,1,1,426
1696,3,1,416,20,1,1,1,655
1697,3,1,417,1,1,1,1,453
1698,3,1,418,2,1,1,1,414
1699,3,1,419,10,1,1,1,536
1700,3,1,420,5,1,1,1,430
1701,3,1,421,10,0,0,1,579
1702,3,1,422,32,0,0,1,603
1703,3,1,423,1,0,0,1,2604
1704,3,1,424,1,1,1,1,381
1705,3,1,425,2,1,1,1,341
1706,3,1,426,20,1,1,1,501
1707,3,1,427,2,1,1,1,383
1708,3,1,428,5,1,1,1,351
1709,3,1,429,2,1,1,1,346
1710,3,1,430,10,1,1,1,334
1711,3,1,431,5,1,1,1,378
1712,3,1,432,10,0,0,1,567
1713,3,1,433,1,1,1,1,381
1714,3,1,434,20,1,1,1,476
1715,3,1,435,5,1,1,1,375
1716,3,1,436,2,1,1,1,334
1717,3,1,437,2,0,0,1,520
1718,3,1,438,5,0,0,1,336
1719,3,1,439,20,0,0,1,992
1720,3,1,440,5,0,0,1,780
1721,3,1,441,20,0,0,1,507
1722,3,1,442,32,0,0,1,607
1723,3,1,443,10,0,0,1,384
1724,3,1,444,5,0,0,1,382
1725,3,1,445,5,0,0,0,342
1726,3,1,446,5,0,0,1,371
1727,3,1,447,20,1,1,1,533
1728,3,1,448,32,1,1,1,1349
1729,3,1,449,32,1,1,1,533
1730,3,1,450,5,1,1,1,536
1731,3,1,451,10,1,1,1,503
1732,3,1,452,20,0,0,1,447
1733,3,1,453,5,0,0,1,514
1734,3,1,454,5,0,0,1,566
1735,3,1,455,5,0,0,1,553
1736,3,1,456,10,0,0,1,477
1737,3,1,457,32,1,1,1,513
1738,3,1,458,2,1,1,1,437
1739,3,1,459,5,1,1,1,490
1740,3,1,460,2,0,0,1,455
1741,3,1,461,20,0,0,1,522
1742,3,1,462,32,0,0,1,624
1743,3,1,463,2,1,1,1,431
1744,3,1,464,2,1,1,1,466
1745,3,1,465,32,1,1,1,484
1746,3,1,466,32,1,1,1,388
1747,3,1,467,32,0,0,1,537
1748,3,1,468,20,1,1,1,1669
1749,3,1,469,32,1,1,1,482
1750,3,1,470,20,0,0,1,462
1751,3,1,471,5,0,0,1,429
1752,3,1,472,20,1,1,1,444
1753,3,1,473,10,1,1,1,366
1754,3,1,474,5,0,0,1,457
1755,3,1,475,10,0,0,1,436
1756,3,1,476,5,1,1,1,558
1757,3,1,477,2,0,0,1,378
1758,3,1,478,2,1,1,1,365
1759,3,1,479,32,0,0,1,1122
1760,3,1,480,10,1,1,1,553
1761,3,1,481,20,0,0,1,539
1762,3,1,482,32,0,0,1,4700
1763,3,1,483,32,1,1,1,471
1764,3,1,484,5,0,0,1,378
1765,3,1,485,10,1,1,1,634
1766,3,1,486,32,0,0,1,463
1767,3,1,487,20,0,0,1,510
1768,3,1,488,5,1,1,1,375
1769,3,1,489,20,0,0,1,613
1770,3,1,490,5,1,1,1,450
1771,3,1,491,2,0,0,1,958
1772,3,1,492,10,0,0,1,452
1773,3,1,493,32,0,0,0,595
1774,3,1,494,5,1,1,1,660
1775,3,1,495,32,0,0,1,635
1776,3,1,496,32,1,1,1,435
1777,3,1,497,20,1,1,1,388
1778,3,1,498,32,0,0,1,848
1779,3,1,499,20,0,0,1,493
1780,3,1,500,2,1,1,1,414
1781,3,1,501,20,0,0,1,399
1782,3,1,502,32,0,0,1,508
1783,3,1,503,2,0,0,1,494
1784,3,1,504,32,1,1,1,761
1785,3,1,505,5,0,0,1,425
1786,3,1,506,2,1,1,1,456
1787,3,1,507,32,0,0,1,1421
1788,3,1,508,1,0,0,1,340
1789,3,1,509,10,1,1,1,528
1790,3,1,510,5,1,1,1,384
1791,3,1,511,32,0,0,1,768
1792,3,1,512,10,0,0,1,506
1793,3,1,513,5,1,1,1,488
1794,3,1,514,5,0,0,1,495
1795,3,1,515,10,0,0,1,471
1796,3,1,516,5,0,0,1,447
1797,3,1,517,20,0,0,1,486
1798,3,1,518,2,0,0,1,486
1799,3,1,519,32,0,0,1,616
1800,3,1,520,10,1,1,1,463
1801,3,1,521,5,1,1,1,615
1802,3,1,522,20,1,1,1,448
1803,3,1,523,2,1,1,1,381
1804,3,1,524,32,0,0,1,471
1805,3,1,525,10,1,1,1,444
1806,3,1,526,20,0,0,1,480
1807,3,1,527,2,0,0,1,505
1808,3,1,528,2,1,1,1,386
1809,3,1,529,32,0,0,1,512
1810,3,1,530,32,0,0,1,426
1811,3,1,531,10,0,0,1,435
1812,3,1,532,10,0,0,1,433
1813,3,1,533,10,0,0,1,554
1814,3,1,534,32,1,1,1,506
1815,3,1,535,32,1,1,1,396
1816,3,1,536,1,1,1,1,497
1817,3,1,537,32,1,1,1,439
1818,3,1,538,1,1,1,1,418
1819,3,1,539,20,0,0,1,480
1820,3,1,540,1,0,0,1,344
1821,3,1,541,5,1,1,1,550
1822,3,1,542,10,1,1,1,363
1823,3,1,543,10,0,0,1,366
1824,3,1,544,2,0,0,1,596
1825,3,1,545,2,0,0,1,877
1826,3,1,546,20,0,0,1,509
1827,3,1,547,20,0,0,1,420
1828,3,1,548,10,1,1,1,481
1829,3,1,549,1,1,1,1,371
1830,3,1,550,20,1,1,1,974
1831,3,1,551,10,1,1,1,451
1832,3,1,552,32,1,1,1,541
1833,3,1,553,20,0,0,1,634
1834,3,1,554,32,0,0,1,615
1835,3,1,555,5,1,1,1,449
1836,3,1,556,20,0,0,1,1228
1837,3,1,557,20,0,0,1,622
1838,3,1,558,5,1,1,1,451
1839,3,1,559,20,0,0,1,719
1840,3,1,560,20,1,1,1,539
1841,3,1,561,2,0,0,1,519
1842,3,1,562,20,1,1,1,412
1843,3,1,563,2,0,0,1,558
1844,3,1,564,5,1,1,1,894
1845,3,1,565,32,1,1,1,493
1846,3,1,566,2,1,1,1,488
1847,3,1,567,2,1,1,1,746
1848,3,1,568,2,1,1,1,904
1849,3,1,569,2,1,1,1,465
1850,3,1,570,5,1,1,1,422
1851,3,1,571,20,0,0,1,1686
1852,3,1,572,32,0,0,1,725
1853,3,1,573,10,0,0,1,453
1854,3,1,574,32,1,1,1,490
1855,3,1,575,32,1,1,1,507
1856,3,1,576,32,1,1,1,617
1857,3,1,577,2,1,1,1,410
1858,3,1,578,10,1,1,1,405
1859,3,1,579,10,0,0,1,438
1860,3,1,580,1,1,1,1,397
1861,3,1,581,5,1,1,1,415
1862,3,1,582,20,0,0,1,567
1863,3,1,583,32,1,1,1,465
1864,3,1,584,1,0,0,1,410
1865,3,1,585,20,1,1,1,554
1866,3,1,586,5,0,0,1,394
1867,3,1,587,5,0,0,1,597
1868,3,1,588,32,1,1,1,2848
1869,3,1,589,5,0,0,1,431
1870,3,1,590,5,0,0,1,493
1871,3,1,591,5,1,1,1,577
1872,3,1,592,10,0,0,1,420
1873,3,1,593,2,0,0,1,405
1874,3,1,594,20,0,0,1,1013
1875,3,1,595,10,0,0,1,481
1876,3,1,596,20,1,1,1,489
1877,3,1,597,32,1,1,1,1686
1878,3,1,598,20,0,0,1,545
1879,3,1,599,5,0,0,1,467
1880,3,1,600,32,1,1,1,431
1881,3,1,601,32,1,1,1,631
1882,3,1,602,32,0,0,1,527
1883,3,1,603,20,0,0,1,470
1884,3,1,604,10,1,1,1,494
1885,3,1,605,20,1,1,1,870
1886,3,1,606,20,1,1,1,470
1887,3,1,607,1,1,1,1,468
1888,3,1,608,5,0,0,1,508
1889,3,1,609,10,1,1,1,435
1890,3,1,610,32,0,0,1,556
1891,3,1,611,5,0,0,1,514
1892,3,1,612,32,0,0,1,679
1893,3,1,613,32,1,1,1,571
1894,3,1,614,2,1,1,1,424
1895,3,1,615,20,0,0,1,868
1896,3,1,616,32,0,0,1,735
1897,3,1,617,10,0,0,1,451
1898,3,1,618,20,0,0,1,863
1899,3,1,619,20,0,0,1,514
1900,3,1,620,32,1,1,1,1999
1901,3,1,621,2,1,1,1,408
1902,3,1,622,2,0,0,1,541
1903,3,1,623,2,0,0,1,446
1904,3,1,624,1,1,1,1,396
1905,3,1,625,1,0,0,1,380
1906,3,1,626,32,0,0,1,791
1907,3,1,627,10,0,0,1,508
1908,3,1,628,20,1,1,1,473
1909,3,1,629,2,0,0,1,405
1910,3,1,630,32,0,0,1,502
1911,3,1,631,20,0,0,1,717
1912,3,1,632,2,1,1,1,455
1913,3,1,633,2,0,0,1,535
1914,3,1,634,10,1,1,1,460
1915,3,1,635,20,0,0,1,600
1916,3,1,636,2,1,1,1,407
1917,3,1,637,5,0,0,1,514
1918,3,1,638,5,0,0,1,476
1919,3,1,639,5,1,1,1,473
1920,3,1,640,32,1,1,1,1059
1921,4,1,1,5,0,0,1,602
1922,4,1,2,2,0,0,1,554
1923,4,1,3,1,1,1,1,427
1924,4,1,4,2,0,0,1,388
1925,4,1,5,1,0,0,1,365
1926,4,1,6,1,1,1,1,385
1927,4,1,7,2,0,0,1,502
1928,4,1,8,32,0,0,1,2101
1929,4,1,9,5,1,1,1,688
1930,4,1,10,2,0,0,1,796
1931,4,1,11,32,0,0,1,637
1932,4,1,12,32,1,1,1,640
1933,4,1,13,2,1,1,1,974
1934,4,1,14,2,0,0,1,486
1935,4,1,15,20,0,0,1,616
1936,4,1,16,20,0,0,1,634
1937,4,1,17,10,0,0,1,672
1938,4,1,18,10,0,0,1,458
1939,4,1,19,10,0,0,1,482
1940,4,1,20,10,0,0,1,867
1941,4,1,21,32,1,1,1,914
1942,4,1,22,32,1,1,1,528
1943,4,1,23,32,0,0,1,599
1944,4,1,24,2,1,1,1,578
1945,4,1,25,20,1,1,1,553
1946,4,1,26,10,1,1,1,471
1947,4,1,27,10,0,0,1,633
1948,4,1,28,20,1,1,1,615
1949,4,1,29,20,0,0,1,447
1950,4,1,30,20,1,1,1,438
1951,4,1,31,32,0,0,0,2314
1952,4,1,32,20,0,0,1,961
1953,4,1,33,2,0,0,1,609
1954,4,1,34,32,1,1,1,501
1955,4,1,35,32,0,0,1,1438
1956,4,1,36,2,1,1,1,542
1957,4,1,37,10,1,1,1,555
1958,4,1,38,32,0,0,1,591
1959,4,1,39,20,1,1,1,1004
1960,4,1,40,2,0,0,1,754
1961,4,1,41,32,1,1,1,578
1962,4,1,42,20,1,1,1,514
1963,4,1,43,5,0,0,1,465
1964,4,1,44,1,1,1,1,514
1965,4,1,45,5,1,1,1,551
1966,4,1,46,32,1,1,1,607
1967,4,1,47,20,0,0,1,864
1968,4,1,48,20,1,1,1,499
1969,4,1,49,10,1,1,1,674
1970,4,1,50,10,1,1,1,595
1971,4,1,51,20,1,1,1,791
1972,4,1,52,1,1,1,1,463
1973,4,1,53,5,0,0,1,798
1974,4,1,54,20,0,0,1,620
1975,4,1,55,10,0,0,1,1471
1976,4,1,56,32,1,1,1,710
1977,4,1,57,5,0,0,1,857
1978,4,1,58,10,1,1,1,763
1979,4,1,59,10,1,1,1,702
1980,4,1,60,5,0,0,1,576
1981,4,1,61,5,1,1,1,631
1982,4,1,62,32,0,0,1,718
1983,4,1,63,5,0,0,1,667
1984,4,1,64,2,0,0,1,666
1985,4,1,65,32,0,0,1,535
1986,4,1,66,20,1,1,1,852
1987,4,1,67,2,1,1,1,576
1988,4,1,68,20,0,0,1,617
1989,4,1,69,5,1,1,1,639
1990,4,1,70,10,1,1,1,516
1991,4,1,71,32,0,0,1,668
1992,4,1,72,10,1,1,1,680
1993,4,1,73,5,0,0,1,764
1994,4,1,74,32,1,1,1,1594
1995,4,1,75,32,1,1,1,1070
1996,4,1,76,5,1,1,1,830
1997,4,1,77,2,1,1,1,665
1998,4,1,78,10,0,0,1,771
1999,4,1,79,2,1,1,1,517
2000,4,1,80,20,1,1,1,488
2001,4,1,81,1,1,1,1,541
2002,4,1,82,2,0,0,1,537
2003,4,1,83,2,1,1,1,533
2004,4,1,84,5,1,1,1,446
2005,4,1,85,32,1,1,1,429
2006,4,1,86,10,1,1,1,472
2007,4,1,87,2,0,0,1,602
2008,4,1,88,20,1,1,1,778
2009,4,1,89,10,1,1,1,589
2010,4,1,90,2,1,1,1,411
2011,4,1,91,20,0,0,1,558
2012,4,1,92,20,0,0,1,931
2013,4,1,93,5,1,1,1,688
2014,4,1,94,2,0,0,1,884
2015,4,1,95,20,1,1,1,948
2016,4,1,96,10,0,0,1,683
2017,4,1,97,10,1,1,1,527
2018,4,1,98,10,1,1,1,561
2019,4,1,99,5,0,0,1,746
2020,4,1,100,2,1,1,1,541
2021,4,1,101,20,1,1,1,1263
2022,4,1,102,32,0,0,1,1664
2023,4,1,103,20,0,0,1,597
2024,4,1,104,20,0,0,1,519
2025,4,1,105,32,0,0,1,548
2026,4,1,106,32,1,1,1,598
2027,4,1,107,10,0,0,1,645
2028,4,1,108,10,1,1,1,658
2029,4,1,109,20,0,0,1,513
2030,4,1,110,10,0,0,1,555
2031,4,1,111,20,0,0,1,665
2032,4,1,112,32,0,0,1,617
2033,4,1,113,32,0,0,1,1069
2034,4,1,114,32,1,1,1,765
2035,4,1,115,1,1,1,1,447
2036,4,1,116,32,1,1,1,542
2037,4,1,117,5,1,1,1,558
2038,4,1,118,20,1,1,1,477
2039,4,1,119,20,1,1,1,432
2040,4,1,120,20,0,0,1,2269
2041,4,1,121,5,1,1,1,617
2042,4,1,122,5,1,1,1,545
2043,4,1,123,5,1,1,1,932
2044,4,1,124,1,0,0,1,507
2045,4,1,125,20,0,0,1,580
2046,4,1,126,32,0,0,1,1101
2047,4,1,127,20,1,1,1,573
2048,4,1,128,32,1,1,1,701
2049,4,1,129,2,1,1,1,732
2050,4,1,130,20,0,0,1,929
2051,4,1,131,32,0,0,1,2314
2052,4,1,132,32,1,1,1,588
2053,4,1,133,2,1,1,1,443
2054,4,1,134,5,0,0,1,535
2055,4,1,135,32,0,0,1,515
2056,4,1,136,5,1,1,1,645
2057,4,1,137,10,1,1,1,636
2058,4,1,138,32,0,0,1,559
2059,4,1,139,5,0,0,1,633
2060,4,1,140,10,1,1,1,593
2061,4,1,141,2,1,1,1,590
2062,4,1,142,32,0,0,1,2076
2063,4,1,143,10,1,1,1,489
2064,4,1,144,32,1,1,1,529
2065,4,1,145,20,0,0,1,589
2066,4,1,146,32,0,0,1,467
2067,4,1,147,5,1,1,1,593
2068,4,1,148,32,0,0,1,1109
2069,4,1,149,10,0,0,1,721
2070,4,1,150,32,1,1,1,652
2071,4,1,151,20,1,1,1,1227
2072,4,1,152,10,0,0,1,573
2073,4,1,153,5,1,1,1,565
2074,4,1,154,2,1,1,1,473
2075,4,1,155,32,1,1,1,441
2076,4,1,156,32,0,0,1,637
2077,4,1,157,2,0,0,1,383
2078,4,1,158,5,0,0,1,426
2079,4,1,159,5,0,0,1,973
2080,4,1,160,2,0,0,1,687
2081,4,1,161,20,0,0,1,513
2082,4,1,162,32,1,1,1,562
2083,4,1,163,20,0,0,1,779
2084,4,1,164,10,1,1,1,509
2085,4,1,165,32,0,0,1,726
2086,4,1,166,1,0,0,1,468
2087,4,1,167,32,1,1,1,2494
2088,4,1,168,1,0,0,1,539
2089,4,1,169,5,0,0,1,535
2090,4,1,170,10,1,1,1,679
2091,4,1,171,2,0,0,1,560
2092,4,1,172,10,1,1,1,517
2093,4,1,173,20,1,1,1,730
2094,4,1,174,10,0,0,1,559
2095,4,1,175,5,0,0,1,674
2096,4,1,176,32,0,0,1,980
2097,4,1,177,32,1,1,1,579
2098,4,1,178,2,1,1,1,596
2099,4,1,179,20,0,0,1,640
2100,4,1,180,10,1,1,1,986
2101,4,1,181,32,0,0,1,774
2102,4,1,182,32,0,0,1,1515
2103,4,1,183,10,1,1,1,529
2104,4,1,184,5,1,1,1,642
2105,4,1,185,5,0,0,1,565
2106,4,1,186,32,0,0,1,445
2107,4,1,187,10,1,1,1,550
2108,4,1,188,10,0,0,1,591
2109,4,1,189,32,0,0,1,520
2110,4,1,190,5,0,0,1,493
2111,4,1,191,32,0,0,1,613
2112,4,1,192,32,1,1,1,1386
2113,4,1,193,20,0,0,1,606
2114,4,1,194,20,0,0,1,495
2115,4,1,195,32,0,0,1,555
2116,4,1,196,1,0,0,1,385
2117,4,1,197,5,1,1,1,669
2118,4,1,198,2,1,1,1,597
2119,4,1,199,2,0,0,1,451
2120,4,1,200,32,0,0,1,609
2121,4,1,201,5,1,1,1,793
2122,4,1,202,10,1,1,1,534
2123,4,1,203,2,0,0,0,355
2124,4,1,204,10,0,0,1,771
2125,4,1,205,5,0,0,1,552
2126,4,1,206,10,1,1,1,555
2127,4,1,207,20,1,1,1,559
2128,4,1,208,32,0,0,1,712
2129,4,1,209,10,0,0,1,427
2130,4,1,210,1,0,0,1,482
2131,4,1,211,5,1,1,1,767
2132,4,1,212,32,0,0,1,1237
2133,4,1,213,5,0,0,1,611
2134,4,1,214,2,0,0,1,552
2135,4,1,215,32,1,1,1,650
2136,4,1,216,5,0,0,1,680
2137,4,1,217,2,1,1,1,583
2138,4,1,218,32,0,0,1,521
2139,4,1,219,1,1,1,1,555
2140,4,1,220,5,1,1,1,748
2141,4,1,221,2,0,0,1,544
2142,4,1,222,20,1,1,1,717
2143,4,1,223,5,0,0,1,451
2144,4,1,224,2,1,1,1,504
2145,4,1,225,32,1,1,1,558
2146,4,1,226,20,1,1,1,805
2147,4,1,227,2,1,1,1,436
2148,4,1,228,20,1,1,1,913
2149,4,1,229,32,1,1,1,537
2150,4,1,230,1,0,0,1,499
2151,4,1,231,32,1,1,1,1286
2152,4,1,232,10,0,0,1,712
2153,4,1,233,5,1,1,1,443
2154,4,1,234,20,1,1,0,482
2155,4,1,235,10,1,1,1,575
2156,4,1,236,2,1,1,1,517
2157,4,1,237,2,0,0,1,517
2158,4,1,238,10,0,0,1,433
2159,4,1,239,10,1,1,1,890
2160,4,1,240,2,0,0,1,638
2161,4,1,241,2,0,0,1,853
2162,4,1,242,2,1,1,1,566
2163,4,1,243,2,1,1,1,473
2164,4,1,244,10,1,1,1,455
2165,4,1,245,10,0,0,1,613
2166,4,1,246,10,0,0,1,578
2167,4,1,247,5,1,1,1,708
2168,4,1,248,20,0,0,1,437
2169,4,1,249,32,1,1,1,1923
2170,4,1,250,2,1,1,1,496
2171,4,1,251,32,1,1,1,487
2172,4,1,252,20,0,0,1,782
2173,4,1,253,20,1,1,1,870
2174,4,1,254,5,0,0,1,617
2175,4,1,255,5,0,0,1,520
2176,4,1,256,10,0,0,1,593
2177,4,1,257,2,0,0,1,539
2178,4,1,258,5,0,0,1,669
2179,4,1,259,2,1,1,1,436
2180,4,1,260,32,1,1,1,597
2181,4,1,261,1,0,0,1,553
2182,4,1,262,20,0,0,1,713
2183,4,1,263,10,0,0,1,674
2184,4,1,264,10,0,0,1,597
2185,4,1,265,5,1,1,1,1177
2186,4,1,266,5,0,0,1,524
2187,4,1,267,20,1,1,1,625
2188,4,1,268,5,0,0,1,529
2189,4,1,269,5,0,0,1,451
2190,4,1,270,2,0,0,1,454
2191,4,1,271,20,1,1,1,517
2192,4,1,272,5,1,1,1,632
2193,4,1,273,32,1,1,1,705
2194,4,1,274,10,1,1,1,470
2195,4,1,275,10,0,0,1,713
2196,4,1,276,5,1,1,1,509
2197,4,1,277,32,1,1,1,986
2198,4,1,278,1,0,0,1,468
2199,4,1,279,20,0,0,1,646
2200,4,1,280,20,0,0,1,545
2201,4,1,281,10,1,1,1,661
2202,4,1,282,5,1,1,1,467
2203,4,1,283,32,1,1,1,384
2204,4,1,284,32,0,0,1,905
2205,4,1,285,5,1,1,1,510
2206,4,1,286,10,0,0,1,742
2207,4,1,287,10,0,0,1,535
2208,4,1,288,2,1,1,1,582
2209,4,1,289,10,0,0,1,838
2210,4,1,290,2,1,1,1,585
2211,4,1,291,2,1,1,1,1104
2212,4,1,292,5,0,0,1,453
2213,4,1,293,20,1,1,1,503
2214,4,1,294,20,0,0,1,1208
2215,4,1,295,20,1,1,1,680
2216,4,1,296,20,0,0,1,557
2217,4,1,297,20,1,1,1,532
2218,4,1,298,2,1,1,1,440
2219,4,1,299,2,1,1,1,533
2220,4,1,300,1,0,0,1,418
2221,4,1,301,1,1,1,1,530
2222,4,1,302,5,1,1,1,786
2223,4,1,303,5,1,1,1,668
2224,4,1,304,2,1,1,1,493
2225,4,1,305,20,1,1,1,938
2226,4,1,306,10,1,1,1,527
2227,4,1,307,2,0,0,1,523
2228,4,1,308,5,1,1,1,513
2229,4,1,309,10,1,1,1,741
2230,4,1,310,20,0,0,1,936
2231,4,1,311,10,1,1,1,708
2232,4,1,312,2,1,1,1,554
2233,4,1,313,32,1,1,1,827
2234,4,1,314,10,0,0,1,929
2235,4,1,315,2,0,0,1,1060
2236,4,1,316,5,0,0,1,679
2237,4,1,317,10,1,1,1,542
2238,4,1,318,32,0,0,1,929
2239,4,1,319,32,1,1,1,557
2240,4,1,320,5,1,1,1,451
2241,4,1,321,20,1,1,1,997
2242,4,1,322,2,1,1,1,713
2243,4,1,323,32,0,0,1,532
2244,4,1,324,1,1,1,1,487
2245,4,1,325,2,1,1,1,405
2246,4,1,326,10,1,1,1,379
2247,4,1,327,20,1,1,1,581
2248,4,1,328,2,0,0,1,646
2249,4,1,329,20,1,1,1,501
2250,4,1,330,20,0,0,1,465
2251,4,1,331,20,0,0,1,691
2252,4,1,332,5,1,1,1,1092
2253,4,1,333,20,1,1,1,1263
2254,4,1,334,10,1,1,1,560
2255,4,1,335,2,1,1,1,590
2256,4,1,336,32,1,1,1,504
2257,4,1,337,10,1,1,1,481
2258,4,1,338,32,0,0,1,584
2259,4,1,339,32,1,1,1,599
2260,4,1,340,5,0,0,1,480
2261,4,1,341,20,0,0,1,520
2262,4,1,342,20,1,1,1,422
2263,4,1,343,32,0,0,1,601
2264,4,1,344,5,1,1,1,618
2265,4,1,345,1,0,0,1,466
2266,4,1,346,32,1,1,1,433
2267,4,1,347,20,0,0,1,551
2268,4,1,348,10,1,1,1,438
2269,4,1,349,32,0,0,1,482
2270,4,1,350,20,1,1,1,913
2271,4,1,351,1,0,0,1,532
2272,4,1,352,2,1,1,1,519
2273,4,1,353,2,0,0,1,632
2274,4,1,354,10,1,1,1,463
2275,4,1,355,2,1,1,1,866
2276,4,1,356,5,1,1,1,738
2277,4,1,357,2,1,1,1,598
2278,4,1,358,2,0,0,1,553
2279,4,1,359,2,1,1,1,560
2280,4,1,360,10,1,1,1,583
2281,4,1,361,5,0,0,1,524
2282,4,1,362,20,0,0,1,541
2283,4,1,363,32,1,1,1,606
2284,4,1,364,32,1,1,1,529
2285,4,1,365,20,1,1,1,578
2286,4,1,366,2,1,1,1,396
2287,4,1,367,2,1,1,1,398
2288,4,1,368,2,0,0,1,540
2289,4,1,369,5,0,0,1,717
2290,4,1,370,10,0,0,1,493
2291,4,1,371,20,0,0,1,550
2292,4,1,372,2,1,1,1,502
2293,4,1,373,32,1,1,1,525
2294,4,1,374,32,0,0,1,696
2295,4,1,375,32,0,0,1,521
2296,4,1,376,20,1,1,1,821
2297,4,1,377,32,0,0,1,667
2298,4,1,378,10,0,0,1,515
2299,4,1,379,2,1,1,1,552
2300,4,1,380,20,0,0,1,542
2301,4,1,381,32,1,1,1,689
2302,4,1,382,2,0,0,1,421
2303,4,1,383,10,0,0,1,518
2304,4,1,384,2,1,1,1,632
2305,4,1,385,5,0,0,1,560
2306,4,1,386,32,1,1,1,580
2307,4,1,387,5,0,0,1,593
2308,4,1,388,20,0,0,1,552
2309,4,1,389,5,1,1,1,600
2310,4,1,390,20,0,0,1,1405
2311,4,1,391,20,1,1,1,584
2312,4,1,392,10,0,0,1,505
2313,4,1,393,1,1,1,1,563
2314,4,1,394,1,0,0,1,480
2315,4,1,395,32,1,1,1,993
2316,4,1,396,2,0,0,1,770
2317,4,1,397,2,0,0,1,473
2318,4,1,398,1,0,0,1,540
2319,4,1,399,5,1,1,1,519
2320,4,1,400,2,0,0,1,1358
2321,4,1,401,5,1,1,1,630
2322,4,1,402,10,0,0,1,448
2323,4,1,403,2,0,0,1,422
2324,4,1,404,1,1,1,1,491
2325,4,1,405,20,0,0,1,607
2326,4,1,406,10,0,0,1,722
2327,4,1,407,10,1,1,1,647
2328,4,1,408,20,1,1,1,692
2329,4,1,409,32,1,1,1,502
2330,4,1,410,10,0,0,1,526
2331,4,1,411,20,0,0,1,541
2332,4,1,412,10,0,0,1,537
2333,4,1,413,5,0,0,1,602
2334,4,1,414,5,0,0,1,692
2335,4,1,415,1,1,1,1,460
2336,4,1,416,32,0,0,1,497
2337,4,1,417,20,0,0,1,655
2338,4,1,418,5,1,1,1,598
2339,4,1,419,5,0,0,1,465
2340,4,1,420,5,1,1,1,1007
2341,4,1,421,2,1,1,1,679
2342,4,1,422,2,0,0,1,649
2343,4,1,423,32,1,1,1,603
2344,4,1,424,32,0,0,1,640
2345,4,1,425,2,0,0,1,507
2346,4,1,426,2,0,0,1,550
2347,4,1,427,32,0,0,1,745
2348,4,1,428,1,1,1,1,524
2349,4,1,429,5,0,0,1,709
2350,4,1,430,32,0,0,1,582
2351,4,1,431,10,0,0,1,525
2352,4,1,432,1,0,0,1,481
2353,4,1,433,2,0,0,1,464
2354,4,1,434,10,0,0,1,531
2355,4,1,435,5,0,0,1,431
2356,4,1,436,10,1,1,1,638
2357,4,1,437,10,0,0,1,510
2358,4,1,438,5,1,1,1,559
2359,4,1,439,10,0,0,1,596
2360,4,1,440,5,0,0,1,432
2361,4,1,441,2,0,0,1,488
2362,4,1,442,1,0,0,1,363
2363,4,1,443,10,0,0,1,598
2364,4,1,444,10,1,1,1,459
2365,4,1,445,10,1,1,1,624
2366,4,1,446,10,0,0,1,435
2367,4,1,447,32,0,0,1,1748
2368,4,1,448,20,0,0,1,535
2369,4,1,449,5,0,0,1,372
2370,4,1,450,10,0,0,1,433
2371,4,1,451,10,1,1,1,745
2372,4,1,452,5,0,0,1,426
2373,4,1,453,5,0,0,1,510
2374,4,1,454,1,1,1,1,571
2375,4,1,455,10,1,1,1,511
2376,4,1,456,32,0,0,1,568
2377,4,1,457,5,0,0,1,771
2378,4,1,458,20,1,1,1,580
2379,4,1,459,10,0,0,1,767
2380,4,1,460,2,1,1,1,607
2381,4,1,461,1,1,1,1,546
2382,4,1,462,20,0,0,1,1053
2383,4,1,463,20,0,0,1,558
2384,4,1,464,2,1,1,1,585
2385,4,1,465,1,0,0,1,557
2386,4,1,466,32,1,1,1,561
2387,4,1,467,20,1,1,1,686
2388,4,1,468,1,0,0,1,490
2389,4,1,469,2,0,0,1,560
2390,4,1,470,2,1,1,1,508
2391,4,1,471,2,0,0,1,721
2392,4,1,472,10,1,1,1,594
2393,4,1,473,32,0,0,1,471
2394,4,1,474,20,1,1,1,689
2395,4,1,475,2,0,0,1,631
2396,4,1,476,5,0,0,1,466
2397,4,1,477,2,1,1,1,597
2398,4,1,478,10,0,0,1,548
2399,4,1,479,20,1,1,1,594
2400,4,1,480,32,0,0,1,542
2401,4,1,481,20,0,0,1,1011
2402,4,1,482,20,0,0,1,449
2403,4,1,483,1,1,1,1,414
2404,4,1,484,2,0,0,1,421
2405,4,1,485,10,1,1,1,637
2406,4,1,486,20,1,1,1,500
2407,4,1,487,2,0,0,1,443
2408,4,1,488,20,1,1,1,456
2409,4,1,489,10,1,1,1,745
2410,4,1,490,20,0,0,1,475
2411,4,1,491,10,1,1,1,498
2412,4,1,492,10,0,0,1,384
2413,4,1,493,5,0,0,1,435
2414,4,1,494,10,1,1,1,510
2415,4,1,495,10,1,1,1,588
2416,4,1,496,10,0,0,1,482
2417,4,1,497,2,0,0,1,409
2418,4,1,498,10,1,1,1,699
2419,4,1,499,5,0,0,1,654
2420,4,1,500,2,0,0,1,498
2421,4,1,501,32,1,1,1,597
2422,4,1,502,10,0,0,1,632
2423,4,1,503,20,0,0,1,1135
2424,4,1,504,5,0,0,1,516
2425,4,1,505,1,1,1,1,570
2426,4,1,506,32,1,1,1,1210
2427,4,1,507,5,1,1,1,665
2428,4,1,508,20,0,0,1,492
2429,4,1,509,5,1,1,1,654
2430,4,1,510,32,0,0,1,881
2431,4,1,511,2,1,1,1,610
2432,4,1,512,1,0,0,1,525
2433,4,1,513,32,0,0,1,1288
2434,4,1,514,2,1,1,1,912
2435,4,1,515,2,0,0,1,669
2436,4,1,516,32,1,1,1,637
2437,4,1,517,5,0,0,1,452
2438,4,1,518,20,0,0,1,536
2439,4,1,519,5,0,0,1,467
2440,4,1,520,5,1,1,1,583
2441,4,1,521,5,0,0,1,553
2442,4,1,522,2,0,0,1,556
2443,4,1,523,10,1,1,1,941
2444,4,1,524,20,1,1,1,471
2445,4,1,525,2,1,1,1,403
2446,4,1,526,32,1,1,1,946
2447,4,1,527,5,1,1,1,423
2448,4,1,528,10,0,0,1,1136
2449,4,1,529,20,1,1,1,827
2450,4,1,530,2,1,1,1,586
2451,4,1,531,32,1,1,1,744
2452,4,1,532,5,1,1,1,627
2453,4,1,533,5,0,0,1,495
2454,4,1,534,10,0,0,1,687
2455,4,1,535,2,1,1,1,517
2456,4,1,536,2,1,1,1,436
2457,4,1,537,20,1,1,1,557
2458,4,1,538,2,1,1,1,409
2459,4,1,539,32,1,1,1,2009
2460,4,1,540,2,0,0,1,1057
2461,4,1,541,32,0,0,1,488
2462,4,1,542,10,0,0,1,711
2463,4,1,543,32,0,0,1,566
2464,4,1,544,10,1,1,1,527
2465,4,1,545,10,0,0,1,505
2466,4,1,546,32,1,1,1,732
2467,4,1,547,5,1,1,1,506
2468,4,1,548,5,1,1,1,448
2469,4,1,549,32,0,0,1,1396
2470,4,1,550,32,1,1,1,698
2471,4,1,551,2,0,0,1,913
2472,4,1,552,2,1,1,1,576
2473,4,1,553,5,1,1,1,548
2474,4,1,554,10,1,1,1,581
2475,4,1,555,32,1,1,1,658
2476,4,1,556,20,1,1,1,529
2477,4,1,557,20,1,1,1,657
2478,4,1,558,2,0,0,1,613
2479,4,1,559,5,0,0,1,430
2480,4,1,560,1,1,1,1,437
2481,4,1,561,5,1,1,1,954
2482,4,1,562,5,0,0,1,413
2483,4,1,563,20,1,1,1,816
2484,4,1,564,20,0,0,1,690
2485,4,1,565,32,0,0,1,639
2486,4,1,566,2,0,0,1,374
2487,4,1,567,10,0,0,1,471
2488,4,1,568,20,1,1,1,682
2489,4,1,569,2,1,1,1,530
2490,4,1,570,20,0,0,1,643
2491,4,1,571,20,1,1,1,889
2492,4,1,572,5,1,1,1,471
2493,4,1,573,2,1,1,1,529
2494,4,1,574,20,0,0,1,454
2495,4,1,575,2,1,1,1,532
2496,4,1,576,5,0,0,1,1127
2497,4,1,577,5,1,1,1,600
2498,4,1,578,10,0,0,1,472
2499,4,1,579,5,1,1,1,895
2500,4,1,580,2,0,0,1,458
2501,4,1,581,10,1,1,1,2710
2502,4,1,582,20,1,1,1,469
2503,4,1,583,32,1,1,1,438
2504,4,1,584,20,1,1,1,1270
2505,4,1,585,5,0,0,1,774
2506,4,1,586,20,0,0,1,1831
2507,4,1,587,5,1,1,1,2426
2508,4,1,588,5,1,1,1,842
2509,4,1,589,2,1,1,1,1672
2510,4,1,590,5,1,1,1,566
2511,4,1,591,20,0,0,1,847
2512,4,1,592,10,1,1,1,4359
2513,4,1,593,20,1,1,1,505
2514,4,1,594,5,1,1,1,1081
2515,4,1,595,32,1,1,1,1002
2516,4,1,596,1,1,1,1,416
2517,4,1,597,2,0,0,1,609
2518,4,1,598,32,1,1,1,1642
2519,4,1,599,2,0,0,1,473
2520,4,1,600,10,1,1,1,481
2521,4,1,601,20,1,1,1,1716
2522,4,1,602,5,1,1,1,457
2523,4,1,603,10,1,1,1,390
2524,4,1,604,1,1,1,1,405
2525,4,1,605,20,1,1,1,690
2526,4,1,606,20,1,1,1,1625
2527,4,1,607,32,0,0,1,1311
2528,4,1,608,5,0,0,1,956
2529,4,1,609,32,1,1,1,792
2530,4,1,610,10,0,0,1,512
2531,4,1,611,10,0,0,1,563
2532,4,1,612,32,0,0,1,447
2533,4,1,613,2,0,0,1,399
2534,4,1,614,10,0,0,1,666
2535,4,1,615,5,0,0,1,674
2536,4,1,616,32,1,1,1,1272
2537,4,1,617,5,0,0,1,1840
2538,4,1,618,2,0,0,1,475
2539,4,1,619,32,0,0,1,473
2540,4,1,620,20,1,1,1,843
2541,4,1,621,2,0,0,1,442
2542,4,1,622,5,1,1,1,574
2543,4,1,623,10,1,1,1,548
2544,4,1,624,20,0,0,1,684
2545,4,1,625,2,1,1,1,463
2546,4,1,626,5,1,1,1,459
2547,4,1,627,5,0,0,1,578
2548,4,1,628,20,0,0,1,581
2549,4,1,629,2,0,0,1,678
2550,4,1,630,5,1,1,1,621
2551,4,1,631,10,0,0,1,444
2552,4,1,632,2,0,0,1,473
2553,4,1,633,5,0,0,1,503
2554,4,1,634,20,0,0,1,461
2555,4,1,635,10,0,0,1,509
2556,4,1,636,20,0,0,1,458
2557,4,1,637,5,1,1,1,451
2558,4,1,638,32,0,0,1,607
2559,4,1,639,10,0,0,1,501
2560,4,1,640,1,0,0,1,344
2561,5,1,1,5,0,0,1,618
2562,5,1,2,10,1,1,1,577
2563,5,1,3,32,0,0,1,570
2564,5,1,4,5,1,1,1,510
2565,5,1,5,20,0,0,1,820
2566,5,1,6,2,1,1,1,446
2567,5,1,7,10,1,1,1,819
2568,5,1,8,5,0,0,1,434
2569,5,1,9,2,0,0,1,468
2570,5,1,10,2,1,1,1,512
2571,5,1,11,32,0,0,1,568
2572,5,1,12,32,1,1,1,468
2573,5,1,13,10,0,0,1,565
2574,5,1,14,20,1,1,1,1138
2575,5,1,15,1,0,0,1,509
2576,5,1,16,2,1,1,1,478
2577,5,1,17,20,0,0,1,903
2578,5,1,18,2,0,0,1,686
2579,5,1,19,2,1,1,1,445
2580,5,1,20,1,1,1,1,665
2581,5,1,21,32,0,0,1,655
2582,5,1,22,5,1,1,1,835
2583,5,1,23,32,0,0,1,706
2584,5,1,24,5,0,0,1,755
2585,5,1,25,20,1,1,1,425
2586,5,1,26,10,0,0,1,533
2587,5,1,27,2,1,1,1,450
2588,5,1,28,5,1,1,1,416
2589,5,1,29,1,1,1,1,410
2590,5,1,30,32,1,1,1,815
2591,5,1,31,10,0,0,1,627
2592,5,1,32,2,0,0,1,421
2593,5,1,33,32,1,1,1,497
2594,5,1,34,32,0,0,1,611
2595,5,1,35,1,1,1,1,439
2596,5,1,36,1,0,0,1,545
2597,5,1,37,32,0,0,1,1642
2598,5,1,38,32,1,1,1,503
2599,5,1,39,5,0,0,1,453
2600,5,1,40,20,0,0,1,936
2601,5,1,41,10,0,0,1,484
2602,5,1,42,32,0,0,1,640
2603,5,1,43,32,1,1,1,853
2604,5,1,44,10,0,0,1,585
2605,5,1,45,5,1,1,1,379
2606,5,1,46,20,0,0,1,433
2607,5,1,47,10,0,0,1,442
2608,5,1,48,20,1,1,1,377
2609,5,1,49,20,0,0,1,514
2610,5,1,50,5,1,1,1,458
2611,5,1,51,2,1,1,1,513
2612,5,1,52,2,1,1,1,436
2613,5,1,53,20,0,0,1,1561
2614,5,1,54,2,0,0,1,383
2615,5,1,55,10,0,0,1,395
2616,5,1,56,20,1,1,1,616
2617,5,1,57,10,0,0,1,617
2618,5,1,58,1,1,1,1,395
2619,5,1,59,5,1,1,1,659
2620,5,1,60,10,0,0,1,634
2621,5,1,61,10,1,1,1,491
2622,5,1,62,2,1,1,1,425
2623,5,1,63,5,0,0,1,410
2624,5,1,64,32,1,1,1,462
2625,5,1,65,2,0,0,1,677
2626,5,1,66,10,1,1,1,677
2627,5,1,67,20,1,1,1,625
2628,5,1,68,2,0,0,1,697
2629,5,1,69,32,0,0,1,443
2630,5,1,70,5,0,0,1,462
2631,5,1,71,2,0,0,1,598
2632,5,1,72,10,1,1,1,840
2633,5,1,73,1,1,1,1,386
2634,5,1,74,2,1,1,1,448
2635,5,1,75,10,0,0,1,742
2636,5,1,76,5,0,0,1,808
2637,5,1,77,5,1,1,1,416
2638,5,1,78,2,0,0,1,562
2639,5,1,79,2,0,0,1,390
2640,5,1,80,32,0,0,1,506
2641,5,1,81,1,0,0,1,433
2642,5,1,82,20,0,0,1,620
2643,5,1,83,20,1,1,1,837
2644,5,1,84,2,0,0,1,526
2645,5,1,85,32,0,0,1,465
2646,5,1,86,10,0,0,1,398
2647,5,1,87,20,0,0,1,580
2648,5,1,88,2,0,0,1,376
2649,5,1,89,32,0,0,0,1399
2650,5,1,90,2,1,1,1,591
2651,5,1,91,5,0,0,1,561
2652,5,1,92,20,0,0,1,577
2653,5,1,93,10,0,0,1,512
2654,5,1,94,32,1,1,1,1801
2655,5,1,95,32,0,0,1,1039
2656,5,1,96,32,0,0,1,524
2657,5,1,97,2,0,0,1,438
2658,5,1,98,32,0,0,1,1050
2659,5,1,99,2,1,1,1,564
2660,5,1,100,10,0,0,1,485
2661,5,1,101,20,0,0,1,601
2662,5,1,102,20,0,0,1,769
2663,5,1,103,2,0,0,1,443
2664,5,1,104,32,1,1,1,2043
2665,5,1,105,20,1,1,1,932
2666,5,1,106,20,1,1,1,524
2667,5,1,107,10,1,1,1,472
2668,5,1,108,10,1,1,1,469
2669,5,1,109,5,0,0,1,551
2670,5,1,110,5,0,0,1,717
2671,5,1,111,20,1,1,1,724
2672,5,1,112,20,0,0,1,445
2673,5,1,113,32,1,1,1,546
2674,5,1,114,32,1,1,1,755
2675,5,1,115,10,1,1,1,496
2676,5,1,116,2,0,0,1,530
2677,5,1,117,32,1,1,1,520
2678,5,1,118,32,0,0,1,442
2679,5,1,119,10,1,1,1,520
2680,5,1,120,2,0,0,1,358
2681,5,1,121,2,1,1,1,472
2682,5,1,122,5,0,0,1,534
2683,5,1,123,10,1,1,1,414
2684,5,1,124,20,0,0,1,494
2685,5,1,125,10,1,1,1,520
2686,5,1,126,2,0,0,1,404
2687,5,1,127,32,0,0,1,508
2688,5,1,128,5,1,1,1,535
2689,5,1,129,10,1,1,1,471
2690,5,1,130,5,1,1,1,490
2691,5,1,131,20,1,1,1,707
2692,5,1,132,20,0,0,1,545
2693,5,1,133,1,1,1,1,547
2694,5,1,134,20,1,1,1,579
2695,5,1,135,32,0,0,1,661
2696,5,1,136,32,1,1,1,478
2697,5,1,137,20,1,1,1,809
2698,5,1,138,2,0,0,1,423
2699,5,1,139,20,0,0,1,1838
2700,5,1,140,32,1,1,1,918
2701,5,1,141,2,0,0,1,447
2702,5,1,142,5,0,0,1,392
2703,5,1,143,1,0,0,1,375
2704,5,1,144,1,0,0,1,416
2705,5,1,145,1,1,1,1,369
2706,5,1,146,32,0,0,1,657
2707,5,1,147,10,1,1,1,459
2708,5,1,148,5,0,0,1,594
2709,5,1,149,32,0,0,1,587
2710,5,1,150,20,0,0,1,721
2711,5,1,151,20,1,1,1,427
2712,5,1,152,2,0,0,1,501
2713,5,1,153,10,1,1,1,549
2714,5,1,154,10,1,1,1,579
2715,5,1,155,20,1,1,1,430
2716,5,1,156,5,1,1,1,380
2717,5,1,157,2,1,1,1,341
2718,5,1,158,1,0,0,1,388
2719,5,1,159,10,1,1,1,621
2720,5,1,160,32,0,0,1,596
2721,5,1,161,1,1,1,1,377
2722,5,1,162,2,0,0,1,480
2723,5,1,163,32,0,0,1,445
2724,5,1,164,10,1,1,1,431
2725,5,1,165,5,1,1,1,501
2726,5,1,166,2,0,0,0,531
2727,5,1,167,32,0,0,1,754
2728,5,1,168,5,0,0,1,927
2729,5,1,169,10,1,1,1,907
2730,5,1,170,5,1,1,1,493
2731,5,1,171,20,0,0,1,470
2732,5,1,172,10,0,0,1,515
2733,5,1,173,10,0,0,1,795
2734,5,1,174,5,1,1,1,506
2735,5,1,175,5,0,0,1,898
2736,5,1,176,32,1,1,1,1416
2737,5,1,177,5,1,1,1,1063
2738,5,1,178,2,1,1,1,803
2739,5,1,179,32,1,1,1,614
2740,5,1,180,32,0,0,1,438
2741,5,1,181,5,1,1,1,1107
2742,5,1,182,1,1,1,1,412
2743,5,1,183,32,1,1,1,587
2744,5,1,184,2,1,1,1,475
2745,5,1,185,32,1,1,1,1319
2746,5,1,186,2,0,0,1,612
2747,5,1,187,32,1,1,1,637
2748,5,1,188,1,1,1,1,446
2749,5,1,189,10,1,1,1,481
2750,5,1,190,32,1,1,1,561
2751,5,1,191,10,0,0,1,529
2752,5,1,192,20,0,0,1,511
2753,5,1,193,10,0,0,1,1175
2754,5,1,194,32,1,1,1,1088
2755,5,1,195,32,1,1,1,730
2756,5,1,196,32,1,1,1,566
2757,5,1,197,2,1,1,1,925
2758,5,1,198,2,1,1,1,430
2759,5,1,199,2,0,0,1,389
2760,5,1,200,20,1,1,1,511
2761,5,1,201,2,1,1,1,735
2762,5,1,202,1,1,1,1,418
2763,5,1,203,10,0,0,1,506
2764,5,1,204,20,1,1,1,508
2765,5,1,205,2,1,1,1,376
2766,5,1,206,20,0,0,1,571
2767,5,1,207,32,1,1,1,480
2768,5,1,208,2,0,0,1,394
2769,5,1,209,2,1,1,1,487
2770,5,1,210,20,1,1,1,540
2771,5,1,211,20,1,1,1,502
2772,5,1,212,5,0,0,1,513
2773,5,1,213,2,1,1,1,374
2774,5,1,214,2,1,1,1,422
2775,5,1,215,2,0,0,1,404
2776,5,1,216,5,1,1,1,380
2777,5,1,217,10,0,0,1,339
2778,5,1,218,32,0,0,1,496
2779,5,1,219,1,0,0,1,330
2780,5,1,220,5,1,1,1,756
2781,5,1,221,20,1,1,1,822
2782,5,1,222,5,1,1,1,381
2783,5,1,223,10,1,1,1,704
2784,5,1,224,5,1,1,1,370
2785,5,1,225,10,0,0,1,375
2786,5,1,226,5,0,0,1,376
2787,5,1,227,2,1,1,1,348
2788,5,1,228,20,0,0,1,767
2789,5,1,229,20,0,0,1,1207
2790,5,1,230,2,0,0,1,524
2791,5,1,231,5,0,0,1,418
2792,5,1,232,1,1,1,1,389
2793,5,1,233,10,0,0,1,429
2794,5,1,234,5,0,0,0,372
2795,5,1,235,5,1,1,1,630
2796,5,1,236,5,1,1,1,427
2797,5,1,237,5,1,1,1,440
2798,5,1,238,32,1,1,1,693
2799,5,1,239,2,1,1,1,832
2800,5,1,240,20,1,1,1,2414
2801,5,1,241,2,0,0,1,482
2802,5,1,242,20,0,0,1,518
2803,5,1,243,5,1,1,1,561
2804,5,1,244,10,0,0,1,368
2805,5,1,245,10,0,0,1,710
2806,5,1,246,20,0,0,1,954
2807,5,1,247,5,1,1,1,653
2808,5,1,248,10,0,0,1,512
2809,5,1,249,5,0,0,1,392
2810,5,1,250,32,0,0,1,408
2811,5,1,251,32,1,1,1,440
2812,5,1,252,20,0,0,1,457
2813,5,1,253,20,1,1,1,593
2814,5,1,254,5,1,1,1,466
2815,5,1,255,10,1,1,1,389
2816,5,1,256,20,1,1,1,420
2817,5,1,257,10,1,1,1,368
2818,5,1,258,20,1,1,1,698
2819,5,1,259,20,0,0,1,548
2820,5,1,260,10,0,0,1,588
2821,5,1,261,20,0,0,1,476
2822,5,1,262,5,1,1,1,434
2823,5,1,263,20,0,0,1,441
2824,5,1,264,2,1,1,1,371
2825,5,1,265,10,0,0,1,534
2826,5,1,266,10,1,1,1,525
2827,5,1,267,10,1,1,1,486
2828,5,1,268,32,1,1,1,520
2829,5,1,269,2,0,0,1,441
2830,5,1,270,10,1,1,1,560
2831,5,1,271,5,1,1,1,412
2832,5,1,272,5,1,1,1,372
2833,5,1,273,2,0,0,1,444
2834,5,1,274,10,0,0,1,485
2835,5,1,275,20,1,1,1,464
2836,5,1,276,32,0,0,1,614
2837,5,1,277,20,0,0,1,409
2838,5,1,278,5,1,1,1,711
2839,5,1,279,5,0,0,1,652
2840,5,1,280,32,1,1,1,707
2841,5,1,281,10,0,0,1,471
2842,5,1,282,5,1,1,1,656
2843,5,1,283,20,1,1,1,709
2844,5,1,284,32,1,1,1,442
2845,5,1,285,5,0,0,1,450
2846,5,1,286,10,0,0,1,489
2847,5,1,287,2,1,1,1,456
2848,5,1,288,10,1,1,1,801
2849,5,1,289,10,1,1,1,565
2850,5,1,290,20,0,0,1,593
2851,5,1,291,5,1,1,1,499
2852,5,1,292,10,0,0,1,541
2853,5,1,293,5,0,0,1,512
2854,5,1,294,20,0,0,1,1024
2855,5,1,295,10,0,0,1,597
2856,5,1,296,5,0,0,1,399
2857,5,1,297,20,0,0,1,484
2858,5,1,298,20,0,0,1,532
2859,5,1,299,10,0,0,1,552
2860,5,1,300,20,0,0,1,573
2861,5,1,301,5,0,0,1,711
2862,5,1,302,32,1,1,1,614
2863,5,1,303,32,1,1,1,501
2864,5,1,304,20,1,1,1,604
2865,5,1,305,32,0,0,1,556
2866,5,1,306,20,1,1,1,816
2867,5,1,307,10,1,1,1,539
2868,5,1,308,5,1,1,1,648
2869,5,1,309,5,0,0,1,563
2870,5,1,310,2,1,1,1,460
2871,5,1,311,10,1,1,1,557
2872,5,1,312,5,0,0,1,537
2873,5,1,313,1,0,0,1,381
2874,5,1,314,1,0,0,1,1176
2875,5,1,315,32,1,1,1,497
2876,5,1,316,2,1,1,1,583
2877,5,1,317,2,1,1,1,531
2878,5,1,318,1,0,0,1,482
2879,5,1,319,10,0,0,1,847
2880,5,1,320,10,1,1,1,592
2881,5,1,321,10,1,1,1,604
2882,5,1,322,32,1,1,1,591
2883,5,1,323,5,0,0,1,804
2884,5,1,324,2,1,1,1,561
2885,5,1,325,2,0,0,1,486
2886,5,1,326,32,1,1,1,728
2887,5,1,327,2,1,1,1,440
2888,5,1,328,1,1,1,1,571
2889,5,1,329,10,1,1,1,396
2890,5,1,330,32,1,1,1,412
2891,5,1,331,32,0,0,1,671
2892,5,1,332,2,0,0,1,474
2893,5,1,333,20,0,0,1,772
2894,5,1,334,1,1,1,1,476
2895,5,1,335,2,0,0,1,453
2896,5,1,336,5,0,0,1,1244
2897,5,1,337,32,0,0,1,590
2898,5,1,338,32,0,0,1,797
2899,5,1,339,32,1,1,1,553
2900,5,1,340,5,1,1,1,753
2901,5,1,341,10,1,1,1,619
2902,5,1,342,10,0,0,1,548
2903,5,1,343,2,1,1,1,575
2904,5,1,344,5,1,1,1,427
2905,5,1,345,10,1,1,1,489
2906,5,1,346,20,0,0,1,1653
2907,5,1,347,2,1,1,1,488
2908,5,1,348,5,1,1,1,587
2909,5,1,349,10,1,1,1,676
2910,5,1,350,32,1,1,1,641
2911,5,1,351,20,0,0,1,729
2912,5,1,352,2,1,1,1,584
2913,5,1,353,2,0,0,1,554
2914,5,1,354,2,1,1,1,678
2915,5,1,355,2,1,1,1,561
2916,5,1,356,32,0,0,1,913
2917,5,1,357,20,0,0,1,577
2918,5,1,358,5,0,0,1,583
2919,5,1,359,1,0,0,1,462
2920,5,1,360,32,1,1,1,525
2921,5,1,361,20,0,0,1,543
2922,5,1,362,2,1,1,1,484
2923,5,1,363,20,1,1,1,782
2924,5,1,364,5,0,0,1,728
2925,5,1,365,2,1,1,1,409
2926,5,1,366,2,1,1,1,475
2927,5,1,367,10,1,1,1,480
2928,5,1,368,10,1,1,1,697
2929,5,1,369,10,1,1,1,646
2930,5,1,370,5,1,1,1,564
2931,5,1,371,10,0,0,1,631
2932,5,1,372,20,0,0,1,694
2933,5,1,373,20,1,1,1,471
2934,5,1,374,32,0,0,1,508
2935,5,1,375,10,0,0,1,683
2936,5,1,376,32,0,0,1,606
2937,5,1,377,10,0,0,1,958
2938,5,1,378,20,0,0,1,757
2939,5,1,379,5,0,0,1,473
2940,5,1,380,20,0,0,1,576
2941,5,1,381,5,0,0,1,570
2942,5,1,382,20,1,1,1,532
2943,5,1,383,1,1,1,1,419
2944,5,1,384,20,0,0,1,974
2945,5,1,385,5,0,0,1,452
2946,5,1,386,32,1,1,1,469
2947,5,1,387,2,0,0,1,1161
2948,5,1,388,10,0,0,1,446
2949,5,1,389,20,0,0,1,617
2950,5,1,390,10,1,1,1,432
2951,5,1,391,32,0,0,1,903
2952,5,1,392,32,1,1,1,640
2953,5,1,393,5,0,0,1,422
2954,5,1,394,20,1,1,1,557
2955,5,1,395,32,0,0,1,506
2956,5,1,396,2,1,1,1,407
2957,5,1,397,2,0,0,1,616
2958,5,1,398,2,1,1,1,672
2959,5,1,399,5,0,0,1,523
2960,5,1,400,2,0,0,1,354
2961,5,1,401,5,1,1,1,504
2962,5,1,402,5,0,0,1,472
2963,5,1,403,5,0,0,1,442
2964,5,1,404,5,0,0,1,477
2965,5,1,405,20,0,0,1,450
2966,5,1,406,32,0,0,1,532
2967,5,1,407,2,0,0,1,406
2968,5,1,408,2,0,0,1,297
2969,5,1,409,1,0,0,1,394
2970,5,1,410,10,1,1,1,529
2971,5,1,411,5,1,1,1,436
2972,5,1,412,32,0,0,1,695
2973,5,1,413,20,1,1,1,894
2974,5,1,414,2,1,1,1,425
2975,5,1,415,32,1,1,1,978
2976,5,1,416,10,1,1,1,882
2977,5,1,417,1,0,0,1,615
2978,5,1,418,32,1,1,1,806
2979,5,1,419,32,0,0,1,955
2980,5,1,420,5,1,1,1,847
2981,5,1,421,5,0,0,1,477
2982,5,1,422,32,1,1,1,566
2983,5,1,423,2,1,1,1,1066
2984,5,1,424,32,0,0,1,529
2985,5,1,425,5,1,1,1,647
2986,5,1,426,2,1,1,1,391
2987,5,1,427,10,0,0,1,557
2988,5,1,428,32,1,1,1,704
2989,5,1,429,5,0,0,1,531
2990,5,1,430,10,0,0,1,628
2991,5,1,431,10,0,0,1,438
2992,5,1,432,32,0,0,1,407
2993,5,1,433,20,1,1,1,482
2994,5,1,434,20,0,0,1,465
2995,5,1,435,5,1,1,1,622
2996,5,1,436,5,0,0,1,623
2997,5,1,437,20,1,1,1,594
2998,5,1,438,10,1,1,1,619
2999,5,1,439,10,0,0,1,805
3000,5,1,440,10,0,0,1,842
3001,5,1,441,2,0,0,1,557
3002,5,1,442,2,0,0,1,367
3003,5,1,443,20,1,1,1,446
3004,5,1,444,20,0,0,1,567
3005,5,1,445,32,0,0,1,356
3006,5,1,446,5,1,1,1,1019
3007,5,1,447,10,1,1,0,1107
3008,5,1,448,5,0,0,1,732
3009,5,1,449,32,0,0,1,691
3010,5,1,450,10,1,1,1,488
3011,5,1,451,20,1,1,1,460
3012,5,1,452,10,1,1,1,498
3013,5,1,453,10,1,1,1,542
3014,5,1,454,10,0,0,1,560
3015,5,1,455,2,1,1,1,518
3016,5,1,456,2,1,1,1,1124
3017,5,1,457,20,1,1,1,608
3018,5,1,458,5,0,0,1,579
3019,5,1,459,32,1,1,1,1054
3020,5,1,460,20,1,1,1,481
3021,5,1,461,1,0,0,1,526
3022,5,1,462,5,0,0,1,525
3023,5,1,463,2,1,1,1,540
3024,5,1,464,1,1,1,1,534
3025,5,1,465,20,0,0,1,634
3026,5,1,466,10,0,0,1,635
3027,5,1,467,10,0,0,1,406
3028,5,1,468,10,0,0,1,740
3029,5,1,469,5,0,0,1,553
3030,5,1,470,20,1,1,1,1189
3031,5,1,471,2,1,1,1,687
3032,5,1,472,20,1,1,1,454
3033,5,1,473,5,1,1,1,456
3034,5,1,474,20,0,0,1,645
3035,5,1,475,10,1,1,1,437
3036,5,1,476,2,0,0,1,405
3037,5,1,477,10,1,1,1,609
3038,5,1,478,20,0,0,1,579
3039,5,1,479,1,0,0,1,426
3040,5,1,480,2,0,0,1,505
3041,5,1,481,32,1,1,1,622
3042,5,1,482,2,0,0,1,411
3043,5,1,483,5,1,1,1,389
3044,5,1,484,1,1,1,1,406
3045,5,1,485,20,1,1,1,577
3046,5,1,486,32,0,0,1,843
3047,5,1,487,5,1,1,1,760
3048,5,1,488,10,0,0,1,717
3049,5,1,489,32,0,0,1,905
3050,5,1,490,5,0,0,1,516
3051,5,1,491,32,1,1,1,788
3052,5,1,492,5,1,1,1,773
3053,5,1,493,20,1,1,1,601
3054,5,1,494,20,0,0,1,432
3055,5,1,495,20,0,0,1,551
3056,5,1,496,10,0,0,1,2082
3057,5,1,497,2,1,1,1,534
3058,5,1,498,2,1,1,1,999
3059,5,1,499,32,0,0,1,525
3060,5,1,500,2,1,1,1,459
3061,5,1,501,5,0,0,1,546
3062,5,1,502,20,1,1,1,1180
3063,5,1,503,32,0,0,1,896
3064,5,1,504,2,1,1,1,674
3065,5,1,505,5,0,0,1,684
3066,5,1,506,2,1,1,1,603
3067,5,1,507,10,1,1,1,481
3068,5,1,508,5,0,0,1,727
3069,5,1,509,5,0,0,1,675
3070,5,1,510,20,1,1,1,690
3071,5,1,511,32,1,1,1,810
3072,5,1,512,20,1,1,1,605
3073,5,1,513,5,1,1,1,699
3074,5,1,514,2,0,0,1,850
3075,5,1,515,5,1,1,1,461
3076,5,1,516,2,1,1,1,355
3077,5,1,517,32,1,1,1,693
3078,5,1,518,32,1,1,1,993
3079,5,1,519,20,0,0,1,1289
3080,5,1,520,10,1,1,1,423
3081,5,1,521,2,0,0,1,417
3082,5,1,522,20,1,1,1,683
3083,5,1,523,20,1,1,1,486
3084,5,1,524,5,0,0,1,565
3085,5,1,525,5,0,0,1,605
3086,5,1,526,32,0,0,1,1356
3087,5,1,527,32,1,1,1,993
3088,5,1,528,5,1,1,1,522
3089,5,1,529,32,1,1,1,886
3090,5,1,530,2,0,0,1,774
3091,5,1,531,5,1,1,1,768
3092,5,1,532,1,0,0,1,730
3093,5,1,533,2,1,1,1,494
3094,5,1,534,32,0,0,1,616
3095,5,1,535,32,0,0,1,479
3096,5,1,536,1,0,0,1,468
3097,5,1,537,20,1,1,1,548
3098,5,1,538,10,1,1,1,518
3099,5,1,539,20,1,1,1,396
3100,5,1,540,5,1,1,1,527
3101,5,1,541,32,0,0,1,576
3102,5,1,542,20,0,0,1,588
3103,5,1,543,32,0,0,1,654
3104,5,1,544,5,0,0,1,422
3105,5,1,545,10,1,1,1,509
3106,5,1,546,2,1,1,1,628
3107,5,1,547,2,0,0,1,568
3108,5,1,548,2,0,0,1,398
3109,5,1,549,2,0,0,1,465
3110,5,1,550,32,1,1,1,507
3111,5,1,551,1,1,1,1,438
3112,5,1,552,2,0,0,1,713
3113,5,1,553,32,0,0,1,933
3114,5,1,554,32,1,1,1,465
3115,5,1,555,20,0,0,1,800
3116,5,1,556,32,0,0,1,671
3117,5,1,557,10,0,0,1,418
3118,5,1,558,1,0,0,1,431
3119,5,1,559,20,1,1,1,488
3120,5,1,560,20,1,1,1,620
3121,5,1,561,10,0,0,1,527
3122,5,1,562,10,1,1,1,459
3123,5,1,563,32,0,0,1,386
3124,5,1,564,32,1,1,1,376
3125,5,1,565,10,0,0,1,499
3126,5,1,566,5,0,0,1,599
3127,5,1,567,20,1,1,1,455
3128,5,1,568,20,0,0,1,654
3129,5,1,569,32,1,1,1,517
3130,5,1,570,10,0,0,1,390
3131,5,1,571,10,0,0,1,476
3132,5,1,572,5,0,0,1,320
3133,5,1,573,20,1,1,1,1008
3134,5,1,574,32,0,0,1,1459
3135,5,1,575,2,0,0,1,436
3136,5,1,576,32,1,1,1,671
3137,5,1,577,5,1,1,1,448
3138,5,1,578,10,0,0,1,613
3139,5,1,579,2,0,0,1,397
3140,5,1,580,1,1,1,1,458
3141,5,1,581,2,1,1,1,498
3142,5,1,582,10,1,1,1,581
3143,5,1,583,1,1,1,1,484
3144,5,1,584,20,1,1,1,762
3145,5,1,585,32,0,0,1,685
3146,5,1,586,2,0,0,1,395
3147,5,1,587,10,1,1,1,514
3148,5,1,588,32,0,0,1,541
3149,5,1,589,10,1,1,1,773
3150,5,1,590,5,0,0,1,372
3151,5,1,591,20,0,0,1,447
3152,5,1,592,5,1,1,1,565
3153,5,1,593,32,1,1,1,713
3154,5,1,594,20,1,1,1,582
3155,5,1,595,32,0,0,1,417
3156,5,1,596,32,0,0,1,425
3157,5,1,597,10,0,0,1,451
3158,5,1,598,2,0,0,1,618
3159,5,1,599,20,0,0,1,416
3160,5,1,600,5,1,1,1,755
3161,5,1,601,2,1,1,1,411
3162,5,1,602,10,1,1,1,554
3163,5,1,603,1,0,0,1,415
3164,5,1,604,10,0,0,1,542
3165,5,1,605,20,1,1,1,507
3166,5,1,606,20,1,1,1,609
3167,5,1,607,5,1,1,1,510
3168,5,1,608,20,0,0,1,515
3169,5,1,609,10,0,0,1,690
3170,5,1,610,20,1,1,1,631
3171,5,1,611,2,1,1,1,442
3172,5,1,612,10,0,0,1,566
3173,5,1,613,10,1,1,1,466
3174,5,1,614,2,0,0,1,545
3175,5,1,615,20,0,0,1,1364
3176,5,1,616,10,0,0,1,452
3177,5,1,617,5,1,1,1,1106
3178,5,1,618,32,0,0,1,533
3179,5,1,619,5,1,1,1,376
3180,5,1,620,10,1,1,1,643
3181,5,1,621,5,0,0,1,368
3182,5,1,622,32,1,1,1,442
3183,5,1,623,1,0,0,1,447
3184,5,1,624,5,1,1,1,416
3185,5,1,625,20,1,1,1,444
3186,5,1,626,2,0,0,1,382
3187,5,1,627,5,1,1,1,442
3188,5,1,628,2,0,0,1,555
3189,5,1,629,5,0,0,1,476
3190,5,1,630,10,1,1,1,450
3191,5,1,631,5,0,0,1,454
3192,5,1,632,2,0,0,1,621
3193,5,1,633,20,0,0,1,807
3194,5,1,634,2,1,1,1,581
3195,5,1,635,32,1,1,1,469
3196,5,1,636,5,1,1,1,573
3197,5,1,637,20,1,1,1,811
3198,5,1,638,2,0,0,1,692
3199,5,1,639,2,0,0,1,791
3200,5,1,640,32,1,1,1,961
3201,6,1,1,10,1,1,1,1062
3202,6,1,2,2,1,1,1,548
3203,6,1,3,10,0,0,1,453
3204,6,1,4,2,1,1,1,363
3205,6,1,5,32,1,1,1,487
3206,6,1,6,10,0,0,1,512
3207,6,1,7,10,0,0,1,521
3208,6,1,8,32,0,0,1,490
3209,6,1,9,5,1,1,1,590
3210,6,1,10,20,0,0,1,715
3211,6,1,11,20,1,1,1,1038
3212,6,1,12,10,1,1,1,470
3213,6,1,13,5,0,0,1,471
3214,6,1,14,5,1,1,1,440
3215,6,1,15,5,1,1,1,460
3216,6,1,16,2,1,1,1,547
3217,6,1,17,20,1,1,1,1100
3218,6,1,18,2,0,0,1,567
3219,6,1,19,20,1,1,1,555
3220,6,1,20,32,0,0,1,2136
3221,6,1,21,20,1,1,1,900
3222,6,1,22,20,0,0,1,1958
3223,6,1,23,5,1,1,1,561
3224,6,1,24,2,1,1,1,925
3225,6,1,25,5,1,1,1,674
3226,6,1,26,5,0,0,1,511
3227,6,1,27,5,1,1,1,653
3228,6,1,28,20,0,0,1,1022
3229,6,1,29,2,1,1,1,425
3230,6,1,30,10,1,1,1,2042
3231,6,1,31,10,1,1,1,572
3232,6,1,32,2,1,1,1,415
3233,6,1,33,2,1,1,1,505
3234,6,1,34,2,0,0,1,445
3235,6,1,35,5,1,1,1,894
3236,6,1,36,5,0,0,1,393
3237,6,1,37,2,0,0,1,473
3238,6,1,38,5,1,1,1,767
3239,6,1,39,10,1,1,1,437
3240,6,1,40,32,0,0,1,1426
3241,6,1,41,10,1,1,1,684
3242,6,1,42,32,0,0,1,2368
3243,6,1,43,5,1,1,1,523
3244,6,1,44,2,1,1,1,487
3245,6,1,45,10,1,1,1,723
3246,6,1,46,32,1,1,1,1056
3247,6,1,47,5,1,1,1,462
3248,6,1,48,32,0,0,1,865
3249,6,1,49,5,0,0,1,765
3250,6,1,50,2,1,1,1,479
3251,6,1,51,10,0,0,1,673
3252,6,1,52,2,1,1,1,442
3253,6,1,53,1,1,1,1,444
3254,6,1,54,2,0,0,1,401
3255,6,1,55,2,1,1,1,425
3256,6,1,56,1,0,0,1,535
3257,6,1,57,2,0,0,1,479
3258,6,1,58,2,0,0,1,433
3259,6,1,59,2,1,1,1,371
3260,6,1,60,32,0,0,1,846
3261,6,1,61,10,1,1,1,647
3262,6,1,62,10,0,0,1,468
3263,6,1,63,20,0,0,1,519
3264,6,1,64,1,1,1,1,385
3265,6,1,65,32,0,0,1,479
3266,6,1,66,32,0,0,1,670
3267,6,1,67,10,0,0,0,463
3268,6,1,68,2,0,0,1,416
3269,6,1,69,20,1,1,1,4051
3270,6,1,70,32,1,1,1,724
3271,6,1,71,2,0,0,1,512
3272,6,1,72,2,0,0,1,386
3273,6,1,73,1,1,1,1,396
3274,6,1,74,5,1,1,1,467
3275,6,1,75,20,0,0,1,493
3276,6,1,76,1,1,1,1,425
3277,6,1,77,10,0,0,1,457
3278,6,1,78,20,1,1,1,854
3279,6,1,79,10,1,1,1,427
3280,6,1,80,5,1,1,1,446
3281,6,1,81,32,0,0,1,705
3282,6,1,82,5,1,1,1,817
3283,6,1,83,32,0,0,1,523
3284,6,1,84,20,1,1,1,634
3285,6,1,85,2,1,1,1,584
3286,6,1,86,32,1,1,1,488
3287,6,1,87,2,0,0,1,475
3288,6,1,88,2,1,1,1,398
3289,6,1,89,20,0,0,1,420
3290,6,1,90,20,0,0,1,573
3291,6,1,91,32,1,1,1,423
3292,6,1,92,5,1,1,1,564
3293,6,1,93,20,1,1,1,944
3294,6,1,94,10,0,0,1,488
3295,6,1,95,1,1,1,1,409
3296,6,1,96,10,1,1,1,471
3297,6,1,97,20,1,1,1,784
3298,6,1,98,20,0,0,1,480
3299,6,1,99,2,1,1,1,427
3300,6,1,100,10,0,0,1,408
3301,6,1,101,20,0,0,1,414
3302,6,1,102,2,0,0,1,469
3303,6,1,103,20,0,0,1,565
3304,6,1,104,10,1,1,1,520
3305,6,1,105,2,0,0,1,353
3306,6,1,106,2,1,1,1,350
3307,6,1,107,5,1,1,1,406
3308,6,1,108,10,1,1,1,421
3309,6,1,109,20,0,0,1,696
3310,6,1,110,20,1,1,1,536
3311,6,1,111,10,0,0,1,698
3312,6,1,112,5,1,1,1,358
3313,6,1,113,32,0,0,1,529
3314,6,1,114,32,1,1,1,672
3315,6,1,115,32,1,1,1,422
3316,6,1,116,32,1,1,1,387
3317,6,1,117,20,0,0,1,453
3318,6,1,118,5,0,0,1,591
3319,6,1,119,20,0,0,1,459
3320,6,1,120,10,1,1,1,384
3321,6,1,121,32,1,1,1,760
3322,6,1,122,1,0,0,1,352
3323,6,1,123,10,0,0,1,530
3324,6,1,124,2,0,0,1,429
3325,6,1,125,20,0,0,0,431
3326,6,1,126,2,0,0,1,386
3327,6,1,127,10,0,0,1,383
3328,6,1,128,20,1,1,1,472
3329,6,1,129,1,1,1,1,348
3330,6,1,130,10,1,1,1,465
3331,6,1,131,10,1,1,1,475
3332,6,1,132,1,0,0,1,402
3333,6,1,133,10,0,0,1,665
3334,6,1,134,2,1,1,1,370
3335,6,1,135,5,1,1,1,376
3336,6,1,136,32,1,1,1,537
3337,6,1,137,2,0,0,1,565
3338,6,1,138,20,0,0,1,398
3339,6,1,139,2,0,0,1,352
3340,6,1,140,2,0,0,1,348
3341,6,1,141,1,1,1,1,340
3342,6,1,142,32,0,0,1,463
3343,6,1,143,5,0,0,1,384
3344,6,1,144,2,0,0,1,389
3345,6,1,145,10,1,1,1,383
3346,6,1,146,5,1,1,1,510
3347,6,1,147,32,1,1,1,2073
3348,6,1,148,2,0,0,1,445
3349,6,1,149,2,0,0,1,407
3350,6,1,150,10,0,0,1,514
3351,6,1,151,10,0,0,1,396
3352,6,1,152,5,0,0,1,508
3353,6,1,153,20,0,0,1,1307
3354,6,1,154,1,0,0,1,387
3355,6,1,155,5,1,1,1,457
3356,6,1,156,32,0,0,1,432
3357,6,1,157,32,1,1,1,491
3358,6,1,158,20,1,1,1,631
3359,6,1,159,20,0,0,1,418
3360,6,1,160,32,0,0,1,1172
3361,6,1,161,32,0,0,1,465
3362,6,1,162,32,1,1,1,766
3363,6,1,163,32,0,0,1,434
3364,6,1,164,5,0,0,1,360
3365,6,1,165,10,0,0,1,464
3366,6,1,166,5,1,1,1,387
3367,6,1,167,2,1,1,1,408
3368,6,1,168,20,1,1,1,1013
3369,6,1,169,1,0,0,1,346
3370,6,1,170,10,0,0,1,437
3371,6,1,171,5,1,1,1,424
3372,6,1,172,32,1,1,1,619
3373,6,1,173,10,0,0,1,728
3374,6,1,174,20,1,1,1,648
3375,6,1,175,2,1,1,1,394
3376,6,1,176,20,1,1,1,1740
3377,6,1,177,10,1,1,1,504
3378,6,1,178,10,0,0,1,399
3379,6,1,179,5,0,0,1,360
3380,6,1,180,10,1,1,1,454
3381,6,1,181,5,1,1,1,344
3382,6,1,182,5,0,0,1,457
3383,6,1,183,20,0,0,1,668
3384,6,1,184,2,1,1,1,350
3385,6,1,185,10,0,0,1,419
3386,6,1,186,5,0,0,1,328
3387,6,1,187,20,0,0,1,530
3388,6,1,188,32,0,0,1,479
3389,6,1,189,5,0,0,1,412
3390,6,1,190,10,1,1,1,482
3391,6,1,191,5,0,0,1,469
3392,6,1,192,20,0,0,1,394
3393,6,1,193,2,0,0,1,372
3394,6,1,194,10,1,1,1,361
3395,6,1,195,10,1,1,1,374
3396,6,1,196,32,1,1,1,499
3397,6,1,197,2,1,1,1,580
3398,6,1,198,2,1,1,1,425
3399,6,1,199,2,0,0,1,408
3400,6,1,200,32,1,1,1,717
3401,6,1,201,32,0,0,1,430
3402,6,1,202,10,0,0,1,487
3403,6,1,203,32,1,1,1,1125
3404,6,1,204,5,1,1,1,403
3405,6,1,205,20,1,1,1,3168
3406,6,1,206,5,1,1,1,438
3407,6,1,207,10,0,0,1,482
3408,6,1,208,1,1,1,1,362
3409,6,1,209,5,1,1,1,367
3410,6,1,210,5,0,0,1,411
3411,6,1,211,2,0,0,1,297
3412,6,1,212,2,1,1,1,333
3413,6,1,213,1,0,0,1,391
3414,6,1,214,5,1,1,1,383
3415,6,1,215,20,1,1,1,710
3416,6,1,216,32,0,0,1,1928
3417,6,1,217,5,1,1,1,416
3418,6,1,218,2,1,1,1,420
3419,6,1,219,2,1,1,1,399
3420,6,1,220,2,0,0,1,396
3421,6,1,221,2,0,0,1,404
3422,6,1,222,10,0,0,1,442
3423,6,1,223,2,0,0,1,372
3424,6,1,224,32,0,0,1,969
3425,6,1,225,2,1,1,1,353
3426,6,1,226,1,0,0,1,377
3427,6,1,227,5,0,0,1,436
3428,6,1,228,32,0,0,1,646
3429,6,1,229,5,0,0,1,670
3430,6,1,230,1,0,0,1,378
3431,6,1,231,2,1,1,1,415
3432,6,1,232,32,1,1,1,3393
3433,6,1,233,32,1,1,1,876
3434,6,1,234,32,1,1,1,483
3435,6,1,235,1,0,0,1,361
3436,6,1,236,2,1,1,1,399
3437,6,1,237,5,0,0,1,359
3438,6,1,238,2,1,1,1,345
3439,6,1,239,5,1,1,1,333
3440,6,1,240,20,1,1,1,375
3441,6,1,241,20,0,0,1,1155
3442,6,1,242,32,0,0,1,1511
3443,6,1,243,2,1,1,1,394
3444,6,1,244,20,0,0,1,642
3445,6,1,245,32,0,0,1,2126
3446,6,1,246,1,1,1,1,583
3447,6,1,247,5,0,0,1,643
3448,6,1,248,32,1,1,1,404
3449,6,1,249,1,0,0,1,379
3450,6,1,250,20,0,0,1,384
3451,6,1,251,5,0,0,1,365
3452,6,1,252,2,0,0,1,333
3453,6,1,253,2,1,1,1,370
3454,6,1,254,32,1,1,1,428
3455,6,1,255,32,0,0,1,474
3456,6,1,256,2,1,1,1,383
3457,6,1,257,2,1,1,1,338
3458,6,1,258,32,1,1,1,436
3459,6,1,259,10,1,1,1,424
3460,6,1,260,20,0,0,1,602
3461,6,1,261,32,1,1,1,811
3462,6,1,262,10,0,0,1,494
3463,6,1,263,1,0,0,1,368
3464,6,1,264,32,1,1,0,512
3465,6,1,265,20,0,0,1,1083
3466,6,1,266,5,0,0,1,526
3467,6,1,267,2,1,1,1,508
3468,6,1,268,32,1,1,1,733
3469,6,1,269,5,1,1,1,499
3470,6,1,270,32,0,0,1,540
3471,6,1,271,1,1,1,1,382
3472,6,1,272,5,1,1,1,385
3473,6,1,273,32,0,0,1,535
3474,6,1,274,20,1,1,1,414
3475,6,1,275,5,0,0,1,417
3476,6,1,276,10,0,0,1,1148
3477,6,1,277,20,1,1,1,466
3478,6,1,278,32,1,1,1,620
3479,6,1,279,1,1,1,1,353
3480,6,1,280,10,0,0,1,529
3481,6,1,281,20,1,1,1,456
3482,6,1,282,10,1,1,1,494
3483,6,1,283,1,0,0,1,339
3484,6,1,284,5,1,1,1,483
3485,6,1,285,1,0,0,1,402
3486,6,1,286,2,0,0,1,332
3487,6,1,287,10,1,1,1,436
3488,6,1,288,10,1,1,1,462
3489,6,1,289,20,1,1,1,807
3490,6,1,290,2,1,1,1,396
3491,6,1,291,2,1,1,1,571
3492,6,1,292,32,1,1,1,687
3493,6,1,293,32,1,1,1,1431
3494,6,1,294,5,1,1,1,404
3495,6,1,295,10,0,0,1,554
3496,6,1,296,10,1,1,1,410
3497,6,1,297,5,0,0,1,481
3498,6,1,298,20,0,0,1,552
3499,6,1,299,10,1,1,1,962
3500,6,1,300,2,1,1,1,422
3501,6,1,301,20,1,1,1,677
3502,6,1,302,20,1,1,1,931
3503,6,1,303,32,1,1,1,490
3504,6,1,304,20,0,0,1,630
3505,6,1,305,5,0,0,1,438
3506,6,1,306,2,0,0,1,386
3507,6,1,307,32,1,1,1,551
3508,6,1,308,5,1,1,1,412
3509,6,1,309,2,1,1,1,315
3510,6,1,310,2,1,1,1,367
3511,6,1,311,5,0,0,1,452
3512,6,1,312,20,1,1,1,440
3513,6,1,313,5,1,1,1,344
3514,6,1,314,32,1,1,1,385
3515,6,1,315,2,1,1,0,364
3516,6,1,316,5,1,1,1,491
3517,6,1,317,2,1,1,1,376
3518,6,1,318,20,1,1,1,549
3519,6,1,319,32,1,1,1,457
3520,6,1,320,5,0,0,1,517
3521,6,1,321,10,0,0,1,602
3522,6,1,322,5,0,0,1,636
3523,6,1,323,10,1,1,1,766
3524,6,1,324,5,1,1,1,431
3525,6,1,325,10,0,0,1,1059
3526,6,1,326,2,0,0,1,411
3527,6,1,327,20,0,0,1,442
3528,6,1,328,1,0,0,1,394
3529,6,1,329,10,1,1,1,1680
3530,6,1,330,10,0,0,1,433
3531,6,1,331,5,0,0,1,510
3532,6,1,332,32,1,1,1,475
3533,6,1,333,2,0,0,1,387
3534,6,1,334,10,0,0,1,720
3535,6,1,335,10,1,1,1,378
3536,6,1,336,5,1,1,1,405
3537,6,1,337,2,0,0,1,435
3538,6,1,338,20,0,0,1,416
3539,6,1,339,2,0,0,1,451
3540,6,1,340,5,1,1,1,453
3541,6,1,341,20,0,0,1,558
3542,6,1,342,32,0,0,1,1907
3543,6,1,343,20,0,0,1,514
3544,6,1,344,5,0,0,1,618
3545,6,1,345,32,0,0,1,564
3546,6,1,346,2,0,0,1,493
3547,6,1,347,10,0,0,1,587
3548,6,1,348,20,1,1,1,763
3549,6,1,349,5,0,0,1,404
3550,6,1,350,2,0,0,1,394
3551,6,1,351,20,0,0,1,359
3552,6,1,352,5,0,0,1,544
3553,6,1,353,20,0,0,1,386
3554,6,1,354,10,1,1,1,527
3555,6,1,355,32,1,1,1,587
3556,6,1,356,10,1,1,1,417
3557,6,1,357,20,0,0,1,455
3558,6,1,358,2,1,1,1,371
3559,6,1,359,5,0,0,1,478
3560,6,1,360,32,1,1,1,510
3561,6,1,361,5,1,1,1,882
3562,6,1,362,20,1,1,1,832
3563,6,1,363,20,1,1,1,345
3564,6,1,364,10,0,0,1,1226
3565,6,1,365,10,1,1,1,398
3566,6,1,366,2,0,0,1,467
3567,6,1,367,10,0,0,1,436
3568,6,1,368,2,0,0,1,413
3569,6,1,369,20,1,1,1,562
3570,6,1,370,10,0,0,1,383
3571,6,1,371,20,1,1,1,449
3572,6,1,372,5,1,1,1,393
3573,6,1,373,5,0,0,1,369
3574,6,1,374,32,1,1,1,572
3575,6,1,375,5,0,0,1,407
3576,6,1,376,10,1,1,1,353
3577,6,1,377,32,0,0,1,478
3578,6,1,378,5,1,1,1,383
3579,6,1,379,32,1,1,1,431
3580,6,1,380,5,1,1,1,421
3581,6,1,381,2,1,1,1,346
3582,6,1,382,20,0,0,1,516
3583,6,1,383,20,1,1,1,629
3584,6,1,384,20,0,0,1,517
3585,6,1,385,20,0,0,1,989
3586,6,1,386,2,1,1,1,409
3587,6,1,387,20,0,0,1,591
3588,6,1,388,1,1,1,1,393
3589,6,1,389,10,0,0,1,632
3590,6,1,390,20,1,1,1,406
3591,6,1,391,5,0,0,1,633
3592,6,1,392,2,1,1,1,388
3593,6,1,393,10,0,0,1,449
3594,6,1,394,5,0,0,1,575
3595,6,1,395,20,1,1,1,484
3596,6,1,396,10,1,1,1,567
3597,6,1,397,20,0,0,1,620
3598,6,1,398,1,1,1,1,369
3599,6,1,399,2,0,0,1,350
3600,6,1,400,32,0,0,1,1637
3601,6,1,401,32,0,0,1,681
3602,6,1,402,1,0,0,1,397
3603,6,1,403,2,1,1,1,669
3604,6,1,404,10,1,1,1,537
3605,6,1,405,32,1,1,1,420
3606,6,1,406,20,1,1,1,433
3607,6,1,407,20,0,0,1,420
3608,6,1,408,10,0,0,1,436
3609,6,1,409,5,0,0,1,366
3610,6,1,410,10,0,0,1,436
3611,6,1,411,20,0,0,1,609
3612,6,1,412,5,1,1,1,448
3613,6,1,413,2,0,0,1,383
3614,6,1,414,5,0,0,1,519
3615,6,1,415,20,1,1,1,423
3616,6,1,416,10,0,0,1,400
3617,6,1,417,32,1,1,1,629
3618,6,1,418,10,1,1,1,426
3619,6,1,419,32,0,0,1,469
3620,6,1,420,5,0,0,1,534
3621,6,1,421,5,1,1,1,354
3622,6,1,422,32,0,0,0,652
3623,6,1,423,10,1,1,1,554
3624,6,1,424,10,0,0,1,1383
3625,6,1,425,20,0,0,1,430
3626,6,1,426,5,0,0,1,365
3627,6,1,427,2,0,0,1,365
3628,6,1,428,5,1,1,1,429
3629,6,1,429,5,1,1,1,497
3630,6,1,430,20,1,1,1,678
3631,6,1,431,10,1,1,1,419
3632,6,1,432,20,1,1,1,374
3633,6,1,433,20,0,0,1,666
3634,6,1,434,5,0,0,1,609
3635,6,1,435,32,0,0,1,423
3636,6,1,436,20,1,1,1,412
3637,6,1,437,20,1,1,1,406
3638,6,1,438,5,1,1,1,497
3639,6,1,439,5,0,0,1,438
3640,6,1,440,5,1,1,1,386
3641,6,1,441,20,0,0,1,543
3642,6,1,442,20,1,1,1,499
3643,6,1,443,2,0,0,1,392
3644,6,1,444,1,1,1,1,361
3645,6,1,445,5,1,1,1,541
3646,6,1,446,32,0,0,1,853
3647,6,1,447,20,0,0,1,407
3648,6,1,448,10,1,1,1,427
3649,6,1,449,2,1,1,1,404
3650,6,1,450,10,1,1,1,495
3651,6,1,451,5,0,0,1,353
3652,6,1,452,2,0,0,1,532
3653,6,1,453,20,0,0,1,550
3654,6,1,454,20,0,0,1,478
3655,6,1,455,10,0,0,1,373
3656,6,1,456,2,1,1,1,414
3657,6,1,457,1,1,1,1,389
3658,6,1,458,32,1,1,1,1238
3659,6,1,459,2,0,0,1,344
3660,6,1,460,10,0,0,1,499
3661,6,1,461,2,0,0,1,352
3662,6,1,462,2,0,0,1,408
3663,6,1,463,1,1,1,1,338
3664,6,1,464,5,0,0,1,375
3665,6,1,465,32,0,0,1,492
3666,6,1,466,10,1,1,1,371
3667,6,1,467,20,1,1,1,425
3668,6,1,468,32,1,1,1,1196
3669,6,1,469,32,1,1,1,413
3670,6,1,470,5,0,0,1,435
3671,6,1,471,5,0,0,1,365
3672,6,1,472,1,0,0,1,318
3673,6,1,473,2,1,1,1,386
3674,6,1,474,32,1,1,1,563
3675,6,1,475,2,0,0,1,399
3676,6,1,476,32,1,1,1,512
3677,6,1,477,5,0,0,1,404
3678,6,1,478,32,0,0,1,452
3679,6,1,479,20,1,1,1,392
3680,6,1,480,10,1,1,1,562
3681,6,1,481,32,0,0,1,833
3682,6,1,482,2,1,1,1,336
3683,6,1,483,20,1,1,1,484
3684,6,1,484,32,0,0,1,409
3685,6,1,485,10,0,0,1,390
3686,6,1,486,10,0,0,0,417
3687,6,1,487,32,0,0,1,435
3688,6,1,488,2,1,1,1,409
3689,6,1,489,20,0,0,1,348
3690,6,1,490,20,1,1,0,346
3691,6,1,491,1,1,1,1,390
3692,6,1,492,2,0,0,1,339
3693,6,1,493,5,1,1,1,385
3694,6,1,494,5,0,0,1,377
3695,6,1,495,20,1,1,1,465
3696,6,1,496,5,0,0,1,595
3697,6,1,497,10,1,1,1,389
3698,6,1,498,2,0,0,1,386
3699,6,1,499,10,0,0,1,474
3700,6,1,500,32,1,1,1,1143
3701,6,1,501,10,1,1,1,451
3702,6,1,502,2,1,1,1,349
3703,6,1,503,20,0,0,1,695
3704,6,1,504,20,0,0,1,427
3705,6,1,505,2,0,0,1,354
3706,6,1,506,5,0,0,1,382
3707,6,1,507,1,0,0,1,335
3708,6,1,508,10,0,0,1,463
3709,6,1,509,32,1,1,1,724
3710,6,1,510,2,0,0,1,448
3711,6,1,511,20,0,0,1,413
3712,6,1,512,20,1,1,1,396
3713,6,1,513,32,0,0,1,429
3714,6,1,514,1,1,1,1,387
3715,6,1,515,5,0,0,1,587
3716,6,1,516,20,1,1,1,599
3717,6,1,517,20,1,1,1,440
3718,6,1,518,32,0,0,1,465
3719,6,1,519,10,0,0,1,575
3720,6,1,520,32,1,1,1,696
3721,6,1,521,5,0,0,1,436
3722,6,1,522,20,0,0,1,677
3723,6,1,523,10,0,0,1,622
3724,6,1,524,10,1,1,1,424
3725,6,1,525,2,0,0,1,356
3726,6,1,526,32,0,0,1,515
3727,6,1,527,10,1,1,1,468
3728,6,1,528,10,0,0,1,787
3729,6,1,529,10,0,0,1,741
3730,6,1,530,32,1,1,1,633
3731,6,1,531,2,1,1,0,432
3732,6,1,532,10,0,0,1,418
3733,6,1,533,32,0,0,1,444
3734,6,1,534,5,0,0,1,510
3735,6,1,535,32,0,0,1,634
3736,6,1,536,20,1,1,1,630
3737,6,1,537,5,0,0,1,509
3738,6,1,538,2,1,1,1,415
3739,6,1,539,10,1,1,1,392
3740,6,1,540,5,1,1,1,386
3741,6,1,541,20,0,0,1,488
3742,6,1,542,20,0,0,1,493
3743,6,1,543,1,0,0,1,429
3744,6,1,544,32,0,0,1,611
3745,6,1,545,32,0,0,1,519
3746,6,1,546,10,0,0,1,435
3747,6,1,547,32,1,1,1,451
3748,6,1,548,32,0,0,1,496
3749,6,1,549,32,0,0,1,1983
3750,6,1,550,10,1,1,1,456
3751,6,1,551,1,1,1,1,415
3752,6,1,552,32,0,0,0,651
3753,6,1,553,2,0,0,1,359
3754,6,1,554,2,0,0,1,404
3755,6,1,555,20,1,1,1,486
3756,6,1,556,20,1,1,1,416
3757,6,1,557,2,1,1,1,315
3758,6,1,558,2,0,0,1,368
3759,6,1,559,5,0,0,1,398
3760,6,1,560,10,1,1,1,466
3761,6,1,561,32,0,0,1,2060
3762,6,1,562,32,1,1,1,722
3763,6,1,563,2,0,0,1,391
3764,6,1,564,2,0,0,1,419
3765,6,1,565,20,1,1,1,420
3766,6,1,566,20,1,1,1,410
3767,6,1,567,32,1,1,1,364
3768,6,1,568,2,0,0,1,413
3769,6,1,569,10,1,1,1,402
3770,6,1,570,5,1,1,1,665
3771,6,1,571,10,1,1,1,1439
3772,6,1,572,10,0,0,1,519
3773,6,1,573,20,0,0,1,368
3774,6,1,574,2,1,1,1,410
3775,6,1,575,1,1,1,1,347
3776,6,1,576,5,1,1,1,444
3777,6,1,577,10,1,1,1,603
3778,6,1,578,5,0,0,1,503
3779,6,1,579,20,1,1,1,678
3780,6,1,580,32,0,0,1,494
3781,6,1,581,5,1,1,1,437
3782,6,1,582,5,1,1,1,549
3783,6,1,583,32,1,1,1,529
3784,6,1,584,32,0,0,1,989
3785,6,1,585,10,0,0,1,453
3786,6,1,586,32,0,0,1,455
3787,6,1,587,5,1,1,1,427
3788,6,1,588,2,1,1,1,505
3789,6,1,589,20,0,0,1,473
3790,6,1,590,20,0,0,1,466
3791,6,1,591,2,0,0,1,549
3792,6,1,592,10,1,1,1,486
3793,6,1,593,10,0,0,1,478
3794,6,1,594,2,1,1,1,421
3795,6,1,595,32,0,0,1,834
3796,6,1,596,10,1,1,1,515
3797,6,1,597,10,0,0,1,382
3798,6,1,598,5,0,0,1,705
3799,6,1,599,2,0,0,1,414
3800,6,1,600,10,1,1,1,609
3801,6,1,601,20,0,0,1,752
3802,6,1,602,10,0,0,1,1104
3803,6,1,603,32,1,1,1,489
3804,6,1,604,32,1,1,1,532
3805,6,1,605,10,1,1,1,463
3806,6,1,606,32,1,1,1,2777
3807,6,1,607,1,0,0,0,437
3808,6,1,608,32,0,0,1,546
3809,6,1,609,32,0,0,1,407
3810,6,1,610,32,0,0,1,449
3811,6,1,611,10,1,1,1,566
3812,6,1,612,5,1,1,1,441
3813,6,1,613,2,1,1,1,448
3814,6,1,614,32,1,1,1,1937
3815,6,1,615,5,0,0,1,478
3816,6,1,616,5,0,0,1,425
3817,6,1,617,5,1,1,1,506
3818,6,1,618,20,0,0,1,493
3819,6,1,619,20,1,1,1,551
3820,6,1,620,20,1,1,1,515
3821,6,1,621,20,1,1,1,684
3822,6,1,622,5,1,1,1,375
3823,6,1,623,5,0,0,1,436
3824,6,1,624,32,1,1,1,563
3825,6,1,625,5,1,1,1,409
3826,6,1,626,32,0,0,1,424
3827,6,1,627,2,1,1,1,595
3828,6,1,628,20,1,1,1,496
3829,6,1,629,10,0,0,1,424
3830,6,1,630,10,0,0,1,474
3831,6,1,631,20,0,0,1,388
3832,6,1,632,1,0,0,1,342
3833,6,1,633,32,1,1,1,446
3834,6,1,634,20,1,1,1,591
3835,6,1,635,2,0,0,1,445
3836,6,1,636,32,1,1,1,411
3837,6,1,637,5,0,0,1,396
3838,6,1,638,10,1,1,1,1557
3839,6,1,639,10,1,1,1,396
3840,6,1,640,32,0,0,1,977
3841,7,1,1,1,1,1,1,879
3842,7,1,2,10,1,1,1,810
3843,7,1,3,10,1,1,1,1437
3844,7,1,4,1,0,0,1,715
3845,7,1,5,20,0,0,1,672
3846,7,1,6,20,0,0,1,727
3847,7,1,7,20,1,1,1,891
3848,7,1,8,2,0,0,1,838
3849,7,1,9,10,1,1,1,791
3850,7,1,10,10,1,1,1,903
3851,7,1,11,2,1,1,1,782
3852,7,1,12,10,0,0,1,671
3853,7,1,13,20,0,0,1,1085
3854,7,1,14,5,0,0,1,625
3855,7,1,15,32,0,0,1,1013
3856,7,1,16,20,1,1,1,1732
3857,7,1,17,32,0,0,1,910
3858,7,1,18,20,1,1,1,947
3859,7,1,19,1,1,1,1,876
3860,7,1,20,20,1,1,1,1489
3861,7,1,21,20,0,0,1,623
3862,7,1,22,32,1,1,1,680
3863,7,1,23,20,1,1,1,1267
3864,7,1,24,2,1,1,1,575
3865,7,1,25,20,1,1,1,612
3866,7,1,26,5,0,0,1,507
3867,7,1,27,5,1,1,1,588
3868,7,1,28,5,0,0,1,516
3869,7,1,29,32,1,1,1,547
3870,7,1,30,20,1,1,1,877
3871,7,1,31,20,0,0,1,705
3872,7,1,32,32,0,0,1,948
3873,7,1,33,1,0,0,1,545
3874,7,1,34,2,1,1,1,630
3875,7,1,35,20,0,0,1,869
3876,7,1,36,2,1,1,1,789
3877,7,1,37,5,1,1,1,744
3878,7,1,38,2,0,0,1,606
3879,7,1,39,2,0,0,1,586
3880,7,1,40,5,0,0,1,463
3881,7,1,41,2,0,0,1,477
3882,7,1,42,5,1,1,1,572
3883,7,1,43,2,0,0,1,532
3884,7,1,44,1,1,1,1,489
3885,7,1,45,20,1,1,1,753
3886,7,1,46,10,0,0,1,1116
3887,7,1,47,32,1,1,1,789
3888,7,1,48,2,0,0,1,473
3889,7,1,49,5,1,1,1,498
3890,7,1,50,10,1,1,1,776
3891,7,1,51,32,1,1,1,780
3892,7,1,52,32,1,1,1,579
3893,7,1,53,10,0,0,1,682
3894,7,1,54,2,0,0,1,794
3895,7,1,55,2,0,0,1,714
3896,7,1,56,5,0,0,1,545
3897,7,1,57,32,0,0,1,910
3898,7,1,58,5,0,0,1,642
3899,7,1,59,32,0,0,1,657
3900,7,1,60,5,1,1,1,540
3901,7,1,61,10,0,0,1,633
3902,7,1,62,5,0,0,1,493
3903,7,1,63,1,0,0,1,385
3904,7,1,64,32,0,0,1,771
3905,7,1,65,5,1,1,1,593
3906,7,1,66,32,1,1,1,686
3907,7,1,67,2,1,1,1,562
3908,7,1,68,1,0,0,1,483
3909,7,1,69,5,0,0,1,517
3910,7,1,70,2,1,1,1,775
3911,7,1,71,32,1,1,1,1494
3912,7,1,72,5,1,1,1,460
3913,7,1,73,2,0,0,1,583
3914,7,1,74,10,0,0,1,1162
3915,7,1,75,20,0,0,1,756
3916,7,1,76,10,1,1,1,572
3917,7,1,77,5,1,1,1,616
3918,7,1,78,10,1,1,1,560
3919,7,1,79,2,1,1,1,573
3920,7,1,80,5,1,1,1,546
3921,7,1,81,20,1,1,1,1392
3922,7,1,82,10,0,0,1,617
3923,7,1,83,32,1,1,1,473
3924,7,1,84,20,1,1,1,1129
3925,7,1,85,5,1,1,1,664
3926,7,1,86,1,0,0,1,436
3927,7,1,87,10,0,0,1,1023
3928,7,1,88,2,1,1,1,476
3929,7,1,89,20,1,1,1,532
3930,7,1,90,2,0,0,1,509
3931,7,1,91,2,0,0,1,462
3932,7,1,92,32,0,0,1,1262
3933,7,1,93,10,1,1,1,505
3934,7,1,94,5,0,0,1,590
3935,7,1,95,2,0,0,1,611
3936,7,1,96,10,0,0,1,470
3937,7,1,97,10,0,0,1,422
3938,7,1,98,2,1,1,1,682
3939,7,1,99,5,1,1,1,508
3940,7,1,100,32,0,0,1,729
3941,7,1,101,5,0,0,1,535
3942,7,1,102,32,0,0,1,1309
3943,7,1,103,32,1,1,1,1060
3944,7,1,104,2,0,0,1,491
3945,7,1,105,2,1,1,1,491
3946,7,1,106,20,0,0,1,720
3947,7,1,107,1,1,1,1,479
3948,7,1,108,5,1,1,1,430
3949,7,1,109,32,0,0,1,704
3950,7,1,110,5,1,1,1,601
3951,7,1,111,5,1,1,1,519
3952,7,1,112,10,1,1,1,457
3953,7,1,113,10,1,1,1,447
3954,7,1,114,20,0,0,1,521
3955,7,1,115,5,1,1,1,479
3956,7,1,116,32,0,0,1,1076
3957,7,1,117,5,0,0,1,683
3958,7,1,118,10,1,1,1,1186
3959,7,1,119,20,0,0,1,1029
3960,7,1,120,10,1,1,1,606
3961,7,1,121,1,1,1,1,589
3962,7,1,122,32,0,0,1,545
3963,7,1,123,10,1,1,1,477
3964,7,1,124,5,0,0,1,468
3965,7,1,125,5,0,0,1,411
3966,7,1,126,5,0,0,1,645
3967,7,1,127,20,1,1,1,642
3968,7,1,128,2,1,1,1,446
3969,7,1,129,20,1,1,1,785
3970,7,1,130,20,0,0,1,447
3971,7,1,131,10,1,1,1,586
3972,7,1,132,32,1,1,1,443
