trial_id,Subject,block_n,Trial,set_size,correctResponse,resp,acc,RT
1,1,1,1,20,1,1,1,655
2,1,1,2,10,1,1,1,506
3,1,1,3,10,0,0,1,421
4,1,1,4,10,0,0,1,640
5,1,1,5,10,1,1,1,397
6,1,1,6,2,1,1,1,417
7,1,1,7,10,0,0,1,700
8,1,1,8,32,1,1,1,677
9,1,1,9,1,0,0,1,501
10,1,1,10,20,0,0,1,464
11,1,1,11,20,0,0,1,489
12,1,1,12,32,1,1,1,697
13,1,1,13,10,1,1,1,678
14,1,1,14,32,1,1,1,501
15,1,1,15,20,1,1,1,510
16,1,1,16,10,0,0,1,756
17,1,1,17,10,1,1,1,410
18,1,1,18,2,1,1,1,563
19,1,1,19,10,1,1,1,473
20,1,1,20,20,0,0,1,564
21,1,1,21,5,0,0,1,452
22,1,1,22,2,0,0,1,371
23,1,1,23,10,1,1,1,396
24,1,1,24,1,1,1,1,542
25,1,1,25,5,1,1,1,785
26,1,1,26,32,1,1,1,534
27,1,1,27,2,1,1,1,384
28,1,1,28,1,0,0,1,406
29,1,1,29,2,1,1,1,407
30,1,1,30,32,0,0,1,673
31,1,1,31,1,0,0,1,408
32,1,1,32,10,0,0,1,626
33,1,1,33,10,0,0,1,386
34,1,1,34,20,1,1,1,678
35,1,1,35,20,0,0,1,461
36,1,1,36,5,1,1,1,386
37,1,1,37,32,0,0,1,579
38,1,1,38,10,1,1,1,565
39,1,1,39,5,0,0,1,544
40,1,1,40,32,0,0,1,710
41,1,1,41,20,1,1,1,781
42,1,1,42,2,0,0,1,432
43,1,1,43,5,0,0,1,524
44,1,1,44,32,1,1,1,467
45,1,1,45,32,1,1,1,508
46,1,1,46,20,1,1,1,573
47,1,1,47,2,0,0,1,415
48,1,1,48,20,1,1,1,688
49,1,1,49,5,1,1,1,495
50,1,1,50,5,0,0,1,654
51,1,1,51,10,0,0,1,614
52,1,1,52,10,1,1,1,407
53,1,1,53,32,1,1,1,716
54,1,1,54,10,1,1,1,493
55,1,1,55,20,1,1,1,491
56,1,1,56,32,0,0,1,979
57,1,1,57,20,0,0,1,557
58,1,1,58,2,1,1,1,486
59,1,1,59,32,1,1,1,686
60,1,1,60,5,1,1,1,413
61,1,1,61,20,0,0,1,716
62,1,1,62,20,1,1,1,427
63,1,1,63,5,0,0,1,400
64,1,1,64,5,1,1,1,497
65,1,1,65,32,0,0,1,758
66,1,1,66,32,0,0,1,555
67,1,1,67,5,0,0,1,532
68,1,1,68,2,1,1,1,512
69,1,1,69,2,0,0,1,508
70,1,1,70,2,1,1,1,544
71,1,1,71,2,0,0,1,478
72,1,1,72,10,0,0,1,651
73,1,1,73,10,1,1,1,647
74,1,1,74,2,0,0,1,577
75,1,1,75,2,0,0,1,568
76,1,1,76,2,0,0,1,600
77,1,1,77,32,0,0,1,527
78,1,1,78,32,0,0,1,975
79,1,1,79,20,1,1,1,501
80,1,1,80,5,0,0,1,654
81,1,1,81,1,1,1,1,468
82,1,1,82,10,1,1,1,508
83,1,1,83,32,0,0,1,619
84,1,1,84,32,1,1,1,572
85,1,1,85,2,1,1,1,496
86,1,1,86,32,0,0,1,832
87,1,1,87,32,0,0,1,595
88,1,1,88,10,0,0,1,638
89,1,1,89,5,1,1,1,513
90,1,1,90,20,0,0,1,515
91,1,1,91,1,1,1,1,438
92,1,1,92,2,0,0,1,595
93,1,1,93,32,0,0,1,861
94,1,1,94,20,1,1,1,984
95,1,1,95,32,0,0,1,502
96,1,1,96,20,0,0,1,538
97,1,1,97,20,0,0,1,642
98,1,1,98,5,0,0,1,551
99,1,1,99,32,1,1,1,548
100,1,1,100,10,0,0,1,645
101,1,1,101,20,0,0,1,550
102,1,1,102,10,0,0,1,485
103,1,1,103,10,1,1,1,585
104,1,1,104,32,1,1,1,635
105,1,1,105,32,0,0,1,575
106,1,1,106,10,0,0,1,715
107,1,1,107,5,1,1,1,650
108,1,1,108,2,1,1,1,615
109,1,1,109,5,1,1,1,1108
110,1,1,110,32,0,0,1,587
111,1,1,111,1,0,0,1,460
112,1,1,112,20,1,1,1,528
113,1,1,113,32,0,0,1,606
114,1,1,114,20,0,0,1,451
115,1,1,115,20,0,0,1,585
116,1,1,116,2,0,0,1,528
117,1,1,117,5,0,0,1,399
118,1,1,118,32,1,1,1,502
119,1,1,119,32,1,1,1,736
120,1,1,120,10,1,1,1,461
121,1,1,121,10,1,1,1,688
122,1,1,122,32,0,0,1,523
123,1,1,123,5,1,1,1,411
124,1,1,124,32,0,0,1,525
125,1,1,125,32,0,0,1,471
126,1,1,126,32,0,0,1,653
127,1,1,127,5,0,0,1,553
128,1,1,128,2,0,0,1,428
129,1,1,129,2,0,0,1,569
130,1,1,130,5,0,0,1,485
131,1,1,131,32,1,1,1,494
132,1,1,132,32,1,1,1,717
133,1,1,133,5,1,1,1,596
134,1,1,134,5,1,1,1,536
135,1,1,135,10,1,1,1,455
136,1,1,136,20,1,1,1,564
137,1,1,137,10,0,0,1,762
138,1,1,138,20,0,0,1,590
139,1,1,139,1,1,1,1,674
140,1,1,140,2,0,0,1,607
141,1,1,141,1,0,0,1,677
142,1,1,142,32,0,0,1,729
143,1,1,143,32,1,1,1,512
144,1,1,144,32,1,1,1,476
145,1,1,145,20,0,0,1,799
146,1,1,146,20,1,1,1,713
147,1,1,147,32,1,1,1,549
148,1,1,148,1,1,1,1,602
149,1,1,149,5,0,0,1,794
150,1,1,150,20,1,1,1,508
151,1,1,151,10,1,1,1,467
152,1,1,152,2,1,1,1,432
153,1,1,153,32,0,0,1,481
154,1,1,154,32,0,0,1,565
155,1,1,155,32,1,1,1,594
156,1,1,156,5,1,1,1,464
157,1,1,157,5,1,1,1,550
158,1,1,158,10,0,0,1,1095
159,1,1,159,10,1,1,1,591
160,1,1,160,2,0,0,1,617
161,1,1,161,10,0,0,1,664
162,1,1,162,32,1,1,1,489
163,1,1,163,10,0,0,1,563
164,1,1,164,5,1,1,1,447
165,1,1,165,20,0,0,1,590
166,1,1,166,2,1,1,1,506
167,1,1,167,20,0,0,1,643
168,1,1,168,32,0,0,1,575
169,1,1,169,2,1,1,1,652
170,1,1,170,10,0,0,1,488
171,1,1,171,20,1,1,1,582
172,1,1,172,5,0,0,1,417
173,1,1,173,5,1,1,1,518
174,1,1,174,10,0,0,1,518
175,1,1,175,32,0,0,1,638
176,1,1,176,32,0,0,1,1180
177,1,1,177,5,1,1,1,596
178,1,1,178,32,1,1,1,734
179,1,1,179,5,0,0,1,545
180,1,1,180,5,0,0,1,913
181,1,1,181,20,0,0,1,440
182,1,1,182,20,0,0,1,646
183,1,1,183,20,0,0,1,638
184,1,1,184,32,0,0,1,536
185,1,1,185,10,0,0,1,529
186,1,1,186,20,1,1,1,417
187,1,1,187,2,0,0,1,521
188,1,1,188,1,0,0,1,524
189,1,1,189,5,1,1,1,513
190,1,1,190,5,1,1,1,417
191,1,1,191,32,0,0,1,493
192,1,1,192,2,1,1,1,443
193,1,1,193,2,1,1,1,468
194,1,1,194,5,1,1,1,551
195,1,1,195,10,1,1,1,500
196,1,1,196,10,1,1,1,539
197,1,1,197,32,1,1,1,500
198,1,1,198,20,1,1,1,452
199,1,1,199,20,0,0,1,499
200,1,1,200,32,0,0,1,591
201,1,1,201,32,1,1,1,933
202,1,1,202,2,1,1,1,525
203,1,1,203,20,0,0,1,844
204,1,1,204,2,0,0,1,477
205,1,1,205,1,1,1,1,350
206,1,1,206,5,1,1,1,555
207,1,1,207,10,1,1,1,684
208,1,1,208,2,1,1,1,459
209,1,1,209,20,1,1,1,428
210,1,1,210,20,0,0,1,742
211,1,1,211,2,0,0,1,900
212,1,1,212,20,0,0,1,375
213,1,1,213,5,0,0,1,384
214,1,1,214,20,1,1,1,437
215,1,1,215,1,1,1,1,487
216,1,1,216,2,1,1,1,564
217,1,1,217,5,0,0,1,403
218,1,1,218,20,0,0,1,581
219,1,1,219,5,1,1,1,479
220,1,1,220,5,1,1,1,450
221,1,1,221,32,0,0,1,671
222,1,1,222,10,0,0,1,411
223,1,1,223,20,1,1,1,429
224,1,1,224,20,1,1,1,690
225,1,1,225,10,0,0,1,574
226,1,1,226,20,1,1,1,499
227,1,1,227,32,0,0,1,476
228,1,1,228,20,1,1,1,586
229,1,1,229,20,0,0,1,568
230,1,1,230,2,1,1,1,448
231,1,1,231,20,1,1,1,574
232,1,1,232,20,1,1,1,415
233,1,1,233,10,0,0,1,562
234,1,1,234,2,0,0,1,615
235,1,1,235,2,1,1,1,334
236,1,1,236,10,0,0,1,537
237,1,1,237,10,0,0,1,436
238,1,1,238,2,0,0,1,526
239,1,1,239,1,1,1,1,398
240,1,1,240,32,0,0,1,445
241,1,1,241,5,1,1,1,551
242,1,1,242,2,0,0,1,423
243,1,1,243,32,0,0,0,411
244,1,1,244,10,1,1,1,525
245,1,1,245,2,0,0,1,466
246,1,1,246,10,1,1,1,699
247,1,1,247,5,0,0,1,577
248,1,1,248,2,1,1,1,630
249,1,1,249,32,1,1,1,625
250,1,1,250,1,0,0,1,518
251,1,1,251,2,0,0,1,581
252,1,1,252,20,0,0,1,543
253,1,1,253,10,0,0,1,571
254,1,1,254,2,0,0,1,361
255,1,1,255,32,0,0,1,361
256,1,1,256,2,1,1,1,590
257,1,1,257,10,1,1,1,628
258,1,1,258,32,1,1,1,674
259,1,1,259,20,0,0,1,505
260,1,1,260,2,0,0,1,541
261,1,1,261,5,0,0,1,657
262,1,1,262,5,0,0,1,622
263,1,1,263,2,0,0,1,376
264,1,1,264,20,1,1,1,496
265,1,1,265,20,0,0,1,472
266,1,1,266,2,0,0,1,460
267,1,1,267,20,0,0,1,617
268,1,1,268,2,1,1,1,768
269,1,1,269,32,1,1,1,723
270,1,1,270,32,0,0,1,749
271,1,1,271,20,0,0,1,1298
272,1,1,272,2,1,1,1,424
273,1,1,273,2,0,0,1,883
274,1,1,274,5,1,1,1,773
275,1,1,275,5,1,1,1,836
276,1,1,276,2,0,0,1,524
277,1,1,277,32,1,1,1,773
278,1,1,278,10,1,1,1,413
279,1,1,279,2,1,1,1,628
280,1,1,280,32,0,0,0,370
281,1,1,281,2,0,0,1,671
282,1,1,282,20,1,1,1,454
283,1,1,283,2,1,1,1,383
284,1,1,284,32,0,0,1,508
285,1,1,285,5,0,0,1,532
286,1,1,286,32,1,1,1,619
287,1,1,287,20,0,0,1,565
288,1,1,288,20,0,0,1,426
289,1,1,289,1,1,1,1,397
290,1,1,290,32,1,1,0,611
291,1,1,291,5,0,0,1,418
292,1,1,292,32,0,0,1,407
293,1,1,293,10,1,1,1,423
294,1,1,294,20,1,1,1,491
295,1,1,295,1,1,1,1,484
296,1,1,296,10,1,1,1,493
297,1,1,297,5,0,0,1,694
298,1,1,298,10,1,1,1,598
299,1,1,299,20,0,0,1,442
300,1,1,300,2,1,1,1,524
301,1,1,301,20,0,0,1,598
302,1,1,302,5,0,0,1,450
303,1,1,303,2,1,1,1,446
304,1,1,304,32,0,0,1,352
305,1,1,305,5,1,1,1,519
306,1,1,306,1,1,1,1,398
307,1,1,307,20,1,1,1,409
308,1,1,308,20,1,1,1,394
309,1,1,309,2,1,1,0,355
310,1,1,310,5,0,0,1,460
311,1,1,311,10,1,1,1,645
312,1,1,312,10,0,0,1,492
313,1,1,313,2,1,1,1,381
314,1,1,314,20,1,1,1,469
315,1,1,315,20,0,0,1,717
316,1,1,316,1,1,1,1,494
317,1,1,317,5,0,0,1,527
318,1,1,318,20,0,0,1,458
319,1,1,319,32,1,1,1,519
320,1,1,320,5,1,1,1,414
321,1,1,321,2,1,1,1,594
322,1,1,322,10,0,0,1,622
323,1,1,323,10,0,0,1,400
324,1,1,324,20,0,0,1,344
325,1,1,325,10,1,1,1,582
326,1,1,326,20,1,1,1,412
327,1,1,327,20,1,1,1,429
328,1,1,328,10,0,0,0,333
329,1,1,329,10,1,1,1,476
330,1,1,330,5,1,1,1,570
331,1,1,331,5,1,1,1,520
332,1,1,332,5,0,0,1,378
333,1,1,333,20,1,1,1,437
334,1,1,334,32,1,1,1,444
335,1,1,335,10,1,1,1,393
336,1,1,336,1,0,0,1,381
337,1,1,337,10,1,1,1,508
338,1,1,338,32,1,1,1,471
339,1,1,339,10,1,1,1,446
340,1,1,340,10,0,0,1,466
341,1,1,341,10,1,1,1,518
342,1,1,342,10,0,0,1,574
343,1,1,343,5,1,1,1,391
344,1,1,344,2,1,1,1,511
345,1,1,345,2,1,1,1,365
346,1,1,346,32,0,0,1,417
347,1,1,347,32,1,1,1,565
348,1,1,348,32,1,1,1,470
349,1,1,349,32,1,1,1,405
350,1,1,350,10,0,0,1,502
351,1,1,351,2,0,0,1,568
352,1,1,352,32,1,1,1,683
353,1,1,353,5,0,0,1,768
354,1,1,354,5,1,1,1,516
355,1,1,355,5,1,1,1,461
356,1,1,356,2,0,0,1,511
357,1,1,357,10,0,0,1,400
358,1,1,358,20,0,0,1,506
359,1,1,359,20,1,1,0,470
360,1,1,360,10,0,0,1,598
361,1,1,361,5,1,1,1,767
362,1,1,362,5,0,0,1,434
363,1,1,363,20,0,0,1,441
364,1,1,364,20,0,0,1,471
365,1,1,365,5,0,0,1,404
366,1,1,366,2,1,1,1,558
367,1,1,367,5,1,1,1,735
368,1,1,368,2,1,1,1,473
369,1,1,369,5,0,0,1,370
370,1,1,370,10,1,1,1,575
371,1,1,371,20,1,1,1,468
372,1,1,372,32,0,0,1,415
373,1,1,373,32,1,1,1,523
374,1,1,374,32,1,1,1,663
375,1,1,375,2,0,0,1,530
376,1,1,376,20,1,1,1,469
377,1,1,377,2,0,0,1,682
378,1,1,378,10,1,1,1,465
379,1,1,379,2,1,1,1,404
380,1,1,380,10,0,0,1,767
381,1,1,381,20,1,1,1,463
382,1,1,382,10,0,0,1,620
383,1,1,383,20,1,1,1,638
384,1,1,384,5,1,1,1,428
385,1,1,385,1,0,0,1,649
386,1,1,386,10,1,1,1,446
387,1,1,387,2,1,1,1,407
388,1,1,388,10,1,1,1,461
389,1,1,389,2,1,1,1,368
390,1,1,390,2,0,0,1,401
391,1,1,391,5,1,1,1,451
392,1,1,392,5,1,1,1,413
393,1,1,393,32,1,1,1,729
394,1,1,394,32,1,1,1,419
395,1,1,395,2,1,1,1,458
396,1,1,396,2,1,1,1,467
397,1,1,397,20,0,0,1,466
398,1,1,398,10,0,0,1,620
399,1,1,399,1,0,0,1,390
400,1,1,400,32,0,0,1,507
401,1,1,401,1,0,0,1,627
402,1,1,402,5,1,1,1,404
403,1,1,403,10,1,1,1,435
404,1,1,404,5,1,1,1,348
405,1,1,405,20,0,0,1,517
406,1,1,406,5,1,1,1,613
407,1,1,407,32,0,0,1,551
408,1,1,408,10,1,1,1,416
409,1,1,409,2,1,1,1,711
410,1,1,410,10,0,0,1,536
411,1,1,411,2,0,0,1,427
412,1,1,412,2,0,0,1,437
413,1,1,413,2,0,0,1,364
414,1,1,414,32,0,0,1,497
415,1,1,415,32,1,1,1,562
416,1,1,416,10,0,0,1,500
417,1,1,417,5,1,1,1,608
418,1,1,418,10,1,1,1,591
419,1,1,419,5,0,0,1,453
420,1,1,420,2,0,0,1,996
421,1,1,421,5,1,1,1,476
422,1,1,422,20,1,1,1,456
423,1,1,423,5,0,0,1,371
424,1,1,424,2,0,0,1,530
425,1,1,425,32,1,1,1,517
426,1,1,426,5,0,0,1,574
427,1,1,427,20,1,1,1,561
428,1,1,428,20,1,1,1,988
429,1,1,429,20,0,0,1,1039
430,1,1,430,20,0,0,1,917
431,1,1,431,20,1,1,1,960
432,1,1,432,32,0,0,1,1209
433,1,1,433,32,0,0,1,564
434,1,1,434,2,0,0,1,513
435,1,1,435,2,0,0,1,430
436,1,1,436,5,1,1,1,453
437,1,1,437,1,1,1,1,356
438,1,1,438,20,0,0,1,651
439,1,1,439,2,0,0,1,596
440,1,1,440,2,0,0,1,400
441,1,1,441,10,0,0,1,1171
442,1,1,442,32,1,1,1,463
443,1,1,443,2,1,1,1,435
444,1,1,444,5,0,0,1,574
445,1,1,445,10,1,1,1,384
446,1,1,446,5,0,0,1,672
447,1,1,447,10,1,1,1,466
448,1,1,448,10,1,1,1,709
449,1,1,449,2,1,1,1,426
450,1,1,450,32,1,1,1,506
451,1,1,451,20,1,1,1,555
452,1,1,452,32,0,0,1,718
453,1,1,453,10,1,1,1,509
454,1,1,454,32,1,1,1,577
455,1,1,455,5,0,0,1,607
456,1,1,456,20,1,1,1,655
457,1,1,457,10,0,0,1,578
458,1,1,458,10,0,0,1,390
459,1,1,459,2,0,0,1,375
460,1,1,460,10,0,0,1,404
461,1,1,461,5,0,0,1,456
462,1,1,462,20,1,1,1,486
463,1,1,463,5,0,0,1,580
464,1,1,464,20,0,0,1,562
465,1,1,465,32,0,0,1,467
466,1,1,466,32,1,1,1,515
467,1,1,467,20,1,1,1,706
468,1,1,468,10,0,0,1,637
469,1,1,469,2,1,1,1,436
470,1,1,470,5,0,0,1,437
471,1,1,471,1,1,1,1,518
472,1,1,472,1,1,1,1,602
473,1,1,473,20,1,1,1,421
474,1,1,474,2,1,1,1,718
475,1,1,475,5,1,1,1,625
476,1,1,476,20,1,1,1,938
477,1,1,477,10,1,1,1,397
478,1,1,478,20,0,0,1,426
479,1,1,479,10,0,0,1,616
480,1,1,480,2,0,0,1,1064
481,1,1,481,20,0,0,1,910
482,1,1,482,5,0,0,1,567
483,1,1,483,5,0,0,1,406
484,1,1,484,20,0,0,1,422
485,1,1,485,5,1,1,1,541
486,1,1,486,20,0,0,1,423
487,1,1,487,5,1,1,1,413
488,1,1,488,1,0,0,1,378
489,1,1,489,5,0,0,1,483
490,1,1,490,1,0,0,1,344
491,1,1,491,10,1,1,1,491
492,1,1,492,32,1,1,1,442
493,1,1,493,32,1,1,1,419
494,1,1,494,10,0,0,1,402
495,1,1,495,2,1,1,1,406
496,1,1,496,20,1,1,1,561
497,1,1,497,2,1,1,1,522
498,1,1,498,20,1,1,1,509
499,1,1,499,10,0,0,0,594
500,1,1,500,32,1,1,1,527
501,1,1,501,10,1,1,1,827
502,1,1,502,10,1,1,1,412
503,1,1,503,20,0,0,1,495
504,1,1,504,32,0,0,1,450
505,1,1,505,20,1,1,1,502
506,1,1,506,20,0,0,1,479
507,1,1,507,10,1,1,1,540
508,1,1,508,32,1,1,1,430
509,1,1,509,2,0,0,1,475
510,1,1,510,2,0,0,1,552
511,1,1,511,20,0,0,1,513
512,1,1,512,32,0,0,1,711
513,1,1,513,32,0,0,1,543
514,1,1,514,5,0,0,1,468
515,1,1,515,5,1,1,1,440
516,1,1,516,2,0,0,1,502
517,1,1,517,10,1,1,1,740
518,1,1,518,2,1,1,1,506
519,1,1,519,20,1,1,1,435
520,1,1,520,2,0,0,1,427
521,1,1,521,10,0,0,1,355
522,1,1,522,2,0,0,1,466
523,1,1,523,32,1,1,1,443
524,1,1,524,5,0,0,1,645
525,1,1,525,10,1,1,1,396
526,1,1,526,10,0,0,1,353
527,1,1,527,20,1,1,1,416
528,1,1,528,10,1,1,1,554
529,1,1,529,32,1,1,1,447
530,1,1,530,2,1,1,1,472
531,1,1,531,2,0,0,1,403
532,1,1,532,5,0,0,1,797
533,1,1,533,20,1,1,1,536
534,1,1,534,2,0,0,1,471
535,1,1,535,20,1,1,1,744
536,1,1,536,20,0,0,1,825
537,1,1,537,2,0,0,1,515
538,1,1,538,2,0,0,1,520
539,1,1,539,5,1,1,1,859
540,1,1,540,2,0,0,1,490
541,1,1,541,32,1,1,1,717
542,1,1,542,1,1,1,1,491
543,1,1,543,2,1,1,1,527
544,1,1,544,1,0,0,1,431
545,1,1,545,5,0,0,1,576
546,1,1,546,5,1,1,1,502
547,1,1,547,10,1,1,1,524
548,1,1,548,2,1,1,1,576
549,1,1,549,20,1,1,1,753
550,1,1,550,10,1,1,1,462
551,1,1,551,5,1,1,1,802
552,1,1,552,32,1,1,1,973
553,1,1,553,5,1,1,1,607
554,1,1,554,2,1,1,1,443
555,1,1,555,5,1,1,1,540
556,1,1,556,2,0,0,1,587
557,1,1,557,20,0,0,1,502
558,1,1,558,1,0,0,1,657
559,1,1,559,10,0,0,1,492
560,1,1,560,10,1,1,1,439
561,1,1,561,1,1,1,1,886
562,1,1,562,10,1,1,1,419
563,1,1,563,20,0,0,1,510
564,1,1,564,5,0,0,1,525
565,1,1,565,32,1,1,1,525
566,1,1,566,2,1,1,1,616
567,1,1,567,32,1,1,1,589
568,1,1,568,10,1,1,1,559
569,1,1,569,5,0,0,1,856
570,1,1,570,10,1,1,1,462
571,1,1,571,5,1,1,1,516
572,1,1,572,2,0,0,1,517
573,1,1,573,20,0,0,1,456
574,1,1,574,32,0,0,1,572
575,1,1,575,32,0,0,1,475
576,1,1,576,2,1,1,1,410
577,1,1,577,5,0,0,1,653
578,1,1,578,10,1,1,1,532
579,1,1,579,32,0,0,1,820
580,1,1,580,1,0,0,1,444
581,1,1,581,32,0,0,1,616
582,1,1,582,5,0,0,1,397
583,1,1,583,5,0,0,1,446
584,1,1,584,5,0,0,1,590
585,1,1,585,2,1,1,1,571
586,1,1,586,2,0,0,1,416
587,1,1,587,1,1,1,1,457
588,1,1,588,10,0,0,1,714
589,1,1,589,2,1,1,1,668
590,1,1,590,2,1,1,1,471
591,1,1,591,1,0,0,1,401
592,1,1,592,2,0,0,1,406
593,1,1,593,10,0,0,1,630
594,1,1,594,10,0,0,1,825
595,1,1,595,2,0,0,1,519
596,1,1,596,32,0,0,1,532
597,1,1,597,20,0,0,1,579
598,1,1,598,5,1,1,1,697
599,1,1,599,5,0,0,1,494
600,1,1,600,1,0,0,1,442
601,1,1,601,5,1,1,1,588
602,1,1,602,20,1,1,1,1993
603,1,1,603,5,1,1,1,443
604,1,1,604,1,0,0,1,504
605,1,1,605,1,1,1,1,417
606,1,1,606,5,0,0,1,508
607,1,1,607,2,1,1,1,434
608,1,1,608,10,0,0,1,572
609,1,1,609,10,0,0,1,605
610,1,1,610,20,0,0,0,464
611,1,1,611,2,1,1,1,528
612,1,1,612,5,1,1,1,664
613,1,1,613,10,0,0,1,463
614,1,1,614,32,0,0,1,637
615,1,1,615,5,0,0,1,500
616,1,1,616,1,1,1,1,416
617,1,1,617,5,0,0,1,409
618,1,1,618,5,0,0,1,507
619,1,1,619,20,0,0,1,736
620,1,1,620,5,0,0,1,420
621,1,1,621,32,0,0,1,456
622,1,1,622,2,1,1,1,515
623,1,1,623,5,1,1,1,539
624,1,1,624,10,0,0,1,506
625,1,1,625,32,1,1,1,473
626,1,1,626,5,0,0,1,488
627,1,1,627,10,0,0,1,547
628,1,1,628,32,1,1,1,465
629,1,1,629,5,1,1,1,434
630,1,1,630,32,1,1,1,576
631,1,1,631,32,0,0,1,898
632,1,1,632,20,1,1,1,597
633,1,1,633,10,0,0,1,463
634,1,1,634,32,0,0,1,516
635,1,1,635,2,1,1,1,722
636,1,1,636,32,1,1,1,566
637,1,1,637,1,0,0,1,512
638,1,1,638,5,1,1,1,767
639,1,1,639,20,1,1,1,618
640,1,1,640,10,0,0,1,472
641,2,1,1,20,1,1,1,1261
642,2,1,2,10,1,1,1,1132
643,2,1,3,1,1,1,1,523
644,2,1,4,5,1,1,1,792
645,2,1,5,20,1,1,1,767
646,2,1,6,10,0,0,1,920
647,2,1,7,10,1,1,1,721
648,2,1,8,5,0,0,1,529
649,2,1,9,2,0,0,1,507
650,2,1,10,10,0,0,1,740
651,2,1,11,10,0,0,1,786
652,2,1,12,2,0,0,1,508
653,2,1,13,1,0,0,1,515
654,2,1,14,2,0,0,1,486
655,2,1,15,1,0,0,1,486
656,2,1,16,5,1,1,1,720
657,2,1,17,2,0,0,1,543
658,2,1,18,2,1,1,1,605
659,2,1,19,32,0,0,1,1048
660,2,1,20,20,1,1,1,741
661,2,1,21,5,0,0,1,786
662,2,1,22,20,1,1,1,785
663,2,1,23,20,1,1,1,574
664,2,1,24,2,1,1,1,548
665,2,1,25,32,1,1,1,1011
666,2,1,26,20,1,1,1,794
667,2,1,27,5,1,1,1,869
668,2,1,28,20,1,1,1,836
669,2,1,29,1,1,1,1,514
670,2,1,30,5,0,0,1,553
671,2,1,31,5,0,0,1,610
672,2,1,32,32,0,0,1,700
673,2,1,33,32,1,1,1,1002
674,2,1,34,10,0,0,1,653
675,2,1,35,32,0,0,1,1055
676,2,1,36,5,0,0,1,670
677,2,1,37,10,1,1,1,726
678,2,1,38,32,0,0,1,645
679,2,1,39,2,1,1,1,706
680,2,1,40,20,1,1,1,736
681,2,1,41,1,0,0,1,495
682,2,1,42,20,0,0,1,584
683,2,1,43,2,1,1,1,725
684,2,1,44,20,1,1,1,796
685,2,1,45,20,0,0,1,551
686,2,1,46,2,1,1,1,596
687,2,1,47,10,0,0,1,661
688,2,1,48,32,1,1,1,500
689,2,1,49,32,1,1,1,698
690,2,1,50,5,1,1,1,874
691,2,1,51,2,1,1,1,872
692,2,1,52,10,1,1,1,552
693,2,1,53,2,1,1,1,607
694,2,1,54,5,0,0,1,518
695,2,1,55,10,0,0,1,526
696,2,1,56,5,1,1,1,657
697,2,1,57,20,0,0,1,546
698,2,1,58,2,1,1,1,597
699,2,1,59,2,1,1,1,747
700,2,1,60,2,0,0,1,704
701,2,1,61,10,1,1,1,533
702,2,1,62,10,0,0,1,636
703,2,1,63,10,0,0,1,733
704,2,1,64,5,1,1,1,526
705,2,1,65,20,0,0,1,712
706,2,1,66,5,0,0,1,522
707,2,1,67,2,1,1,1,562
708,2,1,68,10,0,0,1,539
709,2,1,69,20,1,1,1,632
710,2,1,70,32,0,0,1,460
711,2,1,71,1,0,0,1,461
712,2,1,72,20,1,1,1,656
713,2,1,73,5,1,1,1,858
714,2,1,74,1,0,0,1,527
715,2,1,75,20,1,1,1,636
716,2,1,76,32,0,0,1,473
717,2,1,77,1,1,1,1,557
718,2,1,78,20,0,0,1,615
719,2,1,79,5,1,1,1,536
720,2,1,80,32,0,0,1,738
721,2,1,81,32,0,0,1,522
722,2,1,82,10,1,1,1,843
723,2,1,83,5,1,1,1,612
724,2,1,84,20,0,0,1,712
725,2,1,85,2,1,1,1,441
726,2,1,86,10,0,0,1,499
727,2,1,87,1,0,0,1,502
728,2,1,88,10,1,1,1,538
729,2,1,89,10,0,0,1,801
730,2,1,90,32,0,0,1,617
731,2,1,91,32,1,1,1,694
732,2,1,92,32,1,1,1,849
733,2,1,93,2,1,1,1,591
734,2,1,94,20,0,0,1,991
735,2,1,95,2,1,1,1,1033
736,2,1,96,10,0,0,1,539
737,2,1,97,5,1,1,1,1186
738,2,1,98,32,0,0,1,885
739,2,1,99,20,0,0,1,758
740,2,1,100,20,0,0,1,910
741,2,1,101,2,0,0,1,1057
742,2,1,102,5,0,0,1,833
743,2,1,103,32,0,0,1,862
744,2,1,104,20,1,1,1,1001
745,2,1,105,32,0,0,1,485
746,2,1,106,2,1,1,1,965
747,2,1,107,5,1,1,1,963
748,2,1,108,10,1,1,1,857
749,2,1,109,10,0,0,1,1317
750,2,1,110,32,0,0,1,665
751,2,1,111,20,1,1,1,1511
752,2,1,112,1,0,0,1,873
753,2,1,113,5,0,0,1,940
754,2,1,114,32,1,1,1,1509
755,2,1,115,32,1,1,1,956
756,2,1,116,32,1,1,1,1116
757,2,1,117,20,1,1,1,800
758,2,1,118,32,1,1,1,815
759,2,1,119,5,1,1,1,1140
760,2,1,120,20,0,0,1,951
761,2,1,121,20,0,0,1,716
762,2,1,122,2,1,1,1,1024
763,2,1,123,32,0,0,1,887
764,2,1,124,32,1,1,1,1576
765,2,1,125,32,0,0,1,738
766,2,1,126,10,1,1,1,567
767,2,1,127,5,1,1,1,872
768,2,1,128,2,0,0,1,504
769,2,1,129,5,1,1,1,748
770,2,1,130,32,0,0,1,855
771,2,1,131,5,0,0,1,677
772,2,1,132,10,0,0,1,646
773,2,1,133,32,1,1,1,804
774,2,1,134,32,0,0,1,495
775,2,1,135,2,1,1,1,1005
776,2,1,136,10,1,1,1,964
777,2,1,137,5,1,1,1,855
778,2,1,138,32,0,0,1,759
779,2,1,139,32,1,1,1,972
780,2,1,140,10,0,0,1,707
781,2,1,141,20,0,0,1,713
782,2,1,142,5,1,1,1,794
783,2,1,143,32,0,0,1,950
784,2,1,144,5,0,0,1,544
785,2,1,145,10,0,0,1,640
786,2,1,146,32,1,1,1,1013
787,2,1,147,2,0,0,1,727
788,2,1,148,2,1,1,1,860
789,2,1,149,20,0,0,1,770
790,2,1,150,32,0,0,1,720
791,2,1,151,32,0,0,1,903
792,2,1,152,10,1,1,1,972
793,2,1,153,5,0,0,1,669
794,2,1,154,32,0,0,1,715
795,2,1,155,2,0,0,1,511
796,2,1,156,10,0,0,1,568
797,2,1,157,10,1,1,1,923
798,2,1,158,5,0,0,1,818
799,2,1,159,5,1,1,1,997
800,2,1,160,5,0,0,1,812
801,2,1,161,2,1,1,1,729
802,2,1,162,5,0,0,1,510
803,2,1,163,2,0,0,1,763
804,2,1,164,20,0,0,1,528
805,2,1,165,2,1,1,1,1003
806,2,1,166,5,1,1,1,804
807,2,1,167,10,1,1,1,861
808,2,1,168,32,1,1,1,654
809,2,1,169,32,1,1,1,669
810,2,1,170,20,0,0,1,1024
811,2,1,171,5,0,0,1,645
812,2,1,172,32,0,0,1,910
813,2,1,173,5,0,0,1,641
814,2,1,174,2,0,0,1,572
815,2,1,175,5,1,1,1,1048
816,2,1,176,10,1,1,1,1042
817,2,1,177,32,1,1,1,989
818,2,1,178,20,0,0,1,1263
819,2,1,179,5,1,1,1,1019
820,2,1,180,10,0,0,1,797
821,2,1,181,1,0,0,1,875
822,2,1,182,32,1,1,1,962
823,2,1,183,2,0,0,1,1176
824,2,1,184,2,1,1,1,924
825,2,1,185,20,0,0,1,847
826,2,1,186,10,1,1,1,1115
827,2,1,187,2,0,0,1,723
828,2,1,188,32,1,1,1,891
829,2,1,189,5,1,1,1,694
830,2,1,190,32,0,0,1,688
831,2,1,191,5,1,1,1,671
832,2,1,192,10,0,0,1,640
833,2,1,193,32,1,1,1,657
834,2,1,194,10,0,0,1,493
835,2,1,195,10,1,1,1,923
836,2,1,196,32,1,1,1,624
837,2,1,197,32,1,1,1,758
838,2,1,198,20,1,1,1,761
839,2,1,199,1,0,0,1,536
840,2,1,200,20,0,0,1,671
841,2,1,201,5,0,0,1,958
842,2,1,202,10,0,0,1,1417
843,2,1,203,32,0,0,1,742
844,2,1,204,2,1,1,1,1040
845,2,1,205,20,1,1,1,729
846,2,1,206,20,0,0,1,1065
847,2,1,207,32,1,1,1,938
848,2,1,208,20,0,0,1,757
849,2,1,209,2,1,1,1,668
850,2,1,210,10,0,0,1,915
851,2,1,211,5,1,1,1,1626
852,2,1,212,5,0,0,1,683
853,2,1,213,20,0,0,1,924
854,2,1,214,1,1,1,1,869
855,2,1,215,32,1,1,1,764
856,2,1,216,2,1,1,1,914
857,2,1,217,5,0,0,1,597
858,2,1,218,2,0,0,1,572
859,2,1,219,20,1,1,1,793
860,2,1,220,20,1,1,1,509
861,2,1,221,2,0,0,1,666
862,2,1,222,5,0,0,1,456
863,2,1,223,5,1,1,1,472
864,2,1,224,20,1,1,1,1108
865,2,1,225,20,1,1,1,487
866,2,1,226,10,0,0,1,963
867,2,1,227,2,0,0,1,796
868,2,1,228,10,1,1,1,1206
869,2,1,229,5,1,1,1,760
870,2,1,230,2,0,0,1,768
871,2,1,231,32,1,1,1,901
872,2,1,232,2,0,0,1,1002
873,2,1,233,5,1,1,1,945
874,2,1,234,32,1,1,1,1046
875,2,1,235,32,0,0,1,882
876,2,1,236,32,0,0,1,941
877,2,1,237,2,1,1,1,933
878,2,1,238,10,0,0,1,1342
879,2,1,239,32,0,0,1,852
880,2,1,240,5,0,0,1,877
881,2,1,241,10,1,1,1,810
882,2,1,242,20,0,0,1,1388
883,2,1,243,5,0,0,1,859
884,2,1,244,10,1,1,1,1053
885,2,1,245,10,0,0,1,878
886,2,1,246,2,0,0,1,881
887,2,1,247,20,0,0,1,810
888,2,1,248,32,1,1,1,1051
889,2,1,249,5,0,0,1,762
890,2,1,250,5,0,0,1,707
891,2,1,251,5,1,1,1,902
892,2,1,252,10,1,1,1,1041
893,2,1,253,2,0,0,1,943
894,2,1,254,5,0,0,1,800
895,2,1,255,10,1,1,1,1259
896,2,1,256,2,1,1,1,832
897,2,1,257,20,1,1,1,1043
898,2,1,258,5,0,0,1,840
899,2,1,259,2,1,1,1,1096
900,2,1,260,32,0,0,1,1151
901,2,1,261,2,0,0,1,1385
902,2,1,262,20,0,0,1,870
903,2,1,263,20,1,1,1,822
904,2,1,264,10,1,1,1,1057
905,2,1,265,32,0,0,1,877
906,2,1,266,2,0,0,1,779
907,2,1,267,5,0,0,1,778
908,2,1,268,5,0,0,1,524
909,2,1,269,5,1,1,1,880
910,2,1,270,20,1,1,1,588
911,2,1,271,20,1,1,1,636
912,2,1,272,1,0,0,1,741
913,2,1,273,5,0,0,1,449
914,2,1,274,2,1,1,1,841
915,2,1,275,5,0,0,1,936
916,2,1,276,10,1,1,1,1066
917,2,1,277,32,0,0,1,925
918,2,1,278,32,1,1,1,896
919,2,1,279,1,0,0,1,809
920,2,1,280,2,0,0,1,444
921,2,1,281,2,1,1,1,538
922,2,1,282,2,1,1,1,1086
923,2,1,283,2,0,0,1,922
924,2,1,284,1,1,1,1,777
925,2,1,285,2,1,1,1,964
926,2,1,286,32,0,0,1,1412
927,2,1,287,32,0,0,1,1412
928,2,1,288,10,0,0,1,864
929,2,1,289,10,0,0,1,714
930,2,1,290,1,0,0,1,693
931,2,1,291,32,1,1,1,882
932,2,1,292,10,0,0,1,843
933,2,1,293,5,0,0,1,823
934,2,1,294,5,0,0,1,582
935,2,1,295,10,0,0,1,634
936,2,1,296,20,1,1,1,925
937,2,1,297,10,1,1,1,969
938,2,1,298,10,1,1,1,1179
939,2,1,299,10,1,1,1,824
940,2,1,300,2,0,0,1,745
941,2,1,301,5,1,1,1,875
942,2,1,302,5,1,1,1,920
943,2,1,303,32,0,0,1,811
944,2,1,304,20,1,1,1,849
945,2,1,305,2,0,0,1,775
946,2,1,306,5,0,0,1,783
947,2,1,307,1,0,0,1,1206
948,2,1,308,1,1,1,1,827
949,2,1,309,5,0,0,1,899
950,2,1,310,20,1,1,1,998
951,2,1,311,5,1,1,1,774
952,2,1,312,2,1,1,1,829
953,2,1,313,1,1,1,1,727
954,2,1,314,20,0,0,1,850
955,2,1,315,20,0,0,1,800
956,2,1,316,10,1,1,1,927
957,2,1,317,2,1,1,1,816
958,2,1,318,32,1,1,1,974
959,2,1,319,20,0,0,1,871
960,2,1,320,32,1,1,1,838
961,2,1,321,10,1,1,1,820
962,2,1,322,5,0,0,1,1302
963,2,1,323,32,1,1,1,857
964,2,1,324,2,1,1,1,1080
965,2,1,325,20,1,1,1,852
966,2,1,326,10,0,0,1,713
967,2,1,327,20,1,1,1,613
968,2,1,328,5,0,0,1,774
969,2,1,329,20,0,0,1,1292
970,2,1,330,20,0,0,1,773
971,2,1,331,32,1,1,1,826
972,2,1,332,5,1,1,1,866
973,2,1,333,20,1,1,1,881
974,2,1,334,5,1,1,1,925
975,2,1,335,2,0,0,1,883
976,2,1,336,5,1,1,1,1028
977,2,1,337,5,0,0,1,770
978,2,1,338,32,0,0,1,992
979,2,1,339,5,1,1,1,1095
980,2,1,340,32,1,1,1,817
981,2,1,341,10,1,1,1,544
982,2,1,342,5,0,0,1,767
983,2,1,343,32,1,1,1,957
984,2,1,344,10,1,1,1,775
985,2,1,345,2,0,0,1,1021
986,2,1,346,1,1,1,1,731
987,2,1,347,32,0,0,1,1182
988,2,1,348,32,1,1,1,1193
989,2,1,349,5,1,1,1,774
990,2,1,350,1,0,0,1,667
991,2,1,351,2,0,0,1,978
992,2,1,352,5,1,1,1,709
993,2,1,353,2,1,1,1,1134
994,2,1,354,2,1,1,1,733
995,2,1,355,5,0,0,1,762
996,2,1,356,1,0,0,1,669
997,2,1,357,2,0,0,1,707
998,2,1,358,2,1,1,1,826
999,2,1,359,2,0,0,1,608
1000,2,1,360,20,0,0,1,880
1001,2,1,361,10,0,0,1,611
1002,2,1,362,2,1,1,1,865
1003,2,1,363,20,1,1,1,1188
1004,2,1,364,5,0,0,1,895
1005,2,1,365,32,1,1,1,787
1006,2,1,366,32,0,0,1,760
1007,2,1,367,20,0,0,1,755
1008,2,1,368,10,0,0,1,637
1009,2,1,369,5,1,1,1,1007
1010,2,1,370,10,0,0,1,1052
1011,2,1,371,2,0,0,1,597
1012,2,1,372,10,0,0,1,534
1013,2,1,373,32,0,0,1,508
1014,2,1,374,10,0,0,1,812
1015,2,1,375,20,1,1,1,577
1016,2,1,376,5,0,0,1,814
1017,2,1,377,20,1,1,1,896
1018,2,1,378,1,1,1,1,687
1019,2,1,379,20,0,0,1,1257
1020,2,1,380,20,1,1,1,845
1021,2,1,381,5,0,0,1,546
1022,2,1,382,32,1,1,1,1959
1023,2,1,383,5,1,1,1,793
1024,2,1,384,5,1,1,0,559
1025,2,1,385,2,1,1,1,515
1026,2,1,386,1,1,1,1,525
1027,2,1,387,5,1,1,1,689
1028,2,1,388,10,1,1,1,547
1029,2,1,389,2,0,0,1,650
1030,2,1,390,10,0,0,1,640
1031,2,1,391,2,0,0,1,592
1032,2,1,392,20,1,1,1,609
1033,2,1,393,10,1,1,1,731
1034,2,1,394,10,1,1,1,763
1035,2,1,395,32,1,1,1,579
1036,2,1,396,2,0,0,1,556
1037,2,1,397,32,1,1,1,434
1038,2,1,398,20,0,0,1,656
1039,2,1,399,10,1,1,1,461
1040,2,1,400,32,0,0,1,811
1041,2,1,401,1,1,1,1,485
1042,2,1,402,32,1,1,1,762
1043,2,1,403,5,0,0,1,566
1044,2,1,404,20,1,1,1,513
1045,2,1,405,2,1,1,1,720
1046,2,1,406,10,0,0,1,887
1047,2,1,407,20,1,1,1,912
1048,2,1,408,32,0,0,1,536
1049,2,1,409,32,1,1,1,579
1050,2,1,410,20,1,1,1,585
1051,2,1,411,32,0,0,1,757
1052,2,1,412,2,1,1,1,639
1053,2,1,413,2,0,0,1,526
1054,2,1,414,20,0,0,1,628
1055,2,1,415,5,1,1,1,618
1056,2,1,416,5,0,0,1,485
1057,2,1,417,32,0,0,1,668
1058,2,1,418,2,0,0,1,600
1059,2,1,419,2,0,0,1,515
1060,2,1,420,5,1,1,1,502
1061,2,1,421,10,0,0,1,624
1062,2,1,422,10,1,1,1,598
1063,2,1,423,32,1,1,1,675
1064,2,1,424,2,1,1,1,575
1065,2,1,425,2,1,1,1,554
1066,2,1,426,2,1,1,1,582
1067,2,1,427,32,0,0,1,974
1068,2,1,428,10,1,1,1,497
1069,2,1,429,20,0,0,1,847
1070,2,1,430,20,1,1,1,553
1071,2,1,431,20,1,1,1,585
1072,2,1,432,10,1,1,1,638
1073,2,1,433,20,1,1,1,430
1074,2,1,434,32,1,1,1,715
1075,2,1,435,20,0,0,1,598
1076,2,1,436,20,1,1,1,801
1077,2,1,437,32,0,0,1,537
1078,2,1,438,32,0,0,1,553
1079,2,1,439,10,1,1,1,585
1080,2,1,440,20,1,1,1,714
1081,2,1,441,10,0,0,1,568
1082,2,1,442,32,0,0,1,457
1083,2,1,443,1,0,0,1,442
1084,2,1,444,10,0,0,1,641
1085,2,1,445,1,1,1,1,464
1086,2,1,446,5,0,0,1,657
1087,2,1,447,20,0,0,1,546
1088,2,1,448,32,1,1,1,549
1089,2,1,449,20,1,1,1,819
1090,2,1,450,1,0,0,1,597
1091,2,1,451,32,1,1,1,721
1092,2,1,452,2,1,1,1,640
1093,2,1,453,2,0,0,1,550
1094,2,1,454,10,1,1,1,576
1095,2,1,455,5,1,1,1,826
1096,2,1,456,20,1,1,1,1125
1097,2,1,457,20,0,0,1,837
1098,2,1,458,2,0,0,1,547
1099,2,1,459,1,0,0,1,554
1100,2,1,460,10,0,0,1,608
1101,2,1,461,5,0,0,1,1071
1102,2,1,462,10,0,0,1,577
1103,2,1,463,10,0,0,1,666
1104,2,1,464,2,1,1,1,491
1105,2,1,465,32,1,1,1,642
1106,2,1,466,5,0,0,1,540
1107,2,1,467,5,1,1,1,606
1108,2,1,468,32,1,1,1,655
1109,2,1,469,20,0,0,1,509
1110,2,1,470,20,1,1,1,654
1111,2,1,471,10,1,1,1,642
1112,2,1,472,20,0,0,1,568
1113,2,1,473,10,1,1,1,803
1114,2,1,474,5,1,1,1,637
1115,2,1,475,20,1,1,1,651
1116,2,1,476,20,1,1,1,656
1117,2,1,477,2,1,1,1,599
1118,2,1,478,20,0,0,1,559
1119,2,1,479,10,1,1,1,621
1120,2,1,480,5,0,0,1,557
1121,2,1,481,20,1,1,1,1039
1122,2,1,482,20,1,1,1,832
1123,2,1,483,20,0,0,1,415
1124,2,1,484,32,1,1,1,541
1125,2,1,485,5,0,0,1,625
1126,2,1,486,10,0,0,1,894
1127,2,1,487,32,1,1,1,682
1128,2,1,488,20,1,1,1,583
1129,2,1,489,10,1,1,1,610
1130,2,1,490,10,1,1,1,1053
1131,2,1,491,2,1,1,1,556
1132,2,1,492,2,0,0,1,517
1133,2,1,493,32,1,1,1,470
1134,2,1,494,20,0,0,1,508
1135,2,1,495,2,0,0,1,536
1136,2,1,496,1,0,0,1,505
1137,2,1,497,10,0,0,1,471
1138,2,1,498,32,0,0,1,713
1139,2,1,499,20,0,0,1,490
1140,2,1,500,2,1,1,1,414
1141,2,1,501,20,0,0,1,571
1142,2,1,502,10,1,1,1,550
1143,2,1,503,5,1,1,1,454
1144,2,1,504,10,0,0,1,535
1145,2,1,505,20,0,0,1,550
1146,2,1,506,20,0,0,1,741
1147,2,1,507,20,0,0,1,612
1148,2,1,508,5,0,0,1,654
1149,2,1,509,2,1,1,1,637
1150,2,1,510,20,1,1,1,758
1151,2,1,511,10,1,1,1,595
1152,2,1,512,32,1,1,1,692
1153,2,1,513,10,1,1,1,866
1154,2,1,514,2,0,0,1,596
1155,2,1,515,5,0,0,1,589
1156,2,1,516,32,0,0,1,498
1157,2,1,517,2,1,1,1,702
1158,2,1,518,20,0,0,1,522
1159,2,1,519,32,0,0,1,517
1160,2,1,520,20,0,0,1,611
1161,2,1,521,10,1,1,1,609
1162,2,1,522,2,1,1,1,597
1163,2,1,523,20,1,1,1,591
1164,2,1,524,10,1,1,1,562
1165,2,1,525,20,0,0,1,1030
1166,2,1,526,5,1,1,1,516
1167,2,1,527,1,0,0,1,347
1168,2,1,528,20,0,0,1,920
1169,2,1,529,1,1,1,1,518
1170,2,1,530,32,0,0,1,537
1171,2,1,531,5,1,1,1,603
1172,2,1,532,10,0,0,1,462
1173,2,1,533,32,1,1,1,566
1174,2,1,534,2,0,0,1,370
1175,2,1,535,32,0,0,1,605
1176,2,1,536,1,1,1,1,517
1177,2,1,537,20,1,1,1,680
1178,2,1,538,1,1,1,1,516
1179,2,1,539,10,1,1,1,563
1180,2,1,540,2,1,1,1,472
1181,2,1,541,2,0,0,1,445
1182,2,1,542,10,1,1,1,578
1183,2,1,543,1,1,1,1,524
1184,2,1,544,20,0,0,1,733
1185,2,1,545,10,0,0,1,528
1186,2,1,546,20,1,1,1,545
1187,2,1,547,2,0,0,1,519
1188,2,1,548,2,0,0,1,512
1189,2,1,549,5,1,1,1,534
1190,2,1,550,5,0,0,1,516
1191,2,1,551,32,0,0,1,522
1192,2,1,552,2,0,0,1,411
1193,2,1,553,32,0,0,1,599
1194,2,1,554,10,1,1,1,745
1195,2,1,555,32,1,1,1,697
1196,2,1,556,5,1,1,1,509
1197,2,1,557,32,0,0,1,569
1198,2,1,558,2,1,1,1,424
1199,2,1,559,5,1,1,1,612
1200,2,1,560,2,0,0,1,442
1201,2,1,561,5,0,0,0,459
1202,2,1,562,2,0,0,1,460
1203,2,1,563,20,1,1,1,513
1204,2,1,564,20,0,0,1,663
1205,2,1,565,32,1,1,1,795
1206,2,1,566,32,0,0,1,697
1207,2,1,567,5,0,0,1,613
1208,2,1,568,10,0,0,1,676
1209,2,1,569,20,0,0,1,518
1210,2,1,570,2,0,0,1,554
1211,2,1,571,32,0,0,1,614
1212,2,1,572,5,1,1,1,576
1213,2,1,573,1,1,1,1,540
1214,2,1,574,2,1,1,1,578
1215,2,1,575,10,0,0,1,437
1216,2,1,576,32,0,0,1,547
1217,2,1,577,2,0,0,1,480
1218,2,1,578,5,1,1,1,482
1219,2,1,579,2,1,1,1,452
1220,2,1,580,20,1,1,1,626
1221,2,1,581,32,1,1,1,757
1222,2,1,582,2,1,1,1,653
1223,2,1,583,5,0,0,1,485
1224,2,1,584,20,0,0,1,1080
1225,2,1,585,5,0,0,1,618
1226,2,1,586,5,0,0,1,626
1227,2,1,587,10,0,0,1,830
1228,2,1,588,2,0,0,1,551
1229,2,1,589,2,0,0,1,584
1230,2,1,590,32,1,1,1,1018
1231,2,1,591,2,1,1,1,722
1232,2,1,592,20,0,0,1,447
1233,2,1,593,10,1,1,1,662
1234,2,1,594,32,0,0,1,606
1235,2,1,595,5,0,0,1,453
1236,2,1,596,32,0,0,1,544
1237,2,1,597,2,0,0,1,471
1238,2,1,598,10,1,1,1,857
1239,2,1,599,10,1,1,1,761
1240,2,1,600,20,0,0,1,916
1241,2,1,601,32,1,1,1,580
1242,2,1,602,5,1,1,1,762
1243,2,1,603,5,1,1,1,670
1244,2,1,604,10,0,0,1,642
1245,2,1,605,20,0,0,1,514
1246,2,1,606,5,1,1,1,567
1247,2,1,607,2,0,0,1,517
1248,2,1,608,20,1,1,1,700
1249,2,1,609,32,0,0,1,960
1250,2,1,610,2,0,0,1,635
1251,2,1,611,10,0,0,1,580
1252,2,1,612,10,1,1,1,783
1253,2,1,613,20,1,1,1,827
1254,2,1,614,32,1,1,1,1264
1255,2,1,615,2,0,0,1,792
1256,2,1,616,10,0,0,1,553
1257,2,1,617,2,0,0,1,500
1258,2,1,618,32,1,1,1,1004
1259,2,1,619,10,0,0,1,735
1260,2,1,620,2,1,1,1,642
1261,2,1,621,10,0,0,1,580
1262,2,1,622,10,1,1,1,799
1263,2,1,623,10,0,0,1,438
1264,2,1,624,10,1,1,1,608
1265,2,1,625,20,0,0,1,900
1266,2,1,626,10,0,0,1,668
1267,2,1,627,1,1,1,1,461
1268,2,1,628,2,1,1,1,600
1269,2,1,629,5,1,1,1,858
1270,2,1,630,10,0,0,1,530
1271,2,1,631,10,0,0,1,826
1272,2,1,632,2,1,1,1,522
1273,2,1,633,1,1,1,1,515
1274,2,1,634,10,1,1,1,702
1275,2,1,635,5,1,1,1,598
1276,2,1,636,5,0,0,1,501
1277,2,1,637,5,1,1,1,657
1278,2,1,638,2,0,0,1,501
1279,2,1,639,10,1,1,1,601
1280,2,1,640,1,1,1,1,499
1281,3,1,1,2,1,1,1,505
1282,3,1,2,20,0,0,1,539
1283,3,1,3,20,1,1,1,949
1284,3,1,4,20,1,1,1,380
1285,3,1,5,32,1,1,1,501
1286,3,1,6,20,0,0,1,1915
1287,3,1,7,32,0,0,1,361
1288,3,1,8,1,0,0,1,370
1289,3,1,9,10,0,0,1,422
1290,3,1,10,5,1,1,0,426
1291,3,1,11,10,1,1,1,796
1292,3,1,12,20,0,0,1,552
1293,3,1,13,5,0,0,1,414
1294,3,1,14,32,0,0,1,494
1295,3,1,15,5,1,1,1,411
1296,3,1,16,5,1,1,1,393
1297,3,1,17,20,0,0,1,541
1298,3,1,18,5,0,0,1,409
1299,3,1,19,10,1,1,1,407
1300,3,1,20,20,0,0,1,581
1301,3,1,21,2,0,0,1,477
1302,3,1,22,5,0,0,1,375
1303,3,1,23,20,1,1,1,445
1304,3,1,24,5,1,1,1,634
1305,3,1,25,10,0,0,1,497
1306,3,1,26,5,1,1,1,648
1307,3,1,27,2,1,1,1,364
1308,3,1,28,10,0,0,1,328
1309,3,1,29,20,0,0,1,478
1310,3,1,30,2,0,0,1,398
1311,3,1,31,2,1,1,1,414
1312,3,1,32,20,0,0,1,384
1313,3,1,33,10,1,1,1,446
1314,3,1,34,20,1,1,1,501
1315,3,1,35,20,0,0,1,474
1316,3,1,36,2,1,1,1,524
1317,3,1,37,10,1,1,1,526
1318,3,1,38,2,0,0,1,444
1319,3,1,39,10,0,0,1,696
1320,3,1,40,2,1,1,1,472
1321,3,1,41,5,1,1,1,578
1322,3,1,42,20,0,0,1,401
1323,3,1,43,32,1,1,1,692
1324,3,1,44,1,0,0,1,369
1325,3,1,45,5,0,0,1,453
1326,3,1,46,5,0,0,1,419
1327,3,1,47,32,0,0,1,488
1328,3,1,48,10,0,0,0,369
1329,3,1,49,20,1,1,1,421
1330,3,1,50,2,1,1,1,530
1331,3,1,51,32,1,1,0,367
1332,3,1,52,10,1,1,1,551
1333,3,1,53,20,0,0,1,687
1334,3,1,54,2,0,0,1,490
1335,3,1,55,10,1,1,1,489
1336,3,1,56,10,1,1,1,488
1337,3,1,57,32,0,0,1,384
1338,3,1,58,10,0,0,1,560
1339,3,1,59,5,1,1,1,435
1340,3,1,60,32,1,1,0,357
1341,3,1,61,1,0,0,1,408
1342,3,1,62,10,1,1,1,570
1343,3,1,63,1,1,1,1,390
1344,3,1,64,20,1,1,1,464
1345,3,1,65,5,0,0,1,483
1346,3,1,66,32,0,0,1,522
1347,3,1,67,2,0,0,1,455
1348,3,1,68,5,0,0,1,396
1349,3,1,69,10,1,1,1,496
1350,3,1,70,20,1,1,1,629
1351,3,1,71,20,0,0,1,519
1352,3,1,72,2,1,1,1,387
1353,3,1,73,32,0,0,1,413
1354,3,1,74,20,0,0,1,516
1355,3,1,75,20,0,0,1,503
1356,3,1,76,10,1,1,1,495
1357,3,1,77,2,1,1,1,477
1358,3,1,78,32,1,1,1,571
1359,3,1,79,5,1,1,1,433
1360,3,1,80,20,1,1,1,564
1361,3,1,81,5,1,1,1,750
1362,3,1,82,5,0,0,1,406
1363,3,1,83,20,1,1,1,478
1364,3,1,84,1,1,1,1,459
1365,3,1,85,10,1,1,1,547
1366,3,1,86,5,0,0,1,493
1367,3,1,87,1,0,0,1,503
1368,3,1,88,20,1,1,1,414
1369,3,1,89,10,0,0,1,438
1370,3,1,90,32,0,0,1,1023
1371,3,1,91,2,1,1,1,484
1372,3,1,92,20,1,1,1,975
1373,3,1,93,10,1,1,1,505
1374,3,1,94,20,1,1,1,534
1375,3,1,95,10,1,1,1,419
1376,3,1,96,20,1,1,1,465
1377,3,1,97,20,0,0,1,438
1378,3,1,98,10,1,1,1,435
1379,3,1,99,5,1,1,1,349
1380,3,1,100,10,0,0,1,531
1381,3,1,101,5,1,1,1,482
1382,3,1,102,2,1,1,1,468
1383,3,1,103,2,1,1,1,501
1384,3,1,104,32,0,0,1,444
1385,3,1,105,32,1,1,1,545
1386,3,1,106,5,0,0,1,666
1387,3,1,107,32,0,0,1,1037
1388,3,1,108,2,1,1,1,458
1389,3,1,109,2,0,0,1,409
1390,3,1,110,10,1,1,1,372
1391,3,1,111,20,0,0,1,793
1392,3,1,112,20,0,0,1,485
1393,3,1,113,32,1,1,1,488
1394,3,1,114,32,1,1,1,837
1395,3,1,115,20,0,0,1,650
1396,3,1,116,10,1,1,1,372
1397,3,1,117,2,0,0,1,336
1398,3,1,118,1,1,1,1,436
1399,3,1,119,5,1,1,1,568
1400,3,1,120,5,1,1,1,873
1401,3,1,121,20,0,0,1,443
1402,3,1,122,1,1,1,1,424
1403,3,1,123,2,1,1,1,505
1404,3,1,124,20,0,0,1,384
1405,3,1,125,1,0,0,1,870
1406,3,1,126,20,1,1,1,554
1407,3,1,127,32,1,1,1,467
1408,3,1,128,10,0,0,1,350
1409,3,1,129,2,0,0,1,442
1410,3,1,130,10,0,0,1,819
1411,3,1,131,5,1,1,1,400
1412,3,1,132,2,1,1,1,810
1413,3,1,133,2,0,0,1,515
1414,3,1,134,20,1,1,1,790
1415,3,1,135,10,0,0,1,475
1416,3,1,136,5,1,1,1,719
1417,3,1,137,32,1,1,1,1030
1418,3,1,138,5,0,0,1,664
1419,3,1,139,32,1,1,1,475
1420,3,1,140,10,0,0,1,561
1421,3,1,141,10,0,0,1,481
1422,3,1,142,20,0,0,1,681
1423,3,1,143,2,1,1,0,554
1424,3,1,144,5,1,1,1,618
1425,3,1,145,32,1,1,1,500
1426,3,1,146,5,1,1,1,700
1427,3,1,147,5,0,0,1,340
1428,3,1,148,32,1,1,1,414
1429,3,1,149,2,0,0,1,827
1430,3,1,150,10,1,1,1,333
1431,3,1,151,20,0,0,1,341
1432,3,1,152,1,0,0,0,1032
1433,3,1,153,10,0,0,1,415
1434,3,1,154,20,1,1,1,556
1435,3,1,155,1,0,0,1,2224
1436,3,1,156,5,0,0,1,504
1437,3,1,157,5,1,1,1,577
1438,3,1,158,5,0,0,1,1202
1439,3,1,159,32,0,0,1,786
1440,3,1,160,2,1,1,1,887
1441,3,1,161,32,1,1,1,559
1442,3,1,162,32,1,1,1,688
1443,3,1,163,5,1,1,1,648
1444,3,1,164,20,1,1,1,404
1445,3,1,165,32,0,0,0,322
1446,3,1,166,32,1,1,1,524
1447,3,1,167,10,0,0,1,687
1448,3,1,168,10,1,1,1,657
1449,3,1,169,20,1,1,1,400
1450,3,1,170,1,1,1,0,357
1451,3,1,171,2,0,0,1,566
1452,3,1,172,5,0,0,1,615
1453,3,1,173,1,0,0,1,517
1454,3,1,174,2,0,0,1,546
1455,3,1,175,5,0,0,1,914
1456,3,1,176,32,0,0,1,587
1457,3,1,177,2,1,1,1,623
1458,3,1,178,32,1,1,1,506
1459,3,1,179,5,0,0,1,468
1460,3,1,180,5,1,1,1,373
1461,3,1,181,1,0,0,1,366
1462,3,1,182,10,1,1,1,553
1463,3,1,183,20,0,0,1,387
1464,3,1,184,10,1,1,1,498
1465,3,1,185,20,0,0,1,463
1466,3,1,186,1,1,1,1,498
1467,3,1,187,2,1,1,1,348
1468,3,1,188,20,1,1,1,479
1469,3,1,189,32,1,1,1,391
1470,3,1,190,32,1,1,1,902
1471,3,1,191,20,0,0,1,621
1472,3,1,192,20,1,1,1,503
1473,3,1,193,1,1,1,1,518
1474,3,1,194,5,1,1,1,525
1475,3,1,195,2,0,0,0,346
1476,3,1,196,20,1,1,1,566
1477,3,1,197,10,1,1,1,610
1478,3,1,198,2,0,0,1,415
1479,3,1,199,32,1,1,1,462
1480,3,1,200,10,1,1,1,812
1481,3,1,201,5,0,0,1,676
1482,3,1,202,20,0,0,1,502
1483,3,1,203,5,1,1,1,834
1484,3,1,204,5,0,0,1,509
1485,3,1,205,32,1,1,1,573
1486,3,1,206,20,1,1,1,957
1487,3,1,207,1,1,1,1,592
1488,3,1,208,20,0,0,0,345
1489,3,1,209,10,1,1,1,576
1490,3,1,210,5,1,1,1,490
1491,3,1,211,2,1,1,1,466
1492,3,1,212,2,1,1,1,465
1493,3,1,213,2,0,0,1,495
1494,3,1,214,2,1,1,1,393
1495,3,1,215,10,0,0,1,1042
1496,3,1,216,5,0,0,1,623
1497,3,1,217,5,1,1,1,513
1498,3,1,218,10,0,0,1,603
1499,3,1,219,5,1,1,1,392
1500,3,1,220,10,0,0,1,763
1501,3,1,221,20,0,0,1,693
1502,3,1,222,20,1,1,1,710
1503,3,1,223,10,1,1,1,380
1504,3,1,224,5,1,1,0,1087
1505,3,1,225,2,1,1,1,459
1506,3,1,226,32,0,0,1,833
1507,3,1,227,10,1,1,1,908
1508,3,1,228,5,0,0,0,396
1509,3,1,229,1,1,1,1,492
1510,3,1,230,10,0,0,0,634
1511,3,1,231,32,1,1,1,742
1512,3,1,232,20,0,0,1,758
1513,3,1,233,2,0,0,1,429
1514,3,1,234,10,1,1,1,682
1515,3,1,235,32,1,1,1,623
1516,3,1,236,5,1,1,1,553
1517,3,1,237,32,0,0,1,606
1518,3,1,238,20,0,0,0,716
1519,3,1,239,32,0,0,1,594
1520,3,1,240,5,0,0,1,623
1521,3,1,241,32,0,0,1,579
1522,3,1,242,20,0,0,1,508
1523,3,1,243,2,1,1,1,616
1524,3,1,244,20,1,1,1,538
1525,3,1,245,5,0,0,1,401
1526,3,1,246,2,1,1,1,377
1527,3,1,247,20,1,1,1,614
1528,3,1,248,2,0,0,1,504
1529,3,1,249,20,1,1,1,518
1530,3,1,250,2,0,0,1,613
1531,3,1,251,10,1,1,1,555
1532,3,1,252,5,1,1,1,517
1533,3,1,253,20,1,1,1,577
1534,3,1,254,10,0,0,1,424
1535,3,1,255,32,1,1,1,650
1536,3,1,256,10,1,1,1,568
1537,3,1,257,20,1,1,1,441
1538,3,1,258,5,1,1,1,634
1539,3,1,259,32,1,1,1,692
1540,3,1,260,32,0,0,1,580
1541,3,1,261,32,1,1,1,989
1542,3,1,262,10,0,0,1,632
1543,3,1,263,2,0,0,1,438
1544,3,1,264,5,0,0,1,626
1545,3,1,265,2,0,0,1,534
1546,3,1,266,2,0,0,1,498
1547,3,1,267,5,1,1,1,730
1548,3,1,268,20,0,0,1,499
1549,3,1,269,20,1,1,1,448
1550,3,1,270,20,1,1,1,458
1551,3,1,271,10,0,0,1,531
1552,3,1,272,32,1,1,1,517
1553,3,1,273,2,1,1,1,412
1554,3,1,274,1,1,1,1,486
1555,3,1,275,2,0,0,1,452
1556,3,1,276,5,1,1,1,508
1557,3,1,277,10,0,0,1,1356
1558,3,1,278,10,0,0,1,718
1559,3,1,279,32,1,1,1,401
1560,3,1,280,5,1,1,1,500
1561,3,1,281,10,0,0,1,1045
1562,3,1,282,5,0,0,1,436
1563,3,1,283,5,0,0,1,454
1564,3,1,284,10,1,1,1,536
1565,3,1,285,10,0,0,1,583
1566,3,1,286,5,0,0,1,461
1567,3,1,287,2,0,0,1,464
1568,3,1,288,1,1,1,1,521
1569,3,1,289,20,0,0,1,381
1570,3,1,290,32,0,0,1,547
1571,3,1,291,5,0,0,1,557
1572,3,1,292,32,0,0,1,582
1573,3,1,293,20,0,0,1,524
1574,3,1,294,5,0,0,1,809
1575,3,1,295,32,1,1,1,747
1576,3,1,296,10,1,1,1,658
1577,3,1,297,32,0,0,1,711
1578,3,1,298,5,0,0,1,521
1579,3,1,299,20,0,0,1,1019
1580,3,1,300,2,0,0,1,742
1581,3,1,301,32,1,1,1,858
1582,3,1,302,32,0,0,1,999
1583,3,1,303,10,0,0,1,698
1584,3,1,304,10,0,0,1,460
1585,3,1,305,5,1,1,1,476
1586,3,1,306,20,0,0,1,494
1587,3,1,307,20,1,1,1,496
1588,3,1,308,10,1,1,1,778
1589,3,1,309,10,0,0,1,665
1590,3,1,310,20,0,0,1,559
1591,3,1,311,5,0,0,1,367
1592,3,1,312,32,1,1,1,601
1593,3,1,313,10,1,1,1,530
1594,3,1,314,32,1,1,1,828
1595,3,1,315,2,1,1,1,464
1596,3,1,316,10,1,1,1,493
1597,3,1,317,5,1,1,1,1027
1598,3,1,318,2,0,0,1,554
1599,3,1,319,20,0,0,1,592
1600,3,1,320,2,1,1,1,489
1601,3,1,321,32,1,1,0,487
1602,3,1,322,2,1,1,1,504
1603,3,1,323,2,0,0,1,625
1604,3,1,324,20,1,1,1,679
1605,3,1,325,32,0,0,1,645
1606,3,1,326,5,0,0,1,692
1607,3,1,327,20,1,1,1,4034
1608,3,1,328,2,0,0,1,533
1609,3,1,329,2,0,0,1,377
1610,3,1,330,5,1,1,1,334
1611,3,1,331,2,1,1,0,726
1612,3,1,332,10,0,0,1,672
1613,3,1,333,2,1,1,1,423
1614,3,1,334,2,0,0,1,498
1615,3,1,335,10,1,1,1,3454
1616,3,1,336,32,0,0,1,569
1617,3,1,337,5,0,0,1,681
1618,3,1,338,10,0,0,1,1248
1619,3,1,339,1,0,0,1,1591
1620,3,1,340,20,1,1,1,4918
1621,3,1,341,10,0,0,1,3766
1622,3,1,342,2,1,1,1,647
1623,3,1,343,5,0,0,1,3679
1624,3,1,344,10,0,0,1,509
1625,3,1,345,10,1,1,1,555
1626,3,1,346,10,0,0,1,454
1627,3,1,347,32,1,1,1,498
1628,3,1,348,5,0,0,1,449
1629,3,1,349,10,0,3,0,4992
1630,3,1,350,32,1,1,1,452
1631,3,1,351,5,1,1,1,875
1632,3,1,352,20,0,0,1,533
1633,3,1,353,32,0,0,1,703
1634,3,1,354,20,1,1,1,3362
1635,3,1,355,2,0,0,1,583
1636,3,1,356,32,0,0,1,837
1637,3,1,357,2,0,0,1,1267
1638,3,1,358,5,1,1,1,2146
1639,3,1,359,32,0,0,1,3394
1640,3,1,360,10,0,0,1,3804
1641,3,1,361,32,1,1,1,1461
1642,3,1,362,10,0,0,1,426
1643,3,1,363,2,1,1,0,304
1644,3,1,364,20,1,1,1,557
1645,3,1,365,5,0,0,1,398
1646,3,1,366,32,0,0,1,529
1647,3,1,367,20,0,0,1,445
1648,3,1,368,10,0,0,0,732
1649,3,1,369,20,1,1,1,1247
1650,3,1,370,2,1,1,0,409
1651,3,1,371,20,0,0,1,718
1652,3,1,372,2,0,0,1,533
1653,3,1,373,20,0,0,1,655
1654,3,1,374,20,1,1,1,1050
1655,3,1,375,1,0,0,1,404
1656,3,1,376,20,0,0,1,447
1657,3,1,377,1,1,1,1,589
1658,3,1,378,5,0,0,1,362
1659,3,1,379,1,0,0,1,3037
1660,3,1,380,32,0,0,1,527
1661,3,1,381,2,0,0,1,1342
1662,3,1,382,10,1,1,1,594
1663,3,1,383,20,1,1,1,637
1664,3,1,384,2,1,1,1,599
1665,3,1,385,5,0,0,1,1539
1666,3,1,386,20,1,1,1,646
1667,3,1,387,1,0,0,1,463
1668,3,1,388,10,0,0,1,696
1669,3,1,389,20,0,0,1,607
1670,3,1,390,32,0,0,1,563
1671,3,1,391,5,1,1,1,1722
1672,3,1,392,2,0,0,1,1036
1673,3,1,393,32,1,1,1,1017
1674,3,1,394,2,0,0,1,1210
1675,3,1,395,2,0,0,1,407
1676,3,1,396,10,1,1,1,1074
1677,3,1,397,2,1,1,1,1590
1678,3,1,398,32,1,1,1,2881
1679,3,1,399,32,1,1,0,887
1680,3,1,400,5,1,1,1,744
1681,3,1,401,32,0,0,1,2167
1682,3,1,402,32,0,0,1,1204
1683,3,1,403,20,0,0,1,748
1684,3,1,404,20,0,0,1,1761
1685,3,1,405,2,1,1,1,945
1686,3,1,406,20,1,1,0,357
1687,3,1,407,5,0,0,1,811
1688,3,1,408,10,1,1,1,1038
1689,3,1,409,5,1,1,1,1036
1690,3,1,410,1,0,0,1,1702
1691,3,1,411,32,1,1,1,3139
1692,3,1,412,10,0,0,0,426
1693,3,1,413,32,1,1,1,2030
1694,3,1,414,2,1,1,1,1909
1695,3,1,415,2,0,0,1,633
1696,3,1,416,1,1,1,1,1986
1697,3,1,417,5,0,0,1,2016
1698,3,1,418,32,0,0,1,1522
1699,3,1,419,32,0,0,1,1095
1700,3,1,420,32,0,0,0,381
1701,3,1,421,2,0,0,1,429
1702,3,1,422,5,1,1,1,1380
1703,3,1,423,20,0,0,1,853
1704,3,1,424,2,0,0,1,456
1705,3,1,425,2,1,1,1,839
1706,3,1,426,32,1,1,1,686
1707,3,1,427,32,0,0,1,469
1708,3,1,428,32,0,0,1,468
1709,3,1,429,2,1,1,1,1034
1710,3,1,430,32,0,0,1,511
1711,3,1,431,1,1,1,1,499
1712,3,1,432,20,1,1,1,466
1713,3,1,433,5,1,1,1,689
1714,3,1,434,20,0,0,1,701
1715,3,1,435,20,0,0,1,510
1716,3,1,436,32,0,0,1,1504
1717,3,1,437,2,0,0,1,542
1718,3,1,438,20,0,0,1,1049
1719,3,1,439,32,0,0,1,1925
1720,3,1,440,2,1,1,0,2595
1721,3,1,441,32,1,1,1,2459
1722,3,1,442,32,0,0,1,740
1723,3,1,443,10,0,0,1,594
1724,3,1,444,20,1,1,1,418
1725,3,1,445,2,0,0,1,432
1726,3,1,446,2,0,0,1,493
1727,3,1,447,10,0,0,1,719
1728,3,1,448,32,1,1,1,954
1729,3,1,449,2,1,1,1,638
1730,3,1,450,20,0,0,1,1230
1731,3,1,451,10,0,0,1,537
1732,3,1,452,20,0,0,1,494
1733,3,1,453,32,0,0,1,1046
1734,3,1,454,5,1,1,1,837
1735,3,1,455,5,0,0,1,502
1736,3,1,456,10,1,1,1,467
1737,3,1,457,10,0,0,1,439
1738,3,1,458,5,1,1,1,464
1739,3,1,459,1,1,1,1,732
1740,3,1,460,1,0,0,1,618
1741,3,1,461,32,0,0,1,529
1742,3,1,462,5,1,1,1,707
1743,3,1,463,32,0,0,1,586
1744,3,1,464,20,1,3,0,4993
1745,3,1,465,10,0,0,1,2917
1746,3,1,466,32,0,0,1,469
1747,3,1,467,32,0,0,1,752
1748,3,1,468,32,1,1,1,3612
1749,3,1,469,2,0,0,1,348
1750,3,1,470,2,1,1,1,453
1751,3,1,471,5,0,0,1,556
1752,3,1,472,5,0,0,1,460
1753,3,1,473,32,0,0,1,467
1754,3,1,474,2,1,1,1,960
1755,3,1,475,2,1,1,1,601
1756,3,1,476,10,0,0,1,749
1757,3,1,477,2,0,0,1,590
1758,3,1,478,20,0,0,1,1217
1759,3,1,479,20,1,1,1,814
1760,3,1,480,2,1,1,1,510
1761,3,1,481,5,0,0,1,2009
1762,3,1,482,10,1,1,1,458
1763,3,1,483,5,0,0,1,1209
1764,3,1,484,2,0,0,1,834
1765,3,1,485,5,0,0,1,1240
1766,3,1,486,5,0,0,1,3144
1767,3,1,487,1,1,1,1,1154
1768,3,1,488,5,1,1,1,1562
1769,3,1,489,32,1,1,1,4404
1770,3,1,490,20,0,0,1,533
1771,3,1,491,10,1,1,1,475
1772,3,1,492,2,1,1,1,389
1773,3,1,493,10,1,1,1,1295
1774,3,1,494,2,1,1,1,555
1775,3,1,495,10,0,0,1,430
1776,3,1,496,32,0,0,1,568
1777,3,1,497,10,1,1,1,1134
1778,3,1,498,2,0,0,1,737
1779,3,1,499,20,1,1,1,3421
1780,3,1,500,32,1,1,1,3188
1781,3,1,501,10,1,1,1,620
1782,3,1,502,32,0,0,1,895
1783,3,1,503,5,1,1,1,762
1784,3,1,504,10,1,1,1,1951
1785,3,1,505,32,0,0,1,922
1786,3,1,506,10,0,0,1,2743
1787,3,1,507,20,1,1,1,736
1788,3,1,508,20,1,1,1,529
1789,3,1,509,32,0,0,1,473
1790,3,1,510,2,0,0,1,712
1791,3,1,511,20,1,1,1,672
1792,3,1,512,10,0,0,1,562
1793,3,1,513,2,1,1,1,507
1794,3,1,514,10,0,0,1,487
1795,3,1,515,1,0,0,1,440
1796,3,1,516,10,1,1,1,393
1797,3,1,517,2,0,0,1,544
1798,3,1,518,32,0,0,1,791
1799,3,1,519,2,0,0,1,2236
1800,3,1,520,20,0,0,1,382
1801,3,1,521,2,0,0,1,2675
1802,3,1,522,2,0,0,1,2363
1803,3,1,523,5,0,0,1,417
1804,3,1,524,10,0,0,1,2622
1805,3,1,525,5,1,1,1,519
1806,3,1,526,32,0,0,1,1688
1807,3,1,527,10,1,1,1,705
1808,3,1,528,5,1,1,1,1481
1809,3,1,529,10,0,0,1,1062
1810,3,1,530,32,1,1,1,726
1811,3,1,531,5,1,1,1,3037
1812,3,1,532,32,1,1,1,535
1813,3,1,533,2,0,0,1,2276
1814,3,1,534,2,0,0,1,3631
1815,3,1,535,5,1,1,1,610
1816,3,1,536,10,1,1,1,1629
1817,3,1,537,5,1,1,1,1764
1818,3,1,538,10,1,1,1,3975
1819,3,1,539,2,0,0,1,2299
1820,3,1,540,10,1,1,1,2419
1821,3,1,541,32,0,0,1,3409
1822,3,1,542,20,0,0,1,581
1823,3,1,543,5,0,0,1,442
1824,3,1,544,32,0,0,1,1900
1825,3,1,545,10,1,1,1,772
1826,3,1,546,20,1,1,1,859
1827,3,1,547,32,1,1,1,1525
1828,3,1,548,5,1,1,1,533
1829,3,1,549,32,1,1,1,742
1830,3,1,550,2,1,1,1,872
1831,3,1,551,1,0,0,1,2066
1832,3,1,552,32,1,1,1,530
1833,3,1,553,10,0,0,1,1921
1834,3,1,554,10,1,1,1,440
1835,3,1,555,5,0,0,1,600
1836,3,1,556,32,0,0,1,2414
1837,3,1,557,20,1,1,1,620
1838,3,1,558,32,0,0,1,431
1839,3,1,559,1,0,0,1,483
1840,3,1,560,20,0,0,1,1724
1841,3,1,561,1,1,3,0,4990
1842,3,1,562,32,0,0,1,787
1843,3,1,563,2,0,0,1,1180
1844,3,1,564,1,0,0,1,564
1845,3,1,565,2,1,1,1,434
1846,3,1,566,5,0,0,1,439
1847,3,1,567,10,1,1,1,429
1848,3,1,568,32,1,1,1,451
1849,3,1,569,2,1,1,1,364
1850,3,1,570,10,0,0,1,600
1851,3,1,571,32,1,1,1,508
1852,3,1,572,5,0,0,1,554
1853,3,1,573,20,1,1,1,2476
1854,3,1,574,20,0,0,1,559
1855,3,1,575,2,1,1,1,1823
1856,3,1,576,10,0,0,1,1655
1857,3,1,577,5,0,0,1,1372
1858,3,1,578,2,0,0,1,478
1859,3,1,579,32,1,1,0,2756
1860,3,1,580,20,1,1,1,452
1861,3,1,581,32,1,1,1,522
1862,3,1,582,2,1,1,1,513
1863,3,1,583,5,0,0,1,466
1864,3,1,584,5,0,0,1,816
1865,3,1,585,1,1,1,1,459
1866,3,1,586,10,0,0,1,770
1867,3,1,587,10,0,0,1,478
1868,3,1,588,5,1,1,1,1145
1869,3,1,589,5,0,0,1,1965
1870,3,1,590,20,1,1,1,3111
1871,3,1,591,1,1,1,1,524
1872,3,1,592,2,1,1,1,569
1873,3,1,593,5,0,0,1,729
1874,3,1,594,5,1,1,1,643
1875,3,1,595,32,1,1,1,2072
1876,3,1,596,20,1,1,1,1095
1877,3,1,597,2,1,1,1,2575
1878,3,1,598,20,1,1,1,1009
1879,3,1,599,2,1,1,1,389
1880,3,1,600,20,0,0,1,1299
1881,3,1,601,32,1,1,1,2254
1882,3,1,602,5,1,1,1,1990
1883,3,1,603,32,0,0,1,589
1884,3,1,604,10,1,1,1,608
1885,3,1,605,20,0,0,1,471
1886,3,1,606,2,1,1,1,1564
1887,3,1,607,10,0,0,1,1191
1888,3,1,608,2,1,1,1,1793
1889,3,1,609,1,1,1,1,2060
1890,3,1,610,10,0,0,1,647
1891,3,1,611,5,1,1,1,1001
1892,3,1,612,20,0,0,1,574
1893,3,1,613,10,1,1,1,810
1894,3,1,614,10,1,1,1,2640
1895,3,1,615,5,0,0,1,630
1896,3,1,616,32,0,0,1,532
1897,3,1,617,32,0,0,1,742
1898,3,1,618,20,1,1,1,749
1899,3,1,619,10,1,1,1,425
1900,3,1,620,5,0,0,1,648
1901,3,1,621,10,0,0,1,461
1902,3,1,622,10,1,1,1,515
1903,3,1,623,2,0,0,1,637
1904,3,1,624,5,1,1,1,1025
1905,3,1,625,2,1,1,1,485
1906,3,1,626,20,1,1,1,1745
1907,3,1,627,20,1,1,1,869
1908,3,1,628,2,0,0,1,816
1909,3,1,629,2,0,0,1,407
1910,3,1,630,5,0,0,1,409
1911,3,1,631,10,1,1,1,1265
1912,3,1,632,2,0,0,1,574
1913,3,1,633,20,1,1,1,476
1914,3,1,634,10,1,1,1,579
1915,3,1,635,32,1,1,1,2195
1916,3,1,636,5,1,1,1,1837
1917,3,1,637,5,1,1,1,1411
1918,3,1,638,1,0,0,1,736
1919,3,1,639,32,1,1,1,484
1920,3,1,640,2,1,1,1,2186
1921,4,1,1,32,0,0,1,1074
1922,4,1,2,2,1,1,1,649
1923,4,1,3,10,1,1,1,675
1924,4,1,4,20,0,0,1,570
1925,4,1,5,2,0,0,1,524
1926,4,1,6,32,0,0,1,532
1927,4,1,7,1,0,0,1,434
1928,4,1,8,5,1,1,1,709
1929,4,1,9,10,1,1,1,847
1930,4,1,10,10,0,0,1,505
1931,4,1,11,32,0,0,1,498
1932,4,1,12,10,0,0,1,569
1933,4,1,13,20,0,0,1,453
1934,4,1,14,1,0,0,1,581
1935,4,1,15,10,1,1,1,1038
1936,4,1,16,32,0,0,1,651
1937,4,1,17,20,1,1,1,598
1938,4,1,18,32,0,0,1,667
1939,4,1,19,2,0,0,1,538
1940,4,1,20,5,0,0,1,686
1941,4,1,21,10,1,1,1,897
1942,4,1,22,5,1,1,1,572
1943,4,1,23,5,0,0,1,697
1944,4,1,24,32,1,1,1,652
1945,4,1,25,20,0,0,1,445
1946,4,1,26,1,1,1,1,567
1947,4,1,27,10,0,0,1,600
1948,4,1,28,10,1,1,1,552
1949,4,1,29,5,0,0,1,629
1950,4,1,30,20,0,0,1,522
1951,4,1,31,10,1,1,1,605
1952,4,1,32,1,0,0,1,422
1953,4,1,33,10,0,0,1,939
1954,4,1,34,2,0,0,1,640
1955,4,1,35,20,1,1,1,742
1956,4,1,36,20,1,1,1,681
1957,4,1,37,10,1,1,1,698
1958,4,1,38,10,0,0,1,588
1959,4,1,39,2,1,1,1,781
1960,4,1,40,20,1,1,1,696
1961,4,1,41,5,1,1,1,958
1962,4,1,42,5,0,0,1,527
1963,4,1,43,5,0,0,1,658
1964,4,1,44,10,0,0,1,816
1965,4,1,45,5,1,1,1,602
1966,4,1,46,5,1,1,1,464
1967,4,1,47,20,1,1,1,636
1968,4,1,48,32,0,0,1,668
1969,4,1,49,32,0,0,1,624
1970,4,1,50,1,0,0,1,585
1971,4,1,51,10,1,1,1,552
1972,4,1,52,2,1,1,1,593
1973,4,1,53,5,1,1,1,607
1974,4,1,54,20,0,0,1,485
1975,4,1,55,2,0,0,1,613
1976,4,1,56,2,0,0,1,494
1977,4,1,57,10,1,1,1,489
1978,4,1,58,1,1,1,1,502
1979,4,1,59,2,1,1,1,605
1980,4,1,60,5,0,0,1,588
1981,4,1,61,2,1,1,1,512
1982,4,1,62,10,1,1,1,749
1983,4,1,63,2,1,1,1,581
1984,4,1,64,20,0,0,1,868
1985,4,1,65,32,1,1,1,577
1986,4,1,66,5,0,0,1,488
1987,4,1,67,5,1,1,1,518
1988,4,1,68,10,0,0,1,571
1989,4,1,69,20,0,0,1,522
1990,4,1,70,2,0,0,1,448
1991,4,1,71,32,1,1,1,683
1992,4,1,72,10,0,0,1,542
1993,4,1,73,2,1,1,1,550
1994,4,1,74,20,1,1,1,570
1995,4,1,75,2,0,0,1,700
1996,4,1,76,5,1,1,1,600
1997,4,1,77,20,1,1,1,686
1998,4,1,78,10,0,0,1,631
1999,4,1,79,2,0,0,1,530
2000,4,1,80,2,1,1,1,576
2001,4,1,81,2,0,0,1,687
2002,4,1,82,32,1,1,1,578
2003,4,1,83,5,1,1,1,609
2004,4,1,84,2,0,0,1,514
2005,4,1,85,32,0,0,1,563
2006,4,1,86,1,1,1,1,397
2007,4,1,87,32,1,1,1,621
2008,4,1,88,10,0,0,1,860
2009,4,1,89,5,0,0,1,494
2010,4,1,90,10,0,0,1,463
2011,4,1,91,1,0,0,1,461
2012,4,1,92,32,0,0,1,742
2013,4,1,93,32,1,1,1,564
2014,4,1,94,20,1,1,1,504
2015,4,1,95,5,1,1,1,599
2016,4,1,96,10,0,0,1,615
2017,4,1,97,10,0,0,1,613
2018,4,1,98,10,1,1,1,552
2019,4,1,99,32,0,0,1,990
2020,4,1,100,5,1,1,1,483
2021,4,1,101,32,1,1,1,583
2022,4,1,102,5,0,0,1,1071
2023,4,1,103,32,1,1,1,765
2024,4,1,104,1,1,1,1,609
2025,4,1,105,2,1,1,1,727
2026,4,1,106,32,0,0,1,1156
2027,4,1,107,2,1,1,1,924
2028,4,1,108,5,0,0,1,865
2029,4,1,109,5,1,1,1,543
2030,4,1,110,1,1,1,1,475
2031,4,1,111,5,1,1,1,664
2032,4,1,112,10,1,1,1,610
2033,4,1,113,1,0,0,1,602
2034,4,1,114,2,1,1,1,757
2035,4,1,115,20,0,0,1,1087
2036,4,1,116,2,1,1,1,505
2037,4,1,117,2,1,1,1,637
2038,4,1,118,2,1,1,1,481
2039,4,1,119,2,0,0,1,575
2040,4,1,120,2,1,1,1,592
2041,4,1,121,20,1,1,1,605
2042,4,1,122,32,0,0,1,572
2043,4,1,123,20,1,1,1,634
2044,4,1,124,2,1,1,1,656
2045,4,1,125,5,1,1,1,957
2046,4,1,126,2,1,1,1,685
2047,4,1,127,1,1,1,1,507
2048,4,1,128,5,0,0,1,609
2049,4,1,129,2,0,0,1,477
2050,4,1,130,2,0,0,1,631
2051,4,1,131,10,1,1,1,689
2052,4,1,132,1,0,0,1,549
2053,4,1,133,5,1,1,1,1086
2054,4,1,134,5,1,1,1,565
2055,4,1,135,5,0,0,1,405
2056,4,1,136,20,1,1,1,667
2057,4,1,137,20,0,0,1,697
2058,4,1,138,32,0,0,1,584
2059,4,1,139,32,1,1,1,1054
2060,4,1,140,20,0,0,1,526
2061,4,1,141,10,1,1,1,754
2062,4,1,142,10,0,0,1,728
2063,4,1,143,5,0,0,1,600
2064,4,1,144,5,0,0,1,582
2065,4,1,145,10,1,1,1,512
2066,4,1,146,32,1,1,1,827
2067,4,1,147,20,0,0,1,656
2068,4,1,148,10,1,1,1,625
2069,4,1,149,10,1,1,1,600
2070,4,1,150,1,1,1,1,733
2071,4,1,151,5,1,1,1,807
2072,4,1,152,5,0,0,1,512
2073,4,1,153,5,1,1,1,659
2074,4,1,154,10,1,1,1,627
2075,4,1,155,2,0,0,1,448
2076,4,1,156,20,1,1,1,466
2077,4,1,157,10,0,0,1,658
2078,4,1,158,32,1,1,1,525
2079,4,1,159,10,0,0,1,721
2080,4,1,160,20,1,1,1,650
2081,4,1,161,32,1,1,1,905
2082,4,1,162,2,0,0,1,429
2083,4,1,163,20,1,1,1,620
2084,4,1,164,20,1,1,1,643
2085,4,1,165,10,1,1,1,591
2086,4,1,166,20,1,1,1,503
2087,4,1,167,32,0,0,1,465
2088,4,1,168,5,0,0,1,439
2089,4,1,169,32,0,0,1,909
2090,4,1,170,10,0,0,1,476
2091,4,1,171,20,1,1,1,597
2092,4,1,172,2,0,0,1,543
2093,4,1,173,20,0,0,1,522
2094,4,1,174,2,1,1,1,641
2095,4,1,175,5,1,1,1,493
2096,4,1,176,32,1,1,1,501
2097,4,1,177,2,1,1,1,739
2098,4,1,178,1,0,0,1,480
2099,4,1,179,2,0,0,1,467
2100,4,1,180,2,0,0,1,481
2101,4,1,181,32,0,0,1,741
2102,4,1,182,10,0,0,1,662
2103,4,1,183,10,1,1,1,612
2104,4,1,184,10,1,1,1,450
2105,4,1,185,32,0,0,1,617
2106,4,1,186,32,0,0,1,458
2107,4,1,187,32,1,1,1,592
2108,4,1,188,2,0,0,1,517
2109,4,1,189,32,0,0,1,571
2110,4,1,190,20,1,1,1,644
2111,4,1,191,10,1,1,1,835
2112,4,1,192,20,1,1,1,535
2113,4,1,193,10,1,1,1,580
2114,4,1,194,32,0,0,1,697
2115,4,1,195,2,1,1,1,1106
2116,4,1,196,5,0,0,1,598
2117,4,1,197,2,1,1,1,940
2118,4,1,198,20,0,0,1,792
2119,4,1,199,2,1,1,1,695
2120,4,1,200,32,0,0,1,577
2121,4,1,201,2,0,0,1,569
2122,4,1,202,10,0,0,1,422
2123,4,1,203,20,0,0,1,504
2124,4,1,204,1,1,1,1,461
2125,4,1,205,2,0,0,1,536
2126,4,1,206,32,0,0,1,645
2127,4,1,207,5,0,0,1,419
2128,4,1,208,5,1,1,1,468
2129,4,1,209,10,0,0,1,449
2130,4,1,210,32,1,1,1,565
2131,4,1,211,10,0,0,1,738
2132,4,1,212,1,1,1,1,407
2133,4,1,213,10,1,1,1,628
2134,4,1,214,1,1,1,1,539
2135,4,1,215,2,1,1,1,696
2136,4,1,216,5,1,1,1,530
2137,4,1,217,20,1,1,1,741
2138,4,1,218,32,1,1,1,642
2139,4,1,219,2,0,0,1,459
2140,4,1,220,2,1,1,1,678
2141,4,1,221,20,1,1,1,1530
2142,4,1,222,10,1,1,1,527
2143,4,1,223,2,0,0,1,675
2144,4,1,224,2,0,0,1,544
2145,4,1,225,10,0,0,1,1057
2146,4,1,226,2,1,1,1,631
2147,4,1,227,2,1,1,1,640
2148,4,1,228,10,1,1,1,835
2149,4,1,229,20,1,1,1,551
2150,4,1,230,32,1,1,1,565
2151,4,1,231,32,0,0,1,673
2152,4,1,232,10,0,0,1,747
2153,4,1,233,20,0,0,1,567
2154,4,1,234,2,1,1,1,760
2155,4,1,235,1,1,1,1,417
2156,4,1,236,32,1,1,1,588
2157,4,1,237,5,0,0,1,572
2158,4,1,238,32,0,0,1,585
2159,4,1,239,32,0,0,1,525
2160,4,1,240,20,0,0,1,491
2161,4,1,241,20,0,0,1,718
2162,4,1,242,32,0,0,1,475
2163,4,1,243,5,0,0,1,398
2164,4,1,244,20,0,0,1,610
2165,4,1,245,1,0,0,1,410
2166,4,1,246,20,0,0,1,487
2167,4,1,247,5,1,1,1,708
2168,4,1,248,2,1,1,1,610
2169,4,1,249,20,0,0,1,555
2170,4,1,250,10,1,1,1,446
2171,4,1,251,5,1,1,1,430
2172,4,1,252,20,1,1,1,766
2173,4,1,253,10,0,0,1,596
2174,4,1,254,10,0,0,1,585
2175,4,1,255,32,0,0,1,477
2176,4,1,256,10,0,0,1,595
2177,4,1,257,2,1,1,0,373
2178,4,1,258,1,1,1,1,650
2179,4,1,259,20,0,0,1,555
2180,4,1,260,10,0,0,1,572
2181,4,1,261,5,0,0,1,1095
2182,4,1,262,32,0,0,1,565
2183,4,1,263,20,0,0,1,620
2184,4,1,264,32,0,0,1,681
2185,4,1,265,2,1,1,1,537
2186,4,1,266,2,1,1,1,516
2187,4,1,267,20,1,1,1,825
2188,4,1,268,5,1,1,1,660
2189,4,1,269,32,1,1,1,506
2190,4,1,270,5,0,0,1,543
2191,4,1,271,5,0,0,1,493
2192,4,1,272,2,1,1,1,553
2193,4,1,273,10,0,0,1,737
2194,4,1,274,2,0,0,1,553
2195,4,1,275,1,1,1,1,484
2196,4,1,276,20,1,1,1,603
2197,4,1,277,10,0,0,1,499
2198,4,1,278,5,0,0,1,755
2199,4,1,279,5,0,0,1,574
2200,4,1,280,1,1,1,1,518
2201,4,1,281,10,1,1,1,751
2202,4,1,282,10,0,0,1,445
2203,4,1,283,32,1,1,1,470
2204,4,1,284,32,0,0,1,490
2205,4,1,285,32,0,0,1,579
2206,4,1,286,2,0,0,1,399
2207,4,1,287,2,1,1,1,504
2208,4,1,288,1,0,0,1,461
2209,4,1,289,5,1,1,1,734
2210,4,1,290,20,0,0,1,771
2211,4,1,291,2,0,0,1,448
2212,4,1,292,5,0,0,1,905
2213,4,1,293,32,0,0,1,485
2214,4,1,294,20,0,0,1,607
2215,4,1,295,5,0,0,1,475
2216,4,1,296,2,1,1,1,527
2217,4,1,297,2,0,0,1,575
2218,4,1,298,10,1,1,1,641
2219,4,1,299,2,0,0,1,558
2220,4,1,300,32,1,1,1,874
2221,4,1,301,20,1,1,1,533
2222,4,1,302,10,1,1,1,505
2223,4,1,303,32,1,1,1,520
2224,4,1,304,20,1,1,1,487
2225,4,1,305,32,1,1,1,612
2226,4,1,306,32,1,1,1,494
2227,4,1,307,5,1,1,1,420
2228,4,1,308,20,0,0,1,763
2229,4,1,309,32,1,1,1,509
2230,4,1,310,10,1,1,1,576
2231,4,1,311,32,1,1,1,664
2232,4,1,312,2,1,1,1,687
2233,4,1,313,2,0,0,1,385
2234,4,1,314,32,0,0,1,437
2235,4,1,315,5,0,0,1,509
2236,4,1,316,20,0,0,1,577
2237,4,1,317,5,0,0,1,367
2238,4,1,318,2,1,1,1,572
2239,4,1,319,10,0,0,1,639
2240,4,1,320,1,0,0,1,468
2241,4,1,321,5,1,1,1,495
2242,4,1,322,1,0,0,1,533
2243,4,1,323,32,0,0,1,689
2244,4,1,324,10,1,1,1,761
2245,4,1,325,20,0,0,1,376
2246,4,1,326,2,1,1,1,501
2247,4,1,327,2,1,1,1,417
2248,4,1,328,5,0,0,1,519
2249,4,1,329,2,0,0,1,707
2250,4,1,330,20,0,0,1,544
2251,4,1,331,32,1,1,1,848
2252,4,1,332,10,0,0,1,509
2253,4,1,333,32,0,0,1,573
2254,4,1,334,32,0,0,1,422
2255,4,1,335,32,1,1,1,1029
2256,4,1,336,10,0,0,1,529
2257,4,1,337,10,0,0,1,609
2258,4,1,338,2,0,0,1,695
2259,4,1,339,10,1,1,1,1066
2260,4,1,340,2,1,1,1,570
2261,4,1,341,5,0,0,1,649
2262,4,1,342,20,0,0,1,574
2263,4,1,343,10,1,1,1,694
2264,4,1,344,10,1,1,1,577
2265,4,1,345,2,0,0,1,491
2266,4,1,346,20,1,1,1,623
2267,4,1,347,2,1,1,1,764
2268,4,1,348,20,0,0,1,633
2269,4,1,349,10,0,0,1,602
2270,4,1,350,10,0,0,1,526
2271,4,1,351,20,0,0,1,464
2272,4,1,352,20,1,1,1,590
2273,4,1,353,2,1,1,1,479
2274,4,1,354,20,0,0,1,455
2275,4,1,355,5,1,1,1,474
2276,4,1,356,5,1,1,1,485
2277,4,1,357,32,1,1,1,507
2278,4,1,358,2,1,1,1,447
2279,4,1,359,20,1,1,1,687
2280,4,1,360,10,1,1,1,584
2281,4,1,361,2,0,0,1,467
2282,4,1,362,32,1,1,1,525
2283,4,1,363,10,1,1,1,549
2284,4,1,364,20,1,1,1,519
2285,4,1,365,5,1,1,1,440
2286,4,1,366,32,1,1,1,665
2287,4,1,367,2,1,1,1,443
2288,4,1,368,5,1,1,1,481
2289,4,1,369,10,0,0,0,393
2290,4,1,370,5,1,1,1,846
2291,4,1,371,20,1,1,1,576
2292,4,1,372,5,1,1,1,460
2293,4,1,373,10,1,1,1,518
2294,4,1,374,2,0,0,1,460
2295,4,1,375,2,0,0,1,494
2296,4,1,376,20,1,1,1,499
2297,4,1,377,20,0,0,1,485
2298,4,1,378,5,1,1,1,526
2299,4,1,379,20,0,0,1,589
2300,4,1,380,1,1,1,1,502
2301,4,1,381,32,0,0,1,587
2302,4,1,382,20,1,1,1,549
2303,4,1,383,32,1,1,1,503
2304,4,1,384,32,1,1,1,708
2305,4,1,385,10,1,1,1,897
2306,4,1,386,10,1,1,1,536
2307,4,1,387,10,0,0,1,657
2308,4,1,388,2,0,0,1,562
2309,4,1,389,32,1,1,1,646
2310,4,1,390,20,0,0,1,565
2311,4,1,391,2,1,1,1,571
2312,4,1,392,5,1,1,1,575
2313,4,1,393,10,1,1,1,535
2314,4,1,394,2,0,0,1,642
2315,4,1,395,10,0,0,1,911
2316,4,1,396,32,0,0,1,544
2317,4,1,397,2,1,1,1,463
2318,4,1,398,5,0,0,1,525
2319,4,1,399,20,0,0,1,553
2320,4,1,400,20,1,1,1,685
2321,4,1,401,10,0,0,1,499
2322,4,1,402,10,0,0,1,527
2323,4,1,403,2,0,0,1,386
2324,4,1,404,2,1,1,1,452
2325,4,1,405,32,1,1,1,789
2326,4,1,406,10,0,0,1,404
2327,4,1,407,2,1,1,0,458
2328,4,1,408,10,1,1,1,534
2329,4,1,409,20,1,1,1,535
2330,4,1,410,2,0,0,1,562
2331,4,1,411,2,1,1,1,375
2332,4,1,412,2,0,0,1,524
2333,4,1,413,20,1,1,1,496
2334,4,1,414,10,1,1,1,551
2335,4,1,415,32,0,0,1,486
2336,4,1,416,20,1,1,1,532
2337,4,1,417,20,1,1,1,585
2338,4,1,418,10,0,0,1,616
2339,4,1,419,5,0,0,1,595
2340,4,1,420,32,1,1,1,591
2341,4,1,421,32,1,1,1,602
2342,4,1,422,10,0,0,1,550
2343,4,1,423,2,0,0,1,427
2344,4,1,424,20,1,1,1,512
2345,4,1,425,2,0,0,1,395
2346,4,1,426,32,1,1,1,629
2347,4,1,427,20,1,1,1,750
2348,4,1,428,2,1,1,1,437
2349,4,1,429,1,0,0,1,460
2350,4,1,430,20,0,0,1,563
2351,4,1,431,20,1,1,1,493
2352,4,1,432,2,0,0,1,653
2353,4,1,433,32,0,0,1,424
2354,4,1,434,20,1,1,1,371
2355,4,1,435,2,0,0,1,531
2356,4,1,436,10,1,1,1,637
2357,4,1,437,32,1,1,1,705
2358,4,1,438,32,1,1,1,437
2359,4,1,439,20,0,0,1,733
2360,4,1,440,2,1,1,1,524
2361,4,1,441,10,1,1,1,460
2362,4,1,442,5,0,0,1,440
2363,4,1,443,5,0,0,1,571
2364,4,1,444,10,1,1,1,669
2365,4,1,445,1,1,1,1,363
2366,4,1,446,32,1,1,1,514
2367,4,1,447,10,0,0,1,570
2368,4,1,448,20,0,0,1,841
2369,4,1,449,5,1,1,1,370
2370,4,1,450,10,0,0,0,362
2371,4,1,451,20,1,1,1,489
2372,4,1,452,2,0,0,1,513
2373,4,1,453,2,1,1,1,577
2374,4,1,454,10,0,0,1,560
2375,4,1,455,10,0,0,1,546
2376,4,1,456,10,0,0,1,494
2377,4,1,457,2,1,1,1,721
2378,4,1,458,2,0,0,1,418
2379,4,1,459,32,1,1,1,565
2380,4,1,460,2,1,1,1,525
2381,4,1,461,2,0,0,1,412
2382,4,1,462,20,1,1,1,661
2383,4,1,463,1,0,0,1,476
2384,4,1,464,5,1,1,1,381
2385,4,1,465,1,0,0,1,412
2386,4,1,466,32,0,0,1,486
2387,4,1,467,10,0,0,0,445
2388,4,1,468,20,1,1,1,638
2389,4,1,469,10,1,1,1,547
2390,4,1,470,32,0,0,1,607
2391,4,1,471,32,1,1,1,845
2392,4,1,472,20,0,0,1,726
2393,4,1,473,32,1,1,1,1062
2394,4,1,474,32,0,0,1,512
2395,4,1,475,2,1,1,1,625
2396,4,1,476,20,1,1,1,866
2397,4,1,477,5,0,0,1,639
2398,4,1,478,2,0,0,1,434
2399,4,1,479,32,0,0,1,1022
2400,4,1,480,5,0,0,1,694
2401,4,1,481,20,0,0,1,517
2402,4,1,482,5,0,0,1,386
2403,4,1,483,5,0,0,1,374
2404,4,1,484,20,1,1,1,660
2405,4,1,485,20,0,0,1,467
2406,4,1,486,20,1,1,1,562
2407,4,1,487,10,1,1,1,494
2408,4,1,488,32,0,0,1,661
2409,4,1,489,20,0,0,1,523
2410,4,1,490,10,0,0,1,514
2411,4,1,491,20,0,0,1,624
2412,4,1,492,20,0,0,1,588
2413,4,1,493,10,1,1,1,552
2414,4,1,494,5,1,1,1,424
2415,4,1,495,2,0,0,1,374
2416,4,1,496,5,1,1,1,408
2417,4,1,497,1,1,1,1,526
2418,4,1,498,5,0,0,1,519
2419,4,1,499,5,0,0,1,651
2420,4,1,500,5,0,0,1,723
2421,4,1,501,10,0,0,1,645
2422,4,1,502,5,0,0,1,522
2423,4,1,503,32,1,1,1,652
2424,4,1,504,2,1,1,1,475
2425,4,1,505,2,1,1,1,536
2426,4,1,506,5,0,0,0,423
2427,4,1,507,5,0,0,1,492
2428,4,1,508,5,1,1,1,774
2429,4,1,509,32,0,0,1,648
2430,4,1,510,10,0,0,1,583
2431,4,1,511,1,0,0,1,448
2432,4,1,512,32,1,1,1,440
2433,4,1,513,10,0,0,1,830
2434,4,1,514,2,0,0,1,500
2435,4,1,515,32,1,1,1,579
2436,4,1,516,5,1,1,1,616
2437,4,1,517,5,0,0,1,636
2438,4,1,518,2,1,1,1,454
2439,4,1,519,5,0,0,1,594
2440,4,1,520,2,1,1,1,593
2441,4,1,521,5,1,1,1,708
2442,4,1,522,32,1,1,1,789
2443,4,1,523,32,1,1,1,959
2444,4,1,524,20,0,0,1,440
2445,4,1,525,5,0,0,1,536
2446,4,1,526,32,0,0,1,352
2447,4,1,527,20,1,1,1,477
2448,4,1,528,5,1,1,1,528
2449,4,1,529,20,0,0,1,693
2450,4,1,530,10,1,1,1,530
2451,4,1,531,5,1,1,1,604
2452,4,1,532,10,0,0,1,374
2453,4,1,533,5,1,1,1,512
2454,4,1,534,2,0,0,1,557
2455,4,1,535,20,1,1,1,652
2456,4,1,536,32,1,1,1,609
2457,4,1,537,5,0,0,1,716
2458,4,1,538,20,1,1,1,862
2459,4,1,539,32,0,0,1,670
2460,4,1,540,32,0,0,1,492
2461,4,1,541,5,0,0,1,452
2462,4,1,542,5,1,1,1,411
2463,4,1,543,10,1,1,1,637
2464,4,1,544,32,1,1,1,666
2465,4,1,545,1,1,1,1,579
2466,4,1,546,10,1,1,1,496
2467,4,1,547,5,0,0,1,684
2468,4,1,548,32,0,0,1,595
2469,4,1,549,5,1,1,1,500
2470,4,1,550,1,0,0,1,838
2471,4,1,551,2,0,0,1,434
2472,4,1,552,1,1,1,1,465
2473,4,1,553,1,0,0,1,479
2474,4,1,554,5,1,1,1,435
2475,4,1,555,20,1,1,1,548
2476,4,1,556,32,0,0,1,538
2477,4,1,557,5,0,0,1,603
2478,4,1,558,20,0,0,1,640
2479,4,1,559,5,1,1,1,603
2480,4,1,560,20,0,0,1,478
2481,4,1,561,5,1,1,1,429
2482,4,1,562,1,0,0,1,377
2483,4,1,563,20,1,1,1,583
2484,4,1,564,10,0,0,1,743
2485,4,1,565,20,0,0,1,874
2486,4,1,566,20,0,0,1,487
2487,4,1,567,32,1,1,1,511
2488,4,1,568,32,1,1,1,636
2489,4,1,569,10,1,1,1,501
2490,4,1,570,5,0,0,1,498
2491,4,1,571,20,0,0,1,822
2492,4,1,572,5,1,1,1,463
2493,4,1,573,5,1,1,1,510
2494,4,1,574,5,1,1,1,642
2495,4,1,575,32,0,0,1,644
2496,4,1,576,20,0,0,1,651
2497,4,1,577,32,0,0,1,512
2498,4,1,578,2,0,0,1,424
2499,4,1,579,2,0,0,1,381
2500,4,1,580,2,0,0,1,1046
2501,4,1,581,32,0,0,1,505
2502,4,1,582,20,1,1,1,753
2503,4,1,583,5,0,0,1,585
2504,4,1,584,20,0,0,1,432
2505,4,1,585,5,1,1,1,620
2506,4,1,586,5,1,1,1,535
2507,4,1,587,2,0,0,1,412
2508,4,1,588,20,1,1,1,628
2509,4,1,589,5,0,0,1,577
2510,4,1,590,10,1,1,1,455
2511,4,1,591,5,0,0,1,605
2512,4,1,592,5,0,0,1,459
2513,4,1,593,10,0,0,1,465
2514,4,1,594,5,0,0,1,428
2515,4,1,595,32,1,1,1,418
2516,4,1,596,2,0,0,1,510
2517,4,1,597,32,0,0,1,670
2518,4,1,598,20,1,1,1,580
2519,4,1,599,2,0,0,1,454
2520,4,1,600,2,1,1,1,355
2521,4,1,601,32,0,0,1,654
2522,4,1,602,32,1,1,1,473
2523,4,1,603,10,0,0,0,373
2524,4,1,604,32,0,0,1,509
2525,4,1,605,32,0,0,1,840
2526,4,1,606,5,1,1,1,527
2527,4,1,607,32,1,1,1,635
2528,4,1,608,20,0,0,1,498
2529,4,1,609,2,1,1,0,427
2530,4,1,610,20,0,0,1,565
2531,4,1,611,5,1,1,1,410
2532,4,1,612,10,1,1,1,696
2533,4,1,613,32,1,1,1,535
2534,4,1,614,10,1,1,1,491
2535,4,1,615,10,1,1,1,485
2536,4,1,616,10,1,1,1,675
2537,4,1,617,1,0,0,1,538
2538,4,1,618,5,1,1,1,553
2539,4,1,619,32,0,0,1,569
2540,4,1,620,32,0,0,1,516
2541,4,1,621,20,1,1,1,528
2542,4,1,622,10,1,1,1,466
2543,4,1,623,10,1,1,1,473
2544,4,1,624,5,0,0,1,529
2545,4,1,625,10,0,0,1,616
2546,4,1,626,5,0,0,1,489
2547,4,1,627,32,1,1,1,459
2548,4,1,628,20,0,0,1,521
2549,4,1,629,10,0,0,1,555
2550,4,1,630,2,0,0,1,465
2551,4,1,631,20,1,1,1,526
2552,4,1,632,5,1,1,1,596
2553,4,1,633,32,1,1,1,545
2554,4,1,634,1,1,1,1,438
2555,4,1,635,20,0,0,1,631
2556,4,1,636,5,1,1,1,519
2557,4,1,637,20,0,0,1,570
2558,4,1,638,20,1,1,1,602
2559,4,1,639,32,1,1,1,442
2560,4,1,640,20,0,0,1,542
2561,5,1,1,20,0,0,1,1397
2562,5,1,2,10,0,0,1,540
2563,5,1,3,2,1,1,1,555
2564,5,1,4,10,1,1,1,487
2565,5,1,5,32,1,1,1,696
2566,5,1,6,32,0,0,1,753
2567,5,1,7,20,1,1,1,1224
2568,5,1,8,5,0,0,1,532
2569,5,1,9,2,0,0,1,656
2570,5,1,10,5,0,0,1,731
2571,5,1,11,20,1,1,1,688
2572,5,1,12,20,0,0,1,767
2573,5,1,13,2,1,1,1,707
2574,5,1,14,1,0,0,1,477
2575,5,1,15,5,1,1,1,661
2576,5,1,16,10,1,1,1,782
2577,5,1,17,5,1,1,1,572
2578,5,1,18,10,0,0,1,489
2579,5,1,19,2,1,1,1,635
2580,5,1,20,1,1,1,1,865
2581,5,1,21,20,0,0,1,647
2582,5,1,22,32,0,0,1,786
2583,5,1,23,10,0,0,1,1381
2584,5,1,24,10,0,0,1,1115
2585,5,1,25,32,1,1,1,1212
2586,5,1,26,10,1,1,1,1175
2587,5,1,27,32,1,1,1,1209
2588,5,1,28,32,0,0,1,1182
2589,5,1,29,1,0,0,1,575
2590,5,1,30,2,0,0,1,570
2591,5,1,31,1,1,1,1,769
2592,5,1,32,20,0,0,1,595
2593,5,1,33,10,1,1,1,851
2594,5,1,34,20,1,1,1,580
2595,5,1,35,20,1,1,1,707
2596,5,1,36,2,0,0,1,618
2597,5,1,37,32,0,0,1,853
2598,5,1,38,5,1,1,1,642
2599,5,1,39,5,1,1,1,1670
2600,5,1,40,32,0,0,1,560
2601,5,1,41,2,1,1,1,1088
2602,5,1,42,5,0,0,1,657
2603,5,1,43,32,1,1,1,452
2604,5,1,44,32,0,0,1,468
2605,5,1,45,32,1,1,1,597
2606,5,1,46,5,1,1,1,573
2607,5,1,47,1,1,1,1,525
2608,5,1,48,10,0,0,1,482
2609,5,1,49,32,1,1,1,526
2610,5,1,50,10,1,1,1,537
2611,5,1,51,10,1,1,1,654
2612,5,1,52,32,1,1,1,514
2613,5,1,53,10,1,1,1,600
2614,5,1,54,5,0,0,1,407
2615,5,1,55,1,0,0,1,488
2616,5,1,56,32,1,1,1,438
2617,5,1,57,10,0,0,1,955
2618,5,1,58,20,0,0,1,571
2619,5,1,59,20,1,1,1,590
2620,5,1,60,20,1,1,1,656
2621,5,1,61,5,1,1,1,642
2622,5,1,62,32,0,0,1,580
2623,5,1,63,10,0,0,1,660
2624,5,1,64,20,1,1,1,756
2625,5,1,65,32,1,1,1,613
2626,5,1,66,20,0,0,1,581
2627,5,1,67,2,1,1,1,533
2628,5,1,68,2,1,1,1,481
2629,5,1,69,32,1,1,1,442
2630,5,1,70,2,1,1,1,502
2631,5,1,71,10,0,0,1,898
2632,5,1,72,2,1,1,0,612
2633,5,1,73,10,0,0,1,559
2634,5,1,74,20,1,1,1,493
2635,5,1,75,5,1,1,1,537
2636,5,1,76,10,1,1,1,750
2637,5,1,77,20,1,1,1,410
2638,5,1,78,5,1,1,1,472
2639,5,1,79,20,0,0,1,473
2640,5,1,80,2,0,0,1,567
2641,5,1,81,20,0,0,0,676
2642,5,1,82,20,1,1,1,651
2643,5,1,83,10,1,1,1,509
2644,5,1,84,5,1,1,1,403
2645,5,1,85,5,0,0,1,553
2646,5,1,86,32,1,1,1,727
2647,5,1,87,2,0,0,1,509
2648,5,1,88,2,0,0,1,488
2649,5,1,89,2,1,1,1,533
2650,5,1,90,5,0,0,1,745
2651,5,1,91,10,1,1,1,968
2652,5,1,92,2,1,1,1,543
2653,5,1,93,2,0,0,1,727
2654,5,1,94,10,1,1,1,531
2655,5,1,95,32,0,0,1,518
2656,5,1,96,2,1,1,1,522
2657,5,1,97,10,0,0,1,815
2658,5,1,98,2,1,1,1,466
2659,5,1,99,2,1,1,1,574
2660,5,1,100,10,0,0,1,520
2661,5,1,101,2,1,1,1,586
2662,5,1,102,5,0,0,1,446
2663,5,1,103,2,1,1,1,423
2664,5,1,104,20,0,0,1,880
2665,5,1,105,1,0,0,1,569
2666,5,1,106,10,1,1,1,577
2667,5,1,107,10,0,0,1,547
2668,5,1,108,20,1,1,1,2205
2669,5,1,109,2,0,0,1,821
2670,5,1,110,10,0,0,1,1836
2671,5,1,111,5,1,1,1,516
2672,5,1,112,32,1,1,1,507
2673,5,1,113,32,0,0,1,1020
2674,5,1,114,32,0,0,1,713
2675,5,1,115,32,0,0,1,624
2676,5,1,116,2,1,1,1,620
2677,5,1,117,32,0,0,1,1223
2678,5,1,118,2,0,0,1,630
2679,5,1,119,2,0,0,1,492
2680,5,1,120,2,1,1,1,1246
2681,5,1,121,5,0,0,1,461
2682,5,1,122,2,0,0,1,553
2683,5,1,123,10,1,1,1,477
2684,5,1,124,10,0,0,1,634
2685,5,1,125,5,1,1,1,555
2686,5,1,126,5,1,1,1,764
2687,5,1,127,32,1,1,1,615
2688,5,1,128,20,1,1,1,612
2689,5,1,129,5,1,1,1,493
2690,5,1,130,2,0,0,1,479
2691,5,1,131,5,0,0,1,411
2692,5,1,132,5,0,0,1,427
2693,5,1,133,2,1,1,1,458
2694,5,1,134,5,0,0,1,618
2695,5,1,135,20,1,1,1,950
2696,5,1,136,32,0,0,1,439
2697,5,1,137,2,1,1,1,616
2698,5,1,138,5,0,0,1,451
2699,5,1,139,10,1,1,1,458
2700,5,1,140,2,0,0,1,444
2701,5,1,141,32,1,1,1,520
2702,5,1,142,32,0,0,1,472
2703,5,1,143,10,1,1,1,530
2704,5,1,144,2,0,0,1,497
2705,5,1,145,10,0,0,1,458
2706,5,1,146,32,0,0,1,511
2707,5,1,147,32,1,1,1,456
2708,5,1,148,1,0,0,1,440
2709,5,1,149,2,0,0,1,519
2710,5,1,150,20,0,0,1,992
2711,5,1,151,2,0,0,1,523
2712,5,1,152,20,1,1,1,461
2713,5,1,153,2,0,0,1,425
2714,5,1,154,20,0,0,1,519
2715,5,1,155,20,0,0,1,586
2716,5,1,156,1,1,1,1,460
2717,5,1,157,5,1,1,1,1080
2718,5,1,158,32,1,1,1,783
2719,5,1,159,5,1,1,1,476
2720,5,1,160,32,1,1,1,732
2721,5,1,161,10,0,0,1,786
2722,5,1,162,5,1,1,1,596
2723,5,1,163,32,0,0,1,425
2724,5,1,164,10,0,0,1,537
2725,5,1,165,10,1,1,1,848
2726,5,1,166,2,0,0,1,498
2727,5,1,167,1,0,0,1,417
2728,5,1,168,2,0,0,1,466
2729,5,1,169,20,0,0,1,457
2730,5,1,170,5,0,0,1,639
2731,5,1,171,2,0,0,1,489
2732,5,1,172,32,1,1,1,597
2733,5,1,173,32,0,0,1,790
2734,5,1,174,20,1,1,1,508
2735,5,1,175,2,0,0,1,521
2736,5,1,176,1,1,1,1,1098
2737,5,1,177,5,1,1,1,409
2738,5,1,178,32,1,1,1,593
2739,5,1,179,5,0,0,1,594
2740,5,1,180,2,0,0,0,498
2741,5,1,181,10,0,0,1,594
2742,5,1,182,5,1,1,1,635
2743,5,1,183,10,0,0,1,605
2744,5,1,184,10,1,1,1,528
2745,5,1,185,32,1,1,1,668
2746,5,1,186,2,0,0,1,470
2747,5,1,187,5,1,1,1,559
2748,5,1,188,2,1,1,1,499
2749,5,1,189,20,0,0,1,506
2750,5,1,190,10,1,1,1,536
2751,5,1,191,2,0,0,1,408
2752,5,1,192,20,1,1,1,667
2753,5,1,193,2,0,0,1,579
2754,5,1,194,5,1,1,1,549
2755,5,1,195,32,0,0,1,597
2756,5,1,196,20,0,0,1,672
2757,5,1,197,10,1,1,1,827
2758,5,1,198,20,0,0,1,1133
2759,5,1,199,5,1,1,1,875
2760,5,1,200,5,0,0,1,497
2761,5,1,201,2,1,1,1,736
2762,5,1,202,2,1,1,1,411
2763,5,1,203,2,0,0,1,600
2764,5,1,204,20,0,0,1,655
2765,5,1,205,10,1,1,1,456
2766,5,1,206,10,0,0,1,517
2767,5,1,207,32,0,0,1,785
2768,5,1,208,2,1,1,1,668
2769,5,1,209,20,0,0,1,654
2770,5,1,210,32,1,1,1,670
2771,5,1,211,20,0,0,1,569
2772,5,1,212,5,0,0,1,606
2773,5,1,213,32,1,1,1,639
2774,5,1,214,20,1,1,1,551
2775,5,1,215,1,0,0,1,599
2776,5,1,216,20,0,0,1,831
2777,5,1,217,5,0,0,1,871
2778,5,1,218,10,1,1,1,541
2779,5,1,219,20,0,0,1,646
2780,5,1,220,20,1,1,1,585
2781,5,1,221,32,1,1,1,680
2782,5,1,222,20,1,1,1,533
2783,5,1,223,20,1,1,1,1304
2784,5,1,224,32,0,0,1,833
2785,5,1,225,20,1,1,1,581
2786,5,1,226,20,1,1,1,701
2787,5,1,227,32,0,0,1,664
2788,5,1,228,5,1,1,1,575
2789,5,1,229,1,0,0,1,1663
2790,5,1,230,2,0,0,1,477
2791,5,1,231,10,1,1,1,677
2792,5,1,232,32,0,0,1,667
2793,5,1,233,1,1,1,1,514
2794,5,1,234,20,0,0,1,600
2795,5,1,235,1,0,0,1,1155
2796,5,1,236,20,0,0,1,805
2797,5,1,237,10,0,0,1,693
2798,5,1,238,20,0,0,1,660
2799,5,1,239,5,1,1,1,864
2800,5,1,240,32,0,0,1,561
2801,5,1,241,10,1,1,1,508
2802,5,1,242,32,0,0,1,480
2803,5,1,243,1,1,1,1,409
2804,5,1,244,10,1,1,1,514
2805,5,1,245,10,1,1,1,556
2806,5,1,246,5,1,1,1,387
2807,5,1,247,1,1,1,1,472
2808,5,1,248,10,0,0,1,3756
2809,5,1,249,2,1,1,1,725
2810,5,1,250,10,0,0,1,701
2811,5,1,251,32,1,1,1,912
2812,5,1,252,20,0,0,1,890
2813,5,1,253,5,0,0,1,916
2814,5,1,254,1,1,1,1,1198
2815,5,1,255,5,1,1,1,1086
2816,5,1,256,10,0,0,1,1201
2817,5,1,257,20,1,1,1,972
2818,5,1,258,32,1,1,1,702
2819,5,1,259,32,1,1,1,785
2820,5,1,260,10,0,0,1,976
2821,5,1,261,32,1,1,1,1118
2822,5,1,262,5,0,0,1,435
2823,5,1,263,5,1,1,1,1292
2824,5,1,264,20,0,0,1,538
2825,5,1,265,2,1,1,1,538
2826,5,1,266,5,1,1,1,699
2827,5,1,267,32,0,0,1,825
2828,5,1,268,32,0,0,1,1048
2829,5,1,269,20,1,1,1,735
2830,5,1,270,32,1,1,1,676
2831,5,1,271,1,0,0,1,552
2832,5,1,272,20,1,1,1,649
2833,5,1,273,5,0,0,1,873
2834,5,1,274,20,1,1,1,901
2835,5,1,275,1,0,0,1,454
2836,5,1,276,20,1,1,1,618
2837,5,1,277,5,1,1,1,779
2838,5,1,278,32,0,0,1,520
2839,5,1,279,5,1,1,1,507
2840,5,1,280,2,1,1,1,677
2841,5,1,281,10,1,1,1,673
2842,5,1,282,10,1,1,1,558
2843,5,1,283,32,0,0,1,720
2844,5,1,284,2,0,0,1,541
2845,5,1,285,20,1,1,1,613
2846,5,1,286,5,0,0,1,688
2847,5,1,287,5,0,0,1,758
2848,5,1,288,5,0,0,1,691
2849,5,1,289,10,0,0,1,675
2850,5,1,290,1,0,0,1,1452
2851,5,1,291,1,1,1,1,457
2852,5,1,292,2,0,0,1,493
2853,5,1,293,2,1,1,1,434
2854,5,1,294,10,0,0,1,772
2855,5,1,295,2,1,1,1,424
2856,5,1,296,20,1,1,1,599
2857,5,1,297,10,0,0,1,604
2858,5,1,298,2,1,1,1,460
2859,5,1,299,5,0,0,1,567
2860,5,1,300,20,1,1,1,741
2861,5,1,301,10,0,0,1,780
2862,5,1,302,2,1,1,1,739
2863,5,1,303,5,1,1,1,543
2864,5,1,304,5,1,1,1,584
2865,5,1,305,32,1,1,1,650
2866,5,1,306,2,0,0,1,471
2867,5,1,307,5,1,1,1,547
2868,5,1,308,32,1,1,1,566
2869,5,1,309,20,0,0,1,618
2870,5,1,310,1,1,1,1,449
2871,5,1,311,20,0,0,1,549
2872,5,1,312,2,0,0,1,418
2873,5,1,313,5,1,1,1,541
2874,5,1,314,20,0,0,1,660
2875,5,1,315,5,1,1,1,1180
2876,5,1,316,10,1,1,1,773
2877,5,1,317,2,1,1,1,860
2878,5,1,318,32,1,1,1,3565
2879,5,1,319,32,0,0,1,1306
2880,5,1,320,5,1,1,1,661
2881,5,1,321,2,1,1,1,522
2882,5,1,322,32,1,1,1,732
2883,5,1,323,10,1,1,1,561
2884,5,1,324,5,1,1,1,1283
2885,5,1,325,32,0,0,1,561
2886,5,1,326,2,0,0,1,1148
2887,5,1,327,32,1,1,1,726
2888,5,1,328,2,1,1,1,923
2889,5,1,329,10,0,0,1,1186
2890,5,1,330,5,0,0,1,1970
2891,5,1,331,10,1,1,1,650
2892,5,1,332,5,1,1,1,565
2893,5,1,333,32,0,0,1,1077
2894,5,1,334,32,0,0,1,1370
2895,5,1,335,20,0,0,1,903
2896,5,1,336,2,0,0,1,537
2897,5,1,337,2,0,0,1,676
2898,5,1,338,5,0,0,1,500
2899,5,1,339,5,1,1,0,601
2900,5,1,340,2,1,1,1,680
2901,5,1,341,20,1,1,1,679
2902,5,1,342,5,0,0,1,941
2903,5,1,343,32,1,1,1,811
2904,5,1,344,10,1,1,1,565
2905,5,1,345,10,0,0,1,681
2906,5,1,346,1,1,1,1,734
2907,5,1,347,2,0,0,1,682
2908,5,1,348,10,0,0,1,722
2909,5,1,349,32,0,0,1,662
2910,5,1,350,32,1,1,1,653
2911,5,1,351,10,0,0,1,603
2912,5,1,352,5,1,1,1,572
2913,5,1,353,20,0,0,1,672
2914,5,1,354,32,1,1,1,431
2915,5,1,355,5,0,0,1,697
2916,5,1,356,2,0,0,1,468
2917,5,1,357,32,0,0,1,547
2918,5,1,358,10,1,1,1,1024
2919,5,1,359,10,0,0,1,442
2920,5,1,360,10,1,1,1,449
2921,5,1,361,5,1,1,1,1170
2922,5,1,362,32,0,0,1,525
2923,5,1,363,32,0,0,1,562
2924,5,1,364,2,0,0,1,1071
2925,5,1,365,10,0,0,1,1260
2926,5,1,366,1,0,0,1,727
2927,5,1,367,10,0,0,1,373
2928,5,1,368,20,1,1,1,630
2929,5,1,369,20,1,1,1,883
2930,5,1,370,32,1,1,1,1740
2931,5,1,371,10,1,1,1,472
2932,5,1,372,10,1,1,1,2355
2933,5,1,373,2,1,1,1,611
2934,5,1,374,20,0,0,1,612
2935,5,1,375,32,0,0,1,548
2936,5,1,376,5,0,0,1,478
2937,5,1,377,10,1,1,1,757
2938,5,1,378,5,1,1,1,786
2939,5,1,379,10,0,0,1,574
2940,5,1,380,32,1,1,1,555
2941,5,1,381,1,0,0,1,562
2942,5,1,382,2,1,1,1,572
2943,5,1,383,10,1,1,1,732
2944,5,1,384,32,0,0,1,586
2945,5,1,385,32,0,0,1,976
2946,5,1,386,10,1,1,1,482
2947,5,1,387,10,0,0,1,1397
2948,5,1,388,20,0,0,1,564
2949,5,1,389,20,0,0,1,888
2950,5,1,390,20,0,0,1,520
2951,5,1,391,5,0,0,1,609
2952,5,1,392,5,1,1,1,711
2953,5,1,393,10,0,0,1,774
2954,5,1,394,20,0,0,1,581
2955,5,1,395,10,0,0,1,567
2956,5,1,396,32,1,1,1,574
2957,5,1,397,10,1,1,1,556
2958,5,1,398,2,0,0,1,735
2959,5,1,399,2,0,0,1,560
2960,5,1,400,32,0,0,1,593
2961,5,1,401,20,1,1,1,841
2962,5,1,402,5,1,1,1,628
2963,5,1,403,2,0,0,1,1237
2964,5,1,404,5,0,0,1,1058
2965,5,1,405,32,1,1,1,979
2966,5,1,406,2,0,0,1,662
2967,5,1,407,10,1,1,1,650
2968,5,1,408,5,0,0,1,466
2969,5,1,409,32,0,0,1,873
2970,5,1,410,1,0,0,1,449
2971,5,1,411,5,0,0,1,618
2972,5,1,412,10,0,0,1,2365
2973,5,1,413,2,0,0,1,398
2974,5,1,414,2,1,1,1,1766
2975,5,1,415,2,1,1,1,3791
2976,5,1,416,10,1,1,1,867
2977,5,1,417,20,1,1,1,470
2978,5,1,418,20,1,1,1,623
2979,5,1,419,5,0,0,1,662
2980,5,1,420,10,0,0,1,452
2981,5,1,421,5,1,1,1,642
2982,5,1,422,2,0,0,1,364
2983,5,1,423,5,0,0,1,607
2984,5,1,424,2,0,0,1,760
2985,5,1,425,32,0,0,1,520
2986,5,1,426,2,0,0,1,669
2987,5,1,427,10,0,0,1,484
2988,5,1,428,5,0,0,1,399
2989,5,1,429,32,1,1,1,466
2990,5,1,430,2,1,1,1,1062
2991,5,1,431,5,1,1,1,483
2992,5,1,432,5,0,0,1,794
2993,5,1,433,20,0,0,1,744
2994,5,1,434,2,0,0,1,520
2995,5,1,435,10,0,0,1,555
2996,5,1,436,20,0,0,1,499
2997,5,1,437,20,1,1,1,621
2998,5,1,438,20,1,1,1,441
2999,5,1,439,2,0,0,1,973
3000,5,1,440,20,1,1,1,666
3001,5,1,441,32,0,0,1,662
3002,5,1,442,20,0,0,1,441
3003,5,1,443,5,0,0,1,848
3004,5,1,444,20,0,0,1,449
3005,5,1,445,1,1,1,1,478
3006,5,1,446,32,1,1,1,653
3007,5,1,447,32,0,0,1,493
3008,5,1,448,10,1,1,1,764
3009,5,1,449,5,0,0,1,839
3010,5,1,450,5,1,1,1,594
3011,5,1,451,20,0,0,1,473
3012,5,1,452,10,1,1,1,572
3013,5,1,453,1,0,0,1,636
3014,5,1,454,5,1,1,1,832
3015,5,1,455,20,0,0,1,1047
3016,5,1,456,2,1,1,1,440
3017,5,1,457,1,1,1,1,755
3018,5,1,458,20,1,1,1,578
3019,5,1,459,5,0,0,1,986
3020,5,1,460,20,1,1,1,1003
3021,5,1,461,32,0,0,1,702
3022,5,1,462,10,1,1,1,804
3023,5,1,463,5,1,1,1,1390
3024,5,1,464,10,1,1,1,487
3025,5,1,465,20,0,0,1,968
3026,5,1,466,2,1,1,1,759
3027,5,1,467,5,1,1,1,1667
3028,5,1,468,32,1,1,1,562
3029,5,1,469,10,0,0,1,558
3030,5,1,470,10,1,1,1,619
3031,5,1,471,2,1,1,1,3454
3032,5,1,472,20,0,0,1,536
3033,5,1,473,10,1,1,1,412
3034,5,1,474,2,0,0,1,421
3035,5,1,475,20,0,0,1,434
3036,5,1,476,10,0,0,1,326
3037,5,1,477,5,0,0,1,435
3038,5,1,478,5,0,0,1,421
3039,5,1,479,20,1,1,1,652
3040,5,1,480,32,1,1,1,462
3041,5,1,481,2,1,1,1,587
3042,5,1,482,2,0,0,1,423
3043,5,1,483,1,1,1,1,447
3044,5,1,484,2,1,1,1,461
3045,5,1,485,32,1,1,1,481
3046,5,1,486,20,1,1,1,547
3047,5,1,487,2,1,1,1,503
3048,5,1,488,2,1,1,1,412
3049,5,1,489,2,1,1,1,396
3050,5,1,490,20,1,1,1,332
3051,5,1,491,2,0,0,1,394
3052,5,1,492,2,1,1,1,440
3053,5,1,493,20,1,1,1,660
3054,5,1,494,32,1,1,1,553
3055,5,1,495,20,0,0,1,511
3056,5,1,496,2,1,1,1,466
3057,5,1,497,20,1,3,0,4993
3058,5,1,498,20,0,0,1,673
3059,5,1,499,20,1,1,1,523
3060,5,1,500,5,1,1,1,649
3061,5,1,501,32,0,0,1,520
3062,5,1,502,10,1,1,1,781
3063,5,1,503,20,0,0,1,406
3064,5,1,504,10,1,1,1,630
3065,5,1,505,32,0,0,1,458
3066,5,1,506,32,1,1,1,493
3067,5,1,507,20,1,1,1,410
3068,5,1,508,1,1,1,1,476
3069,5,1,509,10,0,0,1,480
3070,5,1,510,10,1,1,1,597
3071,5,1,511,32,1,1,1,717
3072,5,1,512,1,1,1,1,382
3073,5,1,513,10,1,1,1,422
3074,5,1,514,5,1,1,1,512
3075,5,1,515,2,0,0,1,700
3076,5,1,516,32,0,0,1,625
3077,5,1,517,32,0,0,1,588
3078,5,1,518,10,1,1,1,733
3079,5,1,519,2,0,0,1,530
3080,5,1,520,1,0,0,1,464
3081,5,1,521,20,1,1,1,615
3082,5,1,522,20,1,1,1,541
3083,5,1,523,32,1,1,1,460
3084,5,1,524,20,0,0,1,478
3085,5,1,525,5,1,1,1,559
3086,5,1,526,10,0,0,1,456
3087,5,1,527,32,0,0,1,432
3088,5,1,528,5,1,1,1,1864
3089,5,1,529,5,0,0,1,558
3090,5,1,530,5,0,0,1,555
3091,5,1,531,5,1,1,1,575
3092,5,1,532,32,1,1,1,751
3093,5,1,533,20,0,0,1,829
3094,5,1,534,20,0,0,1,992
3095,5,1,535,20,1,1,1,979
3096,5,1,536,10,0,0,1,664
3097,5,1,537,20,0,0,1,2061
3098,5,1,538,5,1,1,1,1431
3099,5,1,539,5,0,0,1,2058
3100,5,1,540,32,0,0,1,2001
3101,5,1,541,2,0,0,1,428
3102,5,1,542,2,1,1,1,393
3103,5,1,543,2,0,0,1,622
3104,5,1,544,20,0,0,1,452
3105,5,1,545,20,1,1,1,675
3106,5,1,546,10,0,0,1,483
3107,5,1,547,32,0,0,1,558
3108,5,1,548,10,1,1,1,513
3109,5,1,549,5,1,1,1,1156
3110,5,1,550,2,1,1,1,1165
3111,5,1,551,1,1,1,1,374
3112,5,1,552,20,0,0,1,628
3113,5,1,553,20,0,0,1,896
3114,5,1,554,5,0,0,1,497
3115,5,1,555,1,1,1,1,848
3116,5,1,556,10,0,0,1,981
3117,5,1,557,20,0,0,1,664
3118,5,1,558,2,1,1,1,850
3119,5,1,559,20,1,1,1,555
3120,5,1,560,20,1,1,1,472
3121,5,1,561,32,1,1,1,493
3122,5,1,562,32,0,0,1,547
3123,5,1,563,2,1,1,1,407
3124,5,1,564,32,1,1,1,764
3125,5,1,565,10,1,1,1,566
3126,5,1,566,20,0,0,1,487
3127,5,1,567,20,0,0,1,659
3128,5,1,568,32,1,1,1,724
3129,5,1,569,10,0,0,1,373
3130,5,1,570,5,0,0,1,443
3131,5,1,571,1,0,0,1,373
3132,5,1,572,2,0,0,1,470
3133,5,1,573,1,0,0,1,446
3134,5,1,574,5,0,0,0,566
3135,5,1,575,5,0,0,1,515
3136,5,1,576,32,1,1,1,524
3137,5,1,577,32,1,1,1,529
3138,5,1,578,5,0,0,1,492
3139,5,1,579,10,0,0,1,522
3140,5,1,580,2,0,0,1,476
3141,5,1,581,10,1,1,1,615
3142,5,1,582,1,1,1,1,827
3143,5,1,583,32,0,0,1,398
3144,5,1,584,2,1,1,1,390
3145,5,1,585,2,1,1,1,484
3146,5,1,586,10,1,1,1,537
3147,5,1,587,32,1,1,1,641
3148,5,1,588,2,0,0,1,450
3149,5,1,589,20,1,1,1,453
3150,5,1,590,10,0,0,1,631
3151,5,1,591,20,1,1,1,639
3152,5,1,592,32,0,0,1,596
3153,5,1,593,10,0,0,1,639
3154,5,1,594,5,1,1,1,806
3155,5,1,595,5,0,0,1,456
3156,5,1,596,5,0,0,1,555
3157,5,1,597,2,0,0,1,351
3158,5,1,598,5,0,0,1,353
3159,5,1,599,32,1,1,1,899
3160,5,1,600,10,1,1,1,513
3161,5,1,601,1,0,0,1,412
3162,5,1,602,20,1,1,1,439
3163,5,1,603,5,0,0,1,390
3164,5,1,604,32,0,0,1,491
3165,5,1,605,5,0,0,1,561
3166,5,1,606,2,0,0,1,371
3167,5,1,607,2,1,1,0,391
3168,5,1,608,32,1,1,1,655
3169,5,1,609,10,0,0,1,495
3170,5,1,610,2,0,0,1,404
3171,5,1,611,20,1,1,1,642
3172,5,1,612,5,1,1,1,598
3173,5,1,613,5,1,1,1,528
3174,5,1,614,5,0,0,1,391
3175,5,1,615,10,0,0,1,509
3176,5,1,616,32,0,0,1,717
3177,5,1,617,10,0,0,1,735
3178,5,1,618,32,1,1,1,710
3179,5,1,619,5,0,0,1,597
3180,5,1,620,10,1,1,1,568
3181,5,1,621,20,1,1,1,895
3182,5,1,622,5,0,0,1,592
3183,5,1,623,2,1,1,1,549
3184,5,1,624,10,0,0,1,480
3185,5,1,625,5,0,0,1,411
3186,5,1,626,20,1,1,1,568
3187,5,1,627,32,0,0,1,480
3188,5,1,628,2,1,1,1,457
3189,5,1,629,10,0,0,1,736
3190,5,1,630,32,0,0,1,511
3191,5,1,631,5,1,1,1,596
3192,5,1,632,32,0,0,1,615
3193,5,1,633,20,0,0,1,584
3194,5,1,634,10,1,1,1,1157
3195,5,1,635,2,1,1,1,505
3196,5,1,636,10,1,1,1,694
3197,5,1,637,5,0,0,1,463
3198,5,1,638,32,1,1,1,815
3199,5,1,639,2,1,1,1,505
3200,5,1,640,20,0,0,1,583
3201,6,1,1,32,1,1,1,435
3202,6,1,2,5,1,1,1,574
3203,6,1,3,5,1,1,1,579
3204,6,1,4,32,1,1,1,595
3205,6,1,5,32,0,0,1,419
3206,6,1,6,32,1,1,1,602
3207,6,1,7,32,1,1,1,476
3208,6,1,8,20,1,1,1,431
3209,6,1,9,20,0,0,1,928
3210,6,1,10,32,0,0,1,470
3211,6,1,11,32,1,1,1,519
3212,6,1,12,10,1,1,1,538
3213,6,1,13,10,0,0,1,466
3214,6,1,14,5,0,0,1,674
3215,6,1,15,20,0,0,1,711
3216,6,1,16,5,1,1,1,909
3217,6,1,17,32,0,0,1,866
3218,6,1,18,10,1,1,1,620
3219,6,1,19,2,1,1,1,571
3220,6,1,20,5,1,1,1,762
3221,6,1,21,10,0,0,1,491
3222,6,1,22,10,0,0,1,571
3223,6,1,23,10,1,1,1,565
3224,6,1,24,5,0,0,1,427
3225,6,1,25,2,1,1,1,440
3226,6,1,26,32,0,0,1,737
3227,6,1,27,2,1,1,1,462
3228,6,1,28,10,1,1,1,492
3229,6,1,29,5,0,0,1,489
3230,6,1,30,10,1,1,1,551
3231,6,1,31,32,1,1,1,677
3232,6,1,32,20,0,0,1,526
3233,6,1,33,20,1,1,1,463
3234,6,1,34,10,1,1,1,646
3235,6,1,35,20,0,0,1,551
3236,6,1,36,2,0,0,1,595
3237,6,1,37,32,1,1,1,461
3238,6,1,38,2,1,1,1,350
3239,6,1,39,20,0,0,1,472
3240,6,1,40,10,1,1,1,500
3241,6,1,41,1,1,1,1,495
3242,6,1,42,10,0,0,1,445
3243,6,1,43,20,0,0,1,474
3244,6,1,44,10,0,0,1,519
3245,6,1,45,10,1,1,1,559
3246,6,1,46,32,0,0,1,432
3247,6,1,47,20,0,0,1,529
3248,6,1,48,5,0,0,1,392
3249,6,1,49,32,0,0,1,466
3250,6,1,50,10,1,1,1,550
3251,6,1,51,2,1,1,1,586
3252,6,1,52,5,0,0,1,426
3253,6,1,53,10,0,0,1,594
3254,6,1,54,1,0,0,1,429
3255,6,1,55,2,0,0,1,318
3256,6,1,56,5,0,0,1,417
3257,6,1,57,10,0,0,1,460
3258,6,1,58,20,0,0,1,568
3259,6,1,59,2,1,1,1,700
3260,6,1,60,20,0,0,1,510
3261,6,1,61,10,1,1,0,501
3262,6,1,62,10,1,1,1,580
3263,6,1,63,10,0,0,1,584
3264,6,1,64,1,1,1,1,402
3265,6,1,65,20,1,1,1,555
3266,6,1,66,2,0,0,1,555
3267,6,1,67,10,0,0,1,471
3268,6,1,68,20,1,1,1,818
3269,6,1,69,2,0,0,1,534
3270,6,1,70,32,0,0,1,404
3271,6,1,71,2,0,0,1,406
3272,6,1,72,32,1,1,1,498
3273,6,1,73,10,1,1,1,474
3274,6,1,74,2,0,0,1,458
3275,6,1,75,2,1,1,1,392
3276,6,1,76,1,0,0,1,437
3277,6,1,77,2,1,1,1,422
3278,6,1,78,10,1,1,1,572
3279,6,1,79,1,1,1,1,374
3280,6,1,80,5,1,1,1,346
3281,6,1,81,2,0,0,1,390
3282,6,1,82,32,0,0,1,464
3283,6,1,83,2,0,0,0,941
3284,6,1,84,2,0,0,0,442
3285,6,1,85,20,0,0,1,610
3286,6,1,86,5,1,1,1,469
3287,6,1,87,2,0,0,1,479
3288,6,1,88,5,1,1,1,875
3289,6,1,89,20,1,1,1,499
3290,6,1,90,10,0,0,1,622
3291,6,1,91,2,1,1,1,472
3292,6,1,92,1,1,1,1,449
3293,6,1,93,5,1,1,1,507
3294,6,1,94,10,1,1,1,586
3295,6,1,95,10,0,0,1,466
3296,6,1,96,5,1,1,1,449
3297,6,1,97,2,1,1,1,414
3298,6,1,98,32,0,0,1,467
3299,6,1,99,2,1,1,1,461
3300,6,1,100,2,0,0,1,481
3301,6,1,101,2,1,1,1,465
3302,6,1,102,32,0,0,1,504
3303,6,1,103,2,1,1,1,432
3304,6,1,104,5,1,1,1,544
3305,6,1,105,1,1,1,1,407
3306,6,1,106,32,0,0,1,570
3307,6,1,107,5,0,0,1,552
3308,6,1,108,5,0,0,0,405
3309,6,1,109,2,0,0,1,791
3310,6,1,110,32,1,1,1,530
3311,6,1,111,32,1,1,1,558
3312,6,1,112,20,1,1,1,411
3313,6,1,113,2,1,1,1,949
3314,6,1,114,20,1,1,1,621
3315,6,1,115,2,1,1,1,616
3316,6,1,116,20,1,1,1,505
3317,6,1,117,20,0,0,1,838
3318,6,1,118,32,0,0,1,480
3319,6,1,119,10,1,1,1,513
3320,6,1,120,1,0,0,1,478
3321,6,1,121,2,0,0,1,555
3322,6,1,122,10,0,0,1,414
3323,6,1,123,5,0,0,1,411
3324,6,1,124,5,0,0,1,568
3325,6,1,125,32,1,1,1,571
3326,6,1,126,20,0,0,1,582
3327,6,1,127,5,1,1,1,584
3328,6,1,128,2,0,0,1,598
3329,6,1,129,32,1,1,1,435
3330,6,1,130,10,1,1,1,501
3331,6,1,131,20,1,1,1,461
3332,6,1,132,5,0,0,1,364
3333,6,1,133,5,1,1,1,511
3334,6,1,134,10,1,1,1,389
3335,6,1,135,20,1,1,1,335
3336,6,1,136,5,1,1,1,523
3337,6,1,137,2,1,1,1,375
3338,6,1,138,5,1,1,1,317
3339,6,1,139,2,1,1,1,441
3340,6,1,140,5,0,0,1,510
3341,6,1,141,20,1,1,1,896
3342,6,1,142,10,1,1,1,453
3343,6,1,143,1,1,1,1,417
3344,6,1,144,32,1,1,1,576
3345,6,1,145,20,1,1,1,620
3346,6,1,146,20,1,1,1,376
3347,6,1,147,10,1,1,1,373
3348,6,1,148,32,1,1,1,361
3349,6,1,149,20,1,1,1,486
3350,6,1,150,2,1,1,1,328
3351,6,1,151,10,0,0,1,484
3352,6,1,152,10,0,0,1,557
3353,6,1,153,2,1,1,1,459
3354,6,1,154,5,0,0,1,459
3355,6,1,155,5,1,1,1,404
3356,6,1,156,2,0,0,1,459
3357,6,1,157,20,0,0,1,455
3358,6,1,158,20,0,0,1,566
3359,6,1,159,20,1,1,1,403
3360,6,1,160,5,1,1,1,446
3361,6,1,161,2,0,0,1,535
3362,6,1,162,32,0,0,1,395
3363,6,1,163,5,1,1,1,445
3364,6,1,164,1,0,0,1,318
3365,6,1,165,32,0,0,1,389
3366,6,1,166,2,0,0,1,388
3367,6,1,167,32,1,1,1,487
3368,6,1,168,20,0,0,1,462
3369,6,1,169,5,0,0,1,567
3370,6,1,170,10,1,1,1,503
3371,6,1,171,1,1,1,1,511
3372,6,1,172,20,1,1,1,709
3373,6,1,173,5,1,1,1,420
3374,6,1,174,10,0,0,1,491
3375,6,1,175,32,1,1,1,454
3376,6,1,176,2,1,1,1,369
3377,6,1,177,5,0,0,1,428
3378,6,1,178,32,1,1,1,451
3379,6,1,179,2,0,0,1,401
3380,6,1,180,20,0,0,1,460
3381,6,1,181,20,0,0,1,521
3382,6,1,182,5,0,0,1,546
3383,6,1,183,32,0,0,1,384
3384,6,1,184,5,0,0,1,312
3385,6,1,185,5,0,0,1,382
3386,6,1,186,2,0,0,1,305
3387,6,1,187,10,0,0,1,553
3388,6,1,188,2,1,1,1,442
3389,6,1,189,32,1,1,1,501
3390,6,1,190,10,1,1,1,499
3391,6,1,191,32,1,1,1,520
3392,6,1,192,32,1,1,1,808
3393,6,1,193,20,0,0,1,829
3394,6,1,194,2,0,0,1,433
3395,6,1,195,32,1,1,1,443
3396,6,1,196,32,0,0,1,493
3397,6,1,197,5,1,1,1,515
3398,6,1,198,5,0,0,1,468
3399,6,1,199,5,1,1,1,443
3400,6,1,200,32,1,1,1,402
3401,6,1,201,2,1,1,1,618
3402,6,1,202,5,1,1,1,377
3403,6,1,203,32,0,0,1,477
3404,6,1,204,2,0,0,1,481
3405,6,1,205,2,0,0,1,495
3406,6,1,206,20,1,1,1,514
3407,6,1,207,2,0,0,1,531
3408,6,1,208,20,1,1,1,464
3409,6,1,209,10,1,1,1,776
3410,6,1,210,2,1,1,1,537
3411,6,1,211,10,1,1,1,557
3412,6,1,212,5,1,1,1,562
3413,6,1,213,2,0,0,1,466
3414,6,1,214,10,0,0,1,492
3415,6,1,215,10,1,1,1,575
3416,6,1,216,5,0,0,1,440
3417,6,1,217,2,0,0,1,456
3418,6,1,218,32,0,0,0,453
3419,6,1,219,32,0,0,1,633
3420,6,1,220,5,0,0,1,400
3421,6,1,221,10,0,0,1,675
3422,6,1,222,20,1,1,1,435
3423,6,1,223,10,1,1,1,462
3424,6,1,224,32,0,0,1,672
3425,6,1,225,20,1,1,1,1009
3426,6,1,226,32,1,1,1,1090
3427,6,1,227,1,1,1,1,762
3428,6,1,228,20,0,0,1,542
3429,6,1,229,1,0,0,1,416
3430,6,1,230,32,1,1,1,587
3431,6,1,231,20,0,0,1,388
3432,6,1,232,2,0,0,1,621
3433,6,1,233,2,0,0,1,490
3434,6,1,234,2,1,1,1,512
3435,6,1,235,5,0,0,1,501
3436,6,1,236,5,1,1,1,756
3437,6,1,237,5,0,0,1,621
3438,6,1,238,32,0,0,1,510
3439,6,1,239,20,1,1,1,492
3440,6,1,240,1,1,1,1,575
3441,6,1,241,20,1,1,1,967
3442,6,1,242,5,0,0,0,378
3443,6,1,243,2,1,1,1,432
3444,6,1,244,10,0,0,1,453
3445,6,1,245,10,0,0,1,481
3446,6,1,246,5,0,0,1,574
3447,6,1,247,20,0,0,1,516
3448,6,1,248,2,0,0,1,803
3449,6,1,249,2,1,1,1,1004
3450,6,1,250,2,0,0,1,438
3451,6,1,251,32,0,0,1,653
3452,6,1,252,10,0,0,1,555
3453,6,1,253,5,1,1,1,485
3454,6,1,254,2,1,1,1,413
3455,6,1,255,5,1,1,1,471
3456,6,1,256,32,1,1,0,377
3457,6,1,257,20,1,1,1,581
3458,6,1,258,20,0,0,1,521
3459,6,1,259,1,0,0,1,459
3460,6,1,260,5,0,0,1,577
3461,6,1,261,2,1,1,1,505
3462,6,1,262,5,0,0,1,497
3463,6,1,263,20,0,0,1,423
3464,6,1,264,32,1,1,1,466
3465,6,1,265,20,0,0,1,584
3466,6,1,266,20,0,0,1,457
3467,6,1,267,10,0,0,1,394
3468,6,1,268,20,1,1,1,425
3469,6,1,269,32,0,0,1,430
3470,6,1,270,32,0,0,1,420
3471,6,1,271,2,1,1,1,402
3472,6,1,272,20,0,0,1,388
3473,6,1,273,32,1,1,1,478
3474,6,1,274,2,0,0,1,430
3475,6,1,275,2,0,0,1,615
3476,6,1,276,2,0,0,1,586
3477,6,1,277,10,0,0,1,441
3478,6,1,278,20,1,1,1,452
3479,6,1,279,20,1,1,1,574
3480,6,1,280,10,1,1,1,736
3481,6,1,281,5,0,0,1,906
3482,6,1,282,20,1,1,1,393
3483,6,1,283,32,0,0,1,406
3484,6,1,284,20,1,1,1,405
3485,6,1,285,20,0,0,1,554
3486,6,1,286,32,0,0,1,416
3487,6,1,287,10,0,0,1,512
3488,6,1,288,32,1,1,1,776
3489,6,1,289,32,0,0,1,528
3490,6,1,290,20,0,0,1,439
3491,6,1,291,32,0,0,1,470
3492,6,1,292,2,0,0,0,567
3493,6,1,293,1,0,0,1,458
3494,6,1,294,5,0,0,1,596
3495,6,1,295,5,1,1,1,574
3496,6,1,296,32,1,1,1,640
3497,6,1,297,1,1,1,1,371
3498,6,1,298,20,0,0,1,391
3499,6,1,299,10,0,0,1,562
3500,6,1,300,5,0,0,1,507
3501,6,1,301,20,1,1,1,519
3502,6,1,302,32,0,0,1,491
3503,6,1,303,2,0,0,1,555
3504,6,1,304,32,0,0,1,416
3505,6,1,305,10,0,0,1,455
3506,6,1,306,10,0,0,1,606
3507,6,1,307,5,0,0,1,486
3508,6,1,308,5,0,0,1,430
3509,6,1,309,5,1,1,1,598
3510,6,1,310,2,0,0,1,511
3511,6,1,311,10,1,1,1,468
3512,6,1,312,5,0,0,1,521
3513,6,1,313,32,1,1,1,444
3514,6,1,314,2,0,0,1,481
3515,6,1,315,1,0,0,1,404
3516,6,1,316,5,1,1,1,501
3517,6,1,317,2,1,1,1,577
3518,6,1,318,1,0,0,1,442
3519,6,1,319,10,1,1,1,423
3520,6,1,320,10,1,1,1,574
3521,6,1,321,5,0,0,1,758
3522,6,1,322,2,1,1,1,435
3523,6,1,323,32,1,1,1,385
3524,6,1,324,5,0,0,1,524
3525,6,1,325,5,1,1,1,420
3526,6,1,326,2,1,1,1,386
3527,6,1,327,32,1,1,1,464
3528,6,1,328,20,1,1,1,419
3529,6,1,329,20,1,1,1,410
3530,6,1,330,32,0,0,1,481
3531,6,1,331,20,1,1,1,416
3532,6,1,332,20,1,1,1,743
3533,6,1,333,32,1,1,1,386
3534,6,1,334,2,1,1,1,419
3535,6,1,335,1,1,1,1,452
3536,6,1,336,32,0,0,1,456
3537,6,1,337,32,0,0,1,390
3538,6,1,338,20,0,0,1,493
3539,6,1,339,20,0,0,1,707
3540,6,1,340,32,0,0,1,787
3541,6,1,341,20,0,0,1,509
3542,6,1,342,32,1,1,1,453
3543,6,1,343,32,0,0,1,641
3544,6,1,344,20,1,1,1,403
3545,6,1,345,5,0,0,1,450
3546,6,1,346,32,0,0,1,420
3547,6,1,347,5,0,0,1,698
3548,6,1,348,2,0,0,1,460
3549,6,1,349,32,0,0,1,590
3550,6,1,350,2,0,0,1,446
3551,6,1,351,10,0,0,1,910
3552,6,1,352,5,1,1,1,369
3553,6,1,353,32,1,1,1,404
3554,6,1,354,10,1,1,1,419
3555,6,1,355,1,0,0,1,563
3556,6,1,356,2,0,0,1,387
3557,6,1,357,10,1,1,1,370
3558,6,1,358,10,1,1,1,402
3559,6,1,359,5,1,1,1,481
3560,6,1,360,1,0,0,1,480
3561,6,1,361,32,1,1,1,709
3562,6,1,362,2,1,1,1,574
3563,6,1,363,32,1,1,1,399
3564,6,1,364,32,1,1,1,486
3565,6,1,365,2,0,0,0,375
3566,6,1,366,10,0,0,1,378
3567,6,1,367,32,0,0,1,460
3568,6,1,368,10,1,1,1,388
3569,6,1,369,10,1,1,1,395
3570,6,1,370,20,0,0,1,512
3571,6,1,371,32,1,1,1,593
3572,6,1,372,5,1,1,1,423
3573,6,1,373,20,1,1,1,422
3574,6,1,374,10,0,0,1,478
3575,6,1,375,5,0,0,1,447
3576,6,1,376,1,0,0,1,674
3577,6,1,377,20,0,0,1,1268
3578,6,1,378,5,1,1,1,510
3579,6,1,379,20,0,0,1,401
3580,6,1,380,1,1,1,1,597
3581,6,1,381,1,1,1,1,629
3582,6,1,382,32,1,1,1,540
3583,6,1,383,20,0,0,1,475
3584,6,1,384,2,1,1,1,526
3585,6,1,385,5,1,1,1,567
3586,6,1,386,2,0,0,1,336
3587,6,1,387,20,0,0,1,477
3588,6,1,388,32,1,1,1,720
3589,6,1,389,5,1,1,1,589
3590,6,1,390,32,1,1,1,547
3591,6,1,391,1,1,1,1,788
3592,6,1,392,2,1,1,1,519
3593,6,1,393,32,0,0,1,866
3594,6,1,394,10,0,0,1,670
3595,6,1,395,20,1,1,1,443
3596,6,1,396,32,0,0,1,1317
3597,6,1,397,32,1,1,1,559
3598,6,1,398,2,1,1,1,609
3599,6,1,399,2,1,1,1,447
3600,6,1,400,20,1,1,1,513
3601,6,1,401,32,1,1,1,539
3602,6,1,402,5,1,1,1,474
3603,6,1,403,20,0,0,1,504
3604,6,1,404,10,0,0,1,471
3605,6,1,405,20,0,0,1,411
3606,6,1,406,2,0,0,0,451
3607,6,1,407,5,0,0,1,392
3608,6,1,408,5,0,0,1,445
3609,6,1,409,20,0,0,1,403
3610,6,1,410,32,1,1,1,529
3611,6,1,411,10,1,1,1,437
3612,6,1,412,20,0,0,1,442
3613,6,1,413,20,1,1,1,426
3614,6,1,414,1,1,1,1,516
3615,6,1,415,2,0,0,1,491
3616,6,1,416,20,0,0,1,487
3617,6,1,417,5,1,1,1,457
3618,6,1,418,10,1,1,1,437
3619,6,1,419,20,1,1,1,453
3620,6,1,420,20,1,1,1,458
3621,6,1,421,10,1,1,1,932
3622,6,1,422,32,1,1,1,834
3623,6,1,423,1,0,0,1,358
3624,6,1,424,32,0,0,1,477
3625,6,1,425,32,0,0,1,455
3626,6,1,426,5,1,1,1,540
3627,6,1,427,32,1,1,1,477
3628,6,1,428,5,0,0,1,458
3629,6,1,429,1,1,1,1,443
3630,6,1,430,1,0,0,1,373
3631,6,1,431,5,1,1,1,425
3632,6,1,432,2,1,1,1,774
3633,6,1,433,32,1,1,1,451
3634,6,1,434,10,0,0,1,508
3635,6,1,435,2,0,0,1,627
3636,6,1,436,2,1,1,1,384
3637,6,1,437,32,0,0,1,394
3638,6,1,438,1,0,0,1,422
3639,6,1,439,20,1,1,0,412
3640,6,1,440,2,1,1,1,564
3641,6,1,441,5,1,1,1,525
3642,6,1,442,32,0,0,1,553
3643,6,1,443,5,0,0,1,451
3644,6,1,444,10,0,0,1,421
3645,6,1,445,32,0,0,1,674
3646,6,1,446,5,0,0,0,381
3647,6,1,447,10,0,0,1,494
3648,6,1,448,32,0,0,1,947
3649,6,1,449,5,0,0,1,530
3650,6,1,450,20,1,1,1,585
3651,6,1,451,10,0,0,1,383
3652,6,1,452,10,1,1,0,527
3653,6,1,453,2,0,0,1,552
3654,6,1,454,20,0,0,1,420
3655,6,1,455,32,1,1,1,449
3656,6,1,456,10,1,1,1,406
3657,6,1,457,32,1,1,1,592
3658,6,1,458,20,0,0,1,607
3659,6,1,459,5,1,1,1,459
3660,6,1,460,20,0,0,1,651
3661,6,1,461,5,1,1,1,1002
3662,6,1,462,32,0,0,1,885
3663,6,1,463,2,0,0,1,651
3664,6,1,464,10,1,1,1,730
3665,6,1,465,20,0,0,1,710
3666,6,1,466,10,0,0,1,480
3667,6,1,467,10,0,0,1,474
3668,6,1,468,5,0,0,1,471
3669,6,1,469,5,0,0,1,511
3670,6,1,470,10,1,1,1,1142
3671,6,1,471,10,1,1,1,763
3672,6,1,472,2,1,1,1,1228
3673,6,1,473,10,0,0,1,946
3674,6,1,474,5,1,1,0,610
3675,6,1,475,10,0,0,1,1415
3676,6,1,476,20,0,0,1,498
3677,6,1,477,32,0,0,1,771
3678,6,1,478,5,1,1,1,438
3679,6,1,479,20,0,0,1,515
3680,6,1,480,20,0,0,1,1321
3681,6,1,481,1,0,0,1,820
3682,6,1,482,10,1,1,1,406
3683,6,1,483,1,0,0,1,455
3684,6,1,484,20,1,1,0,423
3685,6,1,485,10,0,0,1,645
3686,6,1,486,10,1,1,1,454
3687,6,1,487,10,0,0,1,397
3688,6,1,488,10,0,0,1,443
3689,6,1,489,5,0,0,1,548
3690,6,1,490,2,1,1,1,447
3691,6,1,491,32,0,0,1,703
3692,6,1,492,2,0,0,1,777
3693,6,1,493,20,1,1,1,427
3694,6,1,494,5,0,0,1,668
3695,6,1,495,10,0,0,1,1011
3696,6,1,496,10,0,0,1,1047
3697,6,1,497,5,0,0,1,503
3698,6,1,498,10,1,1,1,437
3699,6,1,499,32,0,0,1,459
3700,6,1,500,2,1,1,0,496
3701,6,1,501,2,1,1,1,512
3702,6,1,502,5,0,0,1,373
3703,6,1,503,20,1,1,1,274
3704,6,1,504,10,1,1,1,426
3705,6,1,505,2,0,0,1,534
3706,6,1,506,20,1,1,1,394
3707,6,1,507,20,0,0,1,693
3708,6,1,508,10,0,0,1,589
3709,6,1,509,2,0,0,1,487
3710,6,1,510,32,1,1,1,487
3711,6,1,511,5,1,1,1,419
3712,6,1,512,5,0,0,1,491
3713,6,1,513,32,1,1,1,461
3714,6,1,514,5,1,1,1,516
3715,6,1,515,20,0,0,1,398
3716,6,1,516,10,0,0,1,487
3717,6,1,517,10,0,0,1,469
3718,6,1,518,10,1,1,1,476
3719,6,1,519,1,1,1,1,529
3720,6,1,520,2,1,1,1,492
3721,6,1,521,5,1,1,1,1272
3722,6,1,522,5,0,0,1,422
3723,6,1,523,20,0,0,1,379
3724,6,1,524,20,1,1,1,382
3725,6,1,525,10,1,1,1,465
3726,6,1,526,32,0,0,1,471
3727,6,1,527,20,1,1,1,346
3728,6,1,528,32,1,1,1,446
3729,6,1,529,2,0,0,1,481
3730,6,1,530,20,0,0,1,774
3731,6,1,531,1,0,0,1,585
3732,6,1,532,20,0,0,1,582
3733,6,1,533,20,1,1,1,449
3734,6,1,534,2,1,1,1,497
3735,6,1,535,10,0,0,1,521
3736,6,1,536,5,1,1,1,468
3737,6,1,537,10,0,0,0,438
3738,6,1,538,32,0,0,1,437
3739,6,1,539,2,1,1,1,1030
3740,6,1,540,20,1,1,1,432
3741,6,1,541,10,1,1,1,455
3742,6,1,542,2,0,0,1,548
3743,6,1,543,20,0,0,1,430
3744,6,1,544,5,1,1,1,430
3745,6,1,545,2,1,1,1,620
3746,6,1,546,2,0,0,1,409
3747,6,1,547,5,0,0,1,524
3748,6,1,548,5,0,0,1,453
3749,6,1,549,5,1,1,1,485
3750,6,1,550,2,1,1,0,428
3751,6,1,551,20,0,0,1,553
3752,6,1,552,2,0,0,1,485
3753,6,1,553,1,1,1,1,436
3754,6,1,554,32,1,1,1,744
3755,6,1,555,32,0,0,1,951
3756,6,1,556,10,1,1,1,442
3757,6,1,557,20,1,1,1,413
3758,6,1,558,20,1,1,1,679
3759,6,1,559,10,1,1,1,344
3760,6,1,560,5,0,0,1,799
3761,6,1,561,5,1,1,1,447
3762,6,1,562,10,1,1,1,464
3763,6,1,563,5,0,0,1,501
3764,6,1,564,5,0,0,1,605
3765,6,1,565,5,1,1,1,500
3766,6,1,566,2,0,0,0,1121
3767,6,1,567,32,1,1,1,1634
3768,6,1,568,10,1,1,1,451
3769,6,1,569,2,1,1,1,573
3770,6,1,570,20,1,1,1,466
3771,6,1,571,1,0,0,1,430
3772,6,1,572,20,1,1,1,744
3773,6,1,573,5,1,1,1,398
3774,6,1,574,32,1,1,1,393
3775,6,1,575,20,1,1,1,521
3776,6,1,576,20,0,0,0,337
3777,6,1,577,2,0,0,1,609
3778,6,1,578,5,0,0,1,337
3779,6,1,579,10,1,1,1,529
3780,6,1,580,10,0,0,1,687
3781,6,1,581,2,1,1,1,414
3782,6,1,582,32,0,0,1,497
3783,6,1,583,10,0,0,1,481
3784,6,1,584,1,1,1,1,412
3785,6,1,585,5,1,1,1,447
3786,6,1,586,32,1,1,1,560
3787,6,1,587,5,1,1,1,498
3788,6,1,588,5,0,0,1,513
3789,6,1,589,5,1,1,1,478
3790,6,1,590,10,0,0,1,439
3791,6,1,591,5,1,1,1,374
3792,6,1,592,20,1,1,1,439
3793,6,1,593,20,0,0,1,602
3794,6,1,594,5,1,1,1,423
3795,6,1,595,20,0,0,1,467
3796,6,1,596,10,0,0,1,621
3797,6,1,597,10,0,0,0,448
3798,6,1,598,2,0,0,1,373
3799,6,1,599,2,1,1,1,518
3800,6,1,600,32,0,0,1,507
3801,6,1,601,10,1,1,1,453
3802,6,1,602,5,0,0,1,645
3803,6,1,603,5,1,1,1,474
3804,6,1,604,10,1,1,1,426
3805,6,1,605,5,1,1,1,424
3806,6,1,606,10,0,0,1,710
3807,6,1,607,20,1,1,1,437
3808,6,1,608,20,1,1,1,579
3809,6,1,609,32,1,1,1,409
3810,6,1,610,10,1,1,1,621
3811,6,1,611,2,1,1,1,475
3812,6,1,612,2,0,0,1,664
3813,6,1,613,10,0,0,1,513
3814,6,1,614,2,1,1,1,597
3815,6,1,615,1,1,1,1,947
3816,6,1,616,32,1,1,1,500
3817,6,1,617,10,0,0,1,472
3818,6,1,618,2,1,1,1,448
3819,6,1,619,10,1,1,1,448
3820,6,1,620,2,1,1,1,453
3821,6,1,621,20,1,1,1,447
3822,6,1,622,32,0,0,1,705
3823,6,1,623,2,0,0,1,796
3824,6,1,624,10,1,1,1,432
3825,6,1,625,32,0,0,0,369
3826,6,1,626,2,0,0,1,506
3827,6,1,627,32,0,0,1,468
3828,6,1,628,20,0,0,1,901
3829,6,1,629,2,1,1,1,432
3830,6,1,630,10,0,0,1,1269
3831,6,1,631,32,1,1,1,432
3832,6,1,632,32,0,0,1,882
3833,6,1,633,1,0,0,1,912
3834,6,1,634,32,0,0,1,486
3835,6,1,635,10,1,1,1,527
3836,6,1,636,20,1,1,1,613
3837,6,1,637,10,0,0,1,604
3838,6,1,638,2,1,1,1,527
3839,6,1,639,2,1,1,1,559
3840,6,1,640,2,0,0,1,427
3841,7,1,1,20,1,1,1,631
3842,7,1,2,10,0,0,1,542
3843,7,1,3,5,0,0,1,443
3844,7,1,4,32,1,1,1,519
3845,7,1,5,10,0,0,1,526
3846,7,1,6,2,1,1,1,489
3847,7,1,7,1,1,1,1,365
3848,7,1,8,2,0,0,1,412
3849,7,1,9,32,0,0,1,510
3850,7,1,10,10,0,0,1,683
3851,7,1,11,2,1,1,1,415
3852,7,1,12,20,1,1,1,610
3853,7,1,13,32,1,1,1,436
3854,7,1,14,20,0,0,1,586
3855,7,1,15,32,0,0,1,593
3856,7,1,16,10,1,1,1,413
3857,7,1,17,1,1,1,1,407
3858,7,1,18,32,0,0,1,570
3859,7,1,19,20,1,1,1,586
3860,7,1,20,5,1,1,1,460
3861,7,1,21,20,0,0,1,596
3862,7,1,22,20,0,0,1,428
3863,7,1,23,32,0,0,1,498
3864,7,1,24,20,1,1,1,508
3865,7,1,25,2,1,1,1,495
3866,7,1,26,20,1,1,1,473
3867,7,1,27,10,0,0,1,416
3868,7,1,28,10,1,1,1,497
3869,7,1,29,10,0,0,1,543
3870,7,1,30,5,1,1,1,314
3871,7,1,31,20,1,1,1,500
3872,7,1,32,10,1,1,1,515
3873,7,1,33,1,0,0,1,315
3874,7,1,34,20,0,0,1,510
3875,7,1,35,5,1,1,1,306
3876,7,1,36,2,0,0,1,416
3877,7,1,37,2,0,0,1,365
3878,7,1,38,10,1,1,1,521
3879,7,1,39,2,1,1,1,504
3880,7,1,40,2,0,0,1,379
3881,7,1,41,32,0,0,1,631
3882,7,1,42,2,0,0,1,495
3883,7,1,43,20,0,0,1,535
3884,7,1,44,10,1,1,1,452
3885,7,1,45,10,1,1,1,422
3886,7,1,46,2,1,1,1,422
3887,7,1,47,5,0,0,1,527
3888,7,1,48,2,0,0,1,361
3889,7,1,49,5,1,1,1,437
3890,7,1,50,20,0,0,1,643
3891,7,1,51,20,0,0,1,473
3892,7,1,52,10,0,0,1,442
3893,7,1,53,20,1,1,1,558
3894,7,1,54,32,1,1,1,561
3895,7,1,55,10,1,1,1,570
3896,7,1,56,5,1,1,1,454
3897,7,1,57,5,0,0,1,452
3898,7,1,58,10,1,1,1,535
3899,7,1,59,20,0,0,1,453
3900,7,1,60,20,1,1,1,499
3901,7,1,61,20,1,1,1,773
3902,7,1,62,5,0,0,1,520
3903,7,1,63,2,1,1,1,422
3904,7,1,64,32,0,0,1,481
3905,7,1,65,10,0,0,1,619
3906,7,1,66,10,1,1,1,491
3907,7,1,67,5,1,1,1,568
3908,7,1,68,10,0,0,1,621
3909,7,1,69,32,0,0,1,509
3910,7,1,70,5,1,1,1,475
3911,7,1,71,20,1,1,1,799
3912,7,1,72,32,0,0,1,414
3913,7,1,73,20,1,1,1,458
3914,7,1,74,1,0,0,1,490
3915,7,1,75,20,1,1,1,536
3916,7,1,76,20,0,0,1,586
3917,7,1,77,2,0,0,1,563
3918,7,1,78,5,1,1,1,422
3919,7,1,79,5,1,1,1,869
3920,7,1,80,20,0,0,1,473
3921,7,1,81,32,0,0,1,508
3922,7,1,82,32,1,1,1,511
3923,7,1,83,5,0,0,1,549
3924,7,1,84,20,0,0,1,523
3925,7,1,85,10,1,1,1,355
3926,7,1,86,2,0,0,1,539
3927,7,1,87,32,1,1,1,454
3928,7,1,88,5,1,1,1,449
3929,7,1,89,10,0,0,1,443
3930,7,1,90,32,1,1,1,470
3931,7,1,91,32,0,0,1,535
3932,7,1,92,1,0,0,1,391
3933,7,1,93,5,0,0,1,394
3934,7,1,94,10,1,1,1,442
3935,7,1,95,2,0,0,1,321
3936,7,1,96,32,0,0,1,426
3937,7,1,97,20,0,0,1,487
3938,7,1,98,5,0,0,1,484
3939,7,1,99,5,0,0,1,395
3940,7,1,100,2,0,0,1,391
3941,7,1,101,20,1,1,1,525
3942,7,1,102,20,1,1,1,478
3943,7,1,103,20,0,0,1,505
3944,7,1,104,2,1,1,1,389
3945,7,1,105,32,0,0,1,429
3946,7,1,106,20,1,1,1,835
3947,7,1,107,10,0,0,1,581
3948,7,1,108,5,0,0,1,648
3949,7,1,109,5,0,0,1,493
3950,7,1,110,10,0,0,1,518
3951,7,1,111,1,1,1,1,410
3952,7,1,112,5,0,0,1,477
3953,7,1,113,2,1,1,1,329
3954,7,1,114,5,0,0,1,509
3955,7,1,115,10,1,1,1,355
3956,7,1,116,10,0,0,1,386
3957,7,1,117,32,0,0,1,450
3958,7,1,118,1,1,1,1,290
3959,7,1,119,5,0,0,1,470
3960,7,1,120,32,0,0,1,467
3961,7,1,121,10,0,0,1,483
3962,7,1,122,5,1,1,1,549
3963,7,1,123,20,1,1,1,506
3964,7,1,124,1,0,0,1,317
3965,7,1,125,2,1,1,1,394
3966,7,1,126,2,0,0,1,472
3967,7,1,127,2,1,1,1,523
3968,7,1,128,10,0,0,1,457
3969,7,1,129,32,1,1,1,665
