trial_id,Subject,block_n,Trial,set_size,correctResponse,resp,acc,RT
1,1,1,1,32,1,1,1,695
2,1,1,2,1,0,0,1,420
3,1,1,3,20,1,1,1,429
4,1,1,4,5,0,0,1,381
5,1,1,5,32,1,1,1,387
6,1,1,6,5,0,0,1,346
7,1,1,7,2,0,0,1,466
8,1,1,8,32,0,0,1,408
9,1,1,9,10,0,0,1,547
10,1,1,10,1,0,0,1,566
11,1,1,11,32,0,0,1,464
12,1,1,12,2,1,1,1,420
13,1,1,13,2,0,0,1,383
14,1,1,14,32,1,1,1,648
15,1,1,15,20,1,1,1,648
16,1,1,16,10,1,1,1,464
17,1,1,17,20,1,1,1,433
18,1,1,18,10,0,0,1,367
19,1,1,19,10,0,0,1,504
20,1,1,20,10,1,1,1,524
21,1,1,21,32,0,0,1,368
22,1,1,22,10,0,0,1,724
23,1,1,23,5,0,0,1,520
24,1,1,24,20,1,1,1,564
25,1,1,25,2,0,0,1,405
26,1,1,26,32,0,0,1,431
27,1,1,27,32,1,1,1,553
28,1,1,28,2,0,0,1,546
29,1,1,29,5,0,0,1,483
30,1,1,30,10,1,1,1,506
31,1,1,31,32,0,0,1,580
32,1,1,32,2,0,0,1,627
33,1,1,33,5,1,1,1,432
34,1,1,34,5,0,0,1,529
35,1,1,35,5,0,0,1,500
36,1,1,36,20,0,0,1,543
37,1,1,37,10,1,1,1,462
38,1,1,38,20,0,0,1,507
39,1,1,39,32,0,0,1,445
40,1,1,40,5,1,1,1,428
41,1,1,41,10,0,0,1,428
42,1,1,42,20,1,1,1,655
43,1,1,43,2,0,0,1,427
44,1,1,44,5,0,0,1,551
45,1,1,45,10,1,1,1,729
46,1,1,46,32,0,0,1,539
47,1,1,47,10,1,1,1,459
48,1,1,48,10,1,1,1,639
49,1,1,49,32,0,0,1,524
50,1,1,50,20,1,1,1,458
51,1,1,51,20,1,1,1,435
52,1,1,52,2,0,0,1,414
53,1,1,53,10,1,1,1,546
54,1,1,54,2,0,0,1,464
55,1,1,55,5,0,0,1,471
56,1,1,56,2,1,1,1,467
57,1,1,57,20,1,1,1,626
58,1,1,58,5,1,1,1,1013
59,1,1,59,32,1,1,1,693
60,1,1,60,10,0,0,1,533
61,1,1,61,32,0,0,1,550
62,1,1,62,32,0,0,1,737
63,1,1,63,20,0,0,1,867
64,1,1,64,10,1,1,1,647
65,1,1,65,5,1,1,1,518
66,1,1,66,20,0,0,1,650
67,1,1,67,1,0,0,1,515
68,1,1,68,20,1,1,1,653
69,1,1,69,32,1,1,1,717
70,1,1,70,32,0,0,1,768
71,1,1,71,20,1,1,1,478
72,1,1,72,32,1,1,1,826
73,1,1,73,2,0,0,1,453
74,1,1,74,2,1,1,1,467
75,1,1,75,20,0,0,1,451
76,1,1,76,5,1,1,1,525
77,1,1,77,20,0,0,1,540
78,1,1,78,32,1,1,1,546
79,1,1,79,2,0,0,1,517
80,1,1,80,10,0,0,1,589
81,1,1,81,10,0,0,1,586
82,1,1,82,1,0,0,1,415
83,1,1,83,5,1,1,1,403
84,1,1,84,10,0,0,1,410
85,1,1,85,2,0,0,1,659
86,1,1,86,20,0,0,1,689
87,1,1,87,10,0,0,1,698
88,1,1,88,5,0,0,1,608
89,1,1,89,20,1,1,1,648
90,1,1,90,20,0,0,1,911
91,1,1,91,32,1,1,1,803
92,1,1,92,32,1,1,1,612
93,1,1,93,20,0,0,1,746
94,1,1,94,10,0,0,1,674
95,1,1,95,2,0,0,1,663
96,1,1,96,20,0,0,1,572
97,1,1,97,10,0,0,1,466
98,1,1,98,2,0,0,1,621
99,1,1,99,2,1,1,1,594
100,1,1,100,10,0,0,1,531
101,1,1,101,2,1,1,1,644
102,1,1,102,5,0,0,1,504
103,1,1,103,2,1,1,1,609
104,1,1,104,32,1,1,1,573
105,1,1,105,2,1,1,1,457
106,1,1,106,5,1,1,1,573
107,1,1,107,20,0,0,1,693
108,1,1,108,2,0,0,1,607
109,1,1,109,20,0,0,1,548
110,1,1,110,5,1,1,1,552
111,1,1,111,5,1,1,1,501
112,1,1,112,1,0,0,1,455
113,1,1,113,5,0,0,1,879
114,1,1,114,32,1,1,1,456
115,1,1,115,20,0,0,1,531
116,1,1,116,1,0,0,1,488
117,1,1,117,32,1,1,1,708
118,1,1,118,2,1,1,1,601
119,1,1,119,5,1,1,1,485
120,1,1,120,5,0,0,1,499
121,1,1,121,2,1,1,1,638
122,1,1,122,10,0,0,1,531
123,1,1,123,32,1,1,1,850
124,1,1,124,2,0,0,1,523
125,1,1,125,1,0,0,1,569
126,1,1,126,10,1,1,1,670
127,1,1,127,10,0,0,1,460
128,1,1,128,10,0,0,1,525
129,1,1,129,2,1,1,1,465
130,1,1,130,10,0,0,1,779
131,1,1,131,5,0,0,1,741
132,1,1,132,2,1,1,1,785
133,1,1,133,10,0,0,1,724
134,1,1,134,5,1,1,1,501
135,1,1,135,2,0,0,1,502
136,1,1,136,2,1,1,1,551
137,1,1,137,2,1,1,1,622
138,1,1,138,10,0,0,1,556
139,1,1,139,2,0,0,1,522
140,1,1,140,20,1,1,1,573
141,1,1,141,5,1,1,1,487
142,1,1,142,20,0,0,1,595
143,1,1,143,5,1,1,1,522
144,1,1,144,5,1,1,1,432
145,1,1,145,10,0,0,1,645
146,1,1,146,32,1,1,1,470
147,1,1,147,10,1,1,1,758
148,1,1,148,2,0,0,1,635
149,1,1,149,10,1,1,1,549
150,1,1,150,20,1,1,1,1051
151,1,1,151,10,1,1,1,493
152,1,1,152,5,0,0,1,413
153,1,1,153,2,0,0,1,495
154,1,1,154,20,1,1,1,622
155,1,1,155,10,0,0,1,513
156,1,1,156,32,1,1,1,533
157,1,1,157,10,0,0,1,790
158,1,1,158,10,0,0,1,806
159,1,1,159,1,0,0,1,569
160,1,1,160,2,1,1,1,540
161,1,1,161,10,0,0,1,628
162,1,1,162,5,0,0,1,477
163,1,1,163,2,0,0,1,602
164,1,1,164,10,0,0,1,512
165,1,1,165,20,0,0,1,465
166,1,1,166,20,0,0,1,351
167,1,1,167,20,1,1,1,653
168,1,1,168,10,1,1,1,569
169,1,1,169,20,0,0,1,401
170,1,1,170,10,0,0,1,583
171,1,1,171,10,1,1,1,832
172,1,1,172,32,0,0,1,574
173,1,1,173,1,0,0,1,440
174,1,1,174,2,0,0,1,544
175,1,1,175,32,1,1,1,620
176,1,1,176,32,0,0,1,675
177,1,1,177,5,0,0,1,484
178,1,1,178,20,1,1,1,469
179,1,1,179,5,0,0,1,594
180,1,1,180,20,0,0,1,659
181,1,1,181,10,0,0,1,520
182,1,1,182,5,1,1,1,535
183,1,1,183,2,0,0,1,488
184,1,1,184,20,1,1,0,473
185,1,1,185,2,0,0,1,657
186,1,1,186,32,0,0,1,498
187,1,1,187,10,1,1,1,745
188,1,1,188,20,0,0,1,763
189,1,1,189,1,1,1,1,678
190,1,1,190,20,1,1,1,493
191,1,1,191,2,1,1,1,650
192,1,1,192,20,0,0,1,796
193,1,1,193,20,0,0,1,532
194,1,1,194,20,1,1,1,493
195,1,1,195,20,0,0,1,571
196,1,1,196,20,1,1,1,511
197,1,1,197,32,1,1,1,506
198,1,1,198,10,1,1,1,481
199,1,1,199,32,0,0,1,510
200,1,1,200,1,0,0,1,438
201,1,1,201,1,1,1,1,550
202,1,1,202,5,1,1,1,533
203,1,1,203,32,1,1,1,562
204,1,1,204,2,1,1,1,534
205,1,1,205,32,0,0,1,648
206,1,1,206,32,0,0,1,448
207,1,1,207,20,0,0,1,558
208,1,1,208,2,0,0,1,494
209,1,1,209,2,0,0,1,482
210,1,1,210,10,1,1,0,915
211,1,1,211,20,0,0,1,572
212,1,1,212,2,1,1,1,518
213,1,1,213,5,1,1,1,646
214,1,1,214,32,1,1,1,543
215,1,1,215,5,0,0,1,463
216,1,1,216,20,0,0,1,590
217,1,1,217,5,1,1,1,472
218,1,1,218,2,1,1,1,481
219,1,1,219,2,0,0,1,614
220,1,1,220,5,1,1,1,574
221,1,1,221,5,0,0,1,779
222,1,1,222,10,1,1,1,689
223,1,1,223,2,0,0,1,558
224,1,1,224,32,0,0,1,603
225,1,1,225,10,0,0,1,867
226,1,1,226,20,1,1,1,632
227,1,1,227,10,0,0,1,750
228,1,1,228,5,1,1,1,863
229,1,1,229,1,1,1,1,463
230,1,1,230,2,1,1,1,1028
231,1,1,231,10,0,0,1,936
232,1,1,232,10,1,1,1,629
233,1,1,233,2,0,0,1,670
234,1,1,234,32,0,0,1,825
235,1,1,235,10,1,1,1,632
236,1,1,236,2,1,1,1,730
237,1,1,237,5,1,1,1,475
238,1,1,238,10,1,1,1,568
239,1,1,239,1,1,1,1,559
240,1,1,240,10,1,1,1,493
241,1,1,241,20,1,1,1,582
242,1,1,242,5,1,1,1,482
243,1,1,243,20,0,0,1,776
244,1,1,244,2,0,0,1,407
245,1,1,245,10,0,0,1,560
246,1,1,246,20,1,1,1,595
247,1,1,247,2,1,1,1,905
248,1,1,248,32,0,0,1,606
249,1,1,249,1,1,1,1,468
250,1,1,250,20,0,0,1,851
251,1,1,251,1,1,1,1,490
252,1,1,252,2,1,1,1,608
253,1,1,253,10,1,1,1,513
254,1,1,254,20,1,1,1,597
255,1,1,255,10,1,1,1,786
256,1,1,256,20,0,0,1,718
257,1,1,257,2,0,0,1,654
258,1,1,258,32,1,1,1,628
259,1,1,259,20,1,1,1,649
260,1,1,260,1,1,1,1,553
261,1,1,261,32,0,0,1,760
262,1,1,262,20,0,0,1,522
263,1,1,263,10,1,1,1,656
264,1,1,264,2,1,1,1,521
265,1,1,265,20,1,1,1,578
266,1,1,266,2,1,1,1,531
267,1,1,267,20,1,1,1,755
268,1,1,268,20,1,1,1,456
269,1,1,269,32,1,1,1,2894
270,1,1,270,5,1,1,1,712
271,1,1,271,5,1,1,1,468
272,1,1,272,2,1,1,1,534
273,1,1,273,5,1,1,1,775
274,1,1,274,5,0,0,1,525
275,1,1,275,1,0,0,1,472
276,1,1,276,20,1,1,1,497
277,1,1,277,10,0,0,1,422
278,1,1,278,20,1,1,1,621
279,1,1,279,20,1,1,1,571
280,1,1,280,5,0,0,1,625
281,1,1,281,32,0,0,1,539
282,1,1,282,32,0,0,1,687
283,1,1,283,10,1,1,1,634
284,1,1,284,2,1,1,1,548
285,1,1,285,32,0,0,1,543
286,1,1,286,32,0,0,1,603
287,1,1,287,5,1,1,1,517
288,1,1,288,32,1,1,1,821
289,1,1,289,1,1,1,1,470
290,1,1,290,2,1,1,1,580
291,1,1,291,20,0,0,1,781
292,1,1,292,10,0,0,1,617
293,1,1,293,32,1,1,1,626
294,1,1,294,32,0,0,1,465
295,1,1,295,10,1,1,1,487
296,1,1,296,5,0,0,1,450
297,1,1,297,5,0,0,1,599
298,1,1,298,10,1,1,1,566
299,1,1,299,20,1,1,1,447
300,1,1,300,32,1,1,1,612
301,1,1,301,20,1,1,1,543
302,1,1,302,1,0,0,1,497
303,1,1,303,32,1,1,1,1230
304,1,1,304,10,1,1,1,579
305,1,1,305,2,1,1,1,453
306,1,1,306,10,1,1,1,422
307,1,1,307,32,0,0,1,518
308,1,1,308,5,1,1,1,504
309,1,1,309,32,1,1,1,440
310,1,1,310,2,0,0,1,700
311,1,1,311,10,0,0,1,593
312,1,1,312,5,0,0,1,643
313,1,1,313,10,0,0,1,598
314,1,1,314,32,1,1,1,614
315,1,1,315,10,1,1,1,584
316,1,1,316,2,1,1,1,668
317,1,1,317,2,1,1,1,502
318,1,1,318,20,0,0,1,450
319,1,1,319,10,0,0,1,680
320,1,1,320,5,0,0,1,677
321,1,1,321,5,1,1,1,720
322,1,1,322,10,0,0,1,1035
323,1,1,323,32,1,1,1,783
324,1,1,324,5,1,1,1,967
325,1,1,325,32,0,0,1,706
326,1,1,326,5,1,1,1,973
327,1,1,327,20,1,1,1,668
328,1,1,328,20,0,0,1,554
329,1,1,329,20,1,1,1,479
330,1,1,330,5,0,0,1,671
331,1,1,331,20,1,1,1,613
332,1,1,332,5,0,0,1,890
333,1,1,333,20,0,0,1,569
334,1,1,334,32,0,0,1,636
335,1,1,335,20,1,1,1,725
336,1,1,336,32,0,0,1,620
337,1,1,337,5,0,0,1,458
338,1,1,338,10,1,1,1,682
339,1,1,339,5,1,1,1,509
340,1,1,340,2,1,1,1,445
341,1,1,341,2,1,1,1,429
342,1,1,342,1,1,1,1,449
343,1,1,343,10,1,1,1,550
344,1,1,344,32,0,0,1,931
345,1,1,345,10,1,1,1,531
346,1,1,346,32,0,0,1,425
347,1,1,347,5,1,1,1,616
348,1,1,348,32,0,0,1,764
349,1,1,349,20,0,0,1,604
350,1,1,350,10,1,1,1,725
351,1,1,351,5,1,1,1,642
352,1,1,352,20,1,1,1,575
353,1,1,353,32,1,1,1,522
354,1,1,354,2,1,1,1,617
355,1,1,355,5,0,0,1,953
356,1,1,356,5,0,0,1,679
357,1,1,357,2,0,0,1,655
358,1,1,358,20,0,0,1,494
359,1,1,359,5,0,0,1,565
360,1,1,360,32,1,1,1,926
361,1,1,361,5,0,0,1,615
362,1,1,362,32,0,0,1,907
363,1,1,363,2,0,0,1,581
364,1,1,364,32,1,1,1,598
365,1,1,365,10,1,1,1,681
366,1,1,366,20,1,1,1,541
367,1,1,367,20,0,0,1,651
368,1,1,368,1,0,0,1,594
369,1,1,369,2,0,0,1,589
370,1,1,370,5,1,1,1,699
371,1,1,371,1,1,1,1,619
372,1,1,372,20,1,1,1,677
373,1,1,373,5,0,0,1,572
374,1,1,374,10,1,1,1,624
375,1,1,375,2,1,1,1,673
376,1,1,376,20,0,0,1,558
377,1,1,377,1,1,1,1,658
378,1,1,378,2,0,0,1,575
379,1,1,379,5,0,0,1,408
380,1,1,380,32,1,1,1,637
381,1,1,381,5,1,1,1,500
382,1,1,382,32,1,1,1,506
383,1,1,383,2,0,0,1,634
384,1,1,384,32,0,0,1,734
385,1,1,385,2,1,1,1,520
386,1,1,386,5,0,0,1,708
387,1,1,387,20,1,1,1,527
388,1,1,388,20,1,1,1,478
389,1,1,389,10,0,0,1,566
390,1,1,390,5,0,0,1,643
391,1,1,391,10,0,0,1,556
392,1,1,392,2,0,0,1,992
393,1,1,393,5,1,1,1,599
394,1,1,394,32,1,1,1,689
395,1,1,395,5,0,0,1,539
396,1,1,396,1,0,0,1,519
397,1,1,397,32,0,0,1,579
398,1,1,398,32,1,1,1,763
399,1,1,399,32,1,1,1,833
400,1,1,400,2,0,0,1,565
401,1,1,401,32,1,1,1,781
402,1,1,402,20,0,0,1,655
403,1,1,403,20,1,1,1,615
404,1,1,404,5,0,0,1,619
405,1,1,405,32,1,1,1,768
406,1,1,406,5,0,0,1,665
407,1,1,407,5,1,1,1,601
408,1,1,408,20,1,1,1,599
409,1,1,409,2,0,0,1,564
410,1,1,410,2,0,0,1,609
411,1,1,411,2,1,1,1,668
412,1,1,412,2,1,1,1,612
413,1,1,413,2,1,1,1,776
414,1,1,414,32,0,0,1,573
415,1,1,415,10,1,1,1,517
416,1,1,416,1,1,1,1,542
417,1,1,417,5,1,1,1,729
418,1,1,418,2,1,1,1,729
419,1,1,419,5,1,1,1,860
420,1,1,420,5,1,1,1,472
421,1,1,421,2,1,1,1,547
422,1,1,422,20,1,1,1,531
423,1,1,423,32,1,1,1,778
424,1,1,424,32,0,0,1,765
425,1,1,425,10,0,0,1,731
426,1,1,426,32,0,0,1,913
427,1,1,427,10,1,1,1,731
428,1,1,428,10,0,0,1,663
429,1,1,429,2,1,1,1,540
430,1,1,430,10,0,0,1,736
431,1,1,431,1,0,0,1,706
432,1,1,432,2,0,0,1,526
433,1,1,433,2,0,0,1,434
434,1,1,434,1,1,1,1,597
435,1,1,435,2,1,1,1,662
436,1,1,436,2,1,1,1,699
437,1,1,437,5,0,0,1,583
438,1,1,438,10,1,1,1,495
439,1,1,439,5,0,0,1,569
440,1,1,440,2,1,1,1,797
441,1,1,441,20,0,0,1,1161
442,1,1,442,2,0,0,1,494
443,1,1,443,32,1,1,1,564
444,1,1,444,32,0,0,1,460
445,1,1,445,5,0,0,1,468
446,1,1,446,5,1,1,1,615
447,1,1,447,32,0,0,1,528
448,1,1,448,10,1,1,1,556
449,1,1,449,2,0,0,1,350
450,1,1,450,10,0,0,1,664
451,1,1,451,10,1,1,1,882
452,1,1,452,10,1,1,1,575
453,1,1,453,32,0,0,1,598
454,1,1,454,5,0,0,1,680
455,1,1,455,2,1,1,1,636
456,1,1,456,1,1,1,1,682
457,1,1,457,2,0,0,1,582
458,1,1,458,10,1,1,1,704
459,1,1,459,1,0,0,1,556
460,1,1,460,1,1,1,1,500
461,1,1,461,5,0,0,1,570
462,1,1,462,2,0,0,1,556
463,1,1,463,20,1,1,1,611
464,1,1,464,5,0,0,1,659
465,1,1,465,32,1,1,1,574
466,1,1,466,10,1,1,1,681
467,1,1,467,32,0,0,1,523
468,1,1,468,32,0,0,1,793
469,1,1,469,20,1,1,1,518
470,1,1,470,20,0,0,1,631
471,1,1,471,10,0,0,1,665
472,1,1,472,5,0,0,1,404
473,1,1,473,5,1,1,1,744
474,1,1,474,5,0,0,1,527
475,1,1,475,2,1,1,1,635
476,1,1,476,5,0,0,1,1082
477,1,1,477,10,0,0,1,505
478,1,1,478,10,0,0,1,614
479,1,1,479,10,1,1,1,484
480,1,1,480,10,0,0,1,487
481,1,1,481,1,1,1,1,574
482,1,1,482,2,0,0,1,442
483,1,1,483,20,0,0,1,614
484,1,1,484,2,1,1,1,532
485,1,1,485,10,0,0,1,523
486,1,1,486,10,1,1,1,796
487,1,1,487,2,1,1,1,491
488,1,1,488,10,0,0,1,451
489,1,1,489,5,1,1,1,535
490,1,1,490,5,1,1,1,680
491,1,1,491,5,0,0,1,481
492,1,1,492,32,1,1,1,587
493,1,1,493,20,0,0,1,509
494,1,1,494,32,1,1,1,504
495,1,1,495,10,1,1,1,539
496,1,1,496,32,1,1,1,595
497,1,1,497,5,0,0,1,595
498,1,1,498,2,1,1,1,553
499,1,1,499,5,1,1,1,530
500,1,1,500,32,0,0,1,672
501,1,1,501,20,1,1,1,1397
502,1,1,502,20,1,1,1,1100
503,1,1,503,32,1,1,1,540
504,1,1,504,2,0,0,1,561
505,1,1,505,32,1,1,1,667
506,1,1,506,10,0,0,1,661
507,1,1,507,10,1,1,1,2692
508,1,1,508,5,1,1,1,553
509,1,1,509,10,0,0,1,752
510,1,1,510,10,0,0,1,575
511,1,1,511,2,0,0,1,721
512,1,1,512,32,0,0,1,549
513,1,1,513,2,1,1,1,811
514,1,1,514,20,0,0,1,462
515,1,1,515,5,1,1,1,613
516,1,1,516,20,0,0,1,950
517,1,1,517,10,0,0,1,565
518,1,1,518,10,1,1,1,713
519,1,1,519,2,0,0,1,964
520,1,1,520,32,1,1,1,764
521,1,1,521,5,0,0,1,602
522,1,1,522,2,1,1,1,471
523,1,1,523,32,0,0,1,486
524,1,1,524,2,1,1,1,346
525,1,1,525,20,0,0,1,448
526,1,1,526,5,1,1,1,538
527,1,1,527,10,1,1,1,435
528,1,1,528,20,1,1,1,457
529,1,1,529,5,1,1,1,391
530,1,1,530,32,1,1,1,567
531,1,1,531,10,1,1,1,577
532,1,1,532,5,0,0,1,544
533,1,1,533,32,1,1,1,429
534,1,1,534,20,0,0,1,354
535,1,1,535,2,0,0,1,664
536,1,1,536,20,0,0,1,623
537,1,1,537,10,1,1,1,509
538,1,1,538,2,0,0,1,643
539,1,1,539,20,0,0,1,525
540,1,1,540,5,0,0,1,618
541,1,1,541,20,0,0,1,489
542,1,1,542,32,0,0,1,430
543,1,1,543,2,1,1,1,483
544,1,1,544,5,1,1,1,546
545,1,1,545,10,1,1,1,440
546,1,1,546,2,0,0,1,515
547,1,1,547,2,1,1,1,528
548,1,1,548,10,0,0,1,594
549,1,1,549,32,0,0,1,447
550,1,1,550,32,0,0,1,585
551,1,1,551,20,0,0,1,626
552,1,1,552,2,0,0,1,636
553,1,1,553,20,1,1,1,576
554,1,1,554,32,0,0,1,525
555,1,1,555,10,0,0,1,470
556,1,1,556,32,0,0,1,560
557,1,1,557,20,0,0,1,461
558,1,1,558,32,0,0,1,609
559,1,1,559,32,1,1,1,625
560,1,1,560,1,1,1,1,353
561,1,1,561,20,1,1,1,539
562,1,1,562,1,0,0,1,966
563,1,1,563,32,1,1,1,494
564,1,1,564,10,0,0,1,538
565,1,1,565,10,0,0,1,529
566,1,1,566,2,1,1,1,623
567,1,1,567,5,1,1,1,707
568,1,1,568,32,1,1,1,509
569,1,1,569,5,1,1,1,435
570,1,1,570,20,1,1,1,1147
571,1,1,571,2,1,1,1,474
572,1,1,572,32,1,1,1,574
573,1,1,573,10,1,1,1,482
574,1,1,574,20,0,0,1,516
575,1,1,575,2,0,0,1,400
576,1,1,576,1,1,1,1,370
577,1,1,577,5,0,0,1,689
578,1,1,578,1,0,0,1,446
579,1,1,579,10,1,1,1,562
580,1,1,580,2,0,0,1,460
581,1,1,581,20,1,1,1,535
582,1,1,582,20,0,0,1,704
583,1,1,583,5,0,0,1,663
584,1,1,584,32,1,1,1,439
585,1,1,585,20,1,1,1,471
586,1,1,586,5,1,1,1,564
587,1,1,587,2,0,0,1,435
588,1,1,588,5,1,1,1,531
589,1,1,589,1,1,1,1,527
590,1,1,590,2,1,1,1,747
591,1,1,591,2,0,0,1,561
592,1,1,592,10,0,0,1,552
593,1,1,593,5,0,0,1,606
594,1,1,594,5,1,1,1,492
595,1,1,595,20,0,0,1,642
596,1,1,596,5,0,0,1,590
597,1,1,597,10,0,0,1,476
598,1,1,598,32,0,0,1,466
599,1,1,599,32,1,1,1,544
600,1,1,600,5,1,1,1,510
601,1,1,601,32,1,1,1,529
602,1,1,602,2,0,0,1,572
603,1,1,603,5,1,1,1,714
604,1,1,604,20,0,0,1,468
605,1,1,605,20,0,0,1,589
606,1,1,606,20,1,1,1,413
607,1,1,607,32,0,0,1,544
608,1,1,608,20,1,1,1,504
609,1,1,609,10,1,1,1,640
610,1,1,610,32,0,0,1,468
611,1,1,611,2,1,1,1,528
612,1,1,612,20,0,0,1,511
613,1,1,613,32,1,1,1,506
614,1,1,614,5,0,0,1,549
615,1,1,615,20,0,0,1,455
616,1,1,616,1,0,0,1,655
617,1,1,617,1,0,0,1,347
618,1,1,618,5,1,1,1,711
619,1,1,619,32,0,0,1,690
620,1,1,620,10,1,1,1,625
621,1,1,621,5,0,0,1,609
622,1,1,622,32,0,0,1,519
623,1,1,623,32,1,1,1,591
624,1,1,624,5,0,0,1,622
625,1,1,625,20,1,1,1,600
626,1,1,626,1,1,1,1,736
627,1,1,627,32,0,0,1,721
628,1,1,628,5,1,1,1,586
629,1,1,629,2,0,0,1,613
630,1,1,630,5,1,1,1,511
631,1,1,631,20,0,0,1,606
632,1,1,632,20,0,0,1,495
633,1,1,633,10,1,1,1,434
634,1,1,634,32,1,1,1,681
635,1,1,635,32,0,0,1,523
636,1,1,636,2,1,1,1,553
637,1,1,637,20,1,1,1,478
638,1,1,638,10,0,0,1,526
639,1,1,639,20,1,1,1,510
640,1,1,640,2,1,1,1,601
641,2,1,1,10,1,1,1,670
642,2,1,2,20,1,1,1,543
643,2,1,3,2,1,1,1,416
644,2,1,4,20,0,0,1,491
645,2,1,5,2,1,1,1,441
646,2,1,6,32,0,0,1,522
647,2,1,7,32,1,1,1,583
648,2,1,8,32,0,0,1,683
649,2,1,9,2,0,0,1,414
650,2,1,10,2,0,0,1,522
651,2,1,11,32,0,0,1,615
652,2,1,12,2,1,1,1,477
653,2,1,13,5,0,0,1,441
654,2,1,14,10,1,1,1,566
655,2,1,15,10,0,0,1,531
656,2,1,16,5,1,1,1,492
657,2,1,17,5,0,0,1,500
658,2,1,18,20,1,1,1,543
659,2,1,19,20,1,1,1,444
660,2,1,20,5,0,0,1,612
661,2,1,21,5,0,0,1,403
662,2,1,22,5,0,0,1,397
663,2,1,23,32,1,1,0,517
664,2,1,24,1,1,1,1,441
665,2,1,25,32,0,0,1,582
666,2,1,26,2,0,0,1,433
667,2,1,27,5,0,0,1,473
668,2,1,28,32,0,0,1,487
669,2,1,29,2,1,1,1,499
670,2,1,30,32,0,0,1,474
671,2,1,31,5,0,0,1,493
672,2,1,32,5,1,1,1,459
673,2,1,33,1,1,1,1,372
674,2,1,34,5,1,1,1,330
675,2,1,35,1,0,0,1,418
676,2,1,36,32,1,1,1,545
677,2,1,37,2,0,0,1,495
678,2,1,38,32,0,0,1,511
679,2,1,39,20,1,1,1,421
680,2,1,40,20,1,1,1,585
681,2,1,41,10,0,0,1,507
682,2,1,42,2,1,1,1,386
683,2,1,43,2,0,0,1,477
684,2,1,44,5,0,0,1,443
685,2,1,45,10,0,0,1,468
686,2,1,46,2,0,0,1,410
687,2,1,47,32,1,1,1,492
688,2,1,48,32,1,1,1,543
689,2,1,49,32,0,0,1,500
690,2,1,50,20,1,1,1,625
691,2,1,51,5,0,0,1,472
692,2,1,52,10,0,0,1,504
693,2,1,53,32,1,1,1,479
694,2,1,54,2,0,0,1,429
695,2,1,55,5,1,1,1,462
696,2,1,56,20,1,1,1,521
697,2,1,57,2,0,0,1,495
698,2,1,58,32,0,0,1,687
699,2,1,59,32,0,0,1,453
700,2,1,60,1,1,1,1,442
701,2,1,61,10,0,0,1,486
702,2,1,62,2,0,0,1,357
703,2,1,63,2,1,1,1,567
704,2,1,64,2,1,1,1,431
705,2,1,65,10,0,0,1,629
706,2,1,66,32,1,1,1,501
707,2,1,67,5,0,0,1,696
708,2,1,68,5,1,1,1,434
709,2,1,69,5,1,1,1,494
710,2,1,70,32,0,0,1,450
711,2,1,71,2,1,1,1,432
712,2,1,72,5,0,0,1,524
713,2,1,73,32,0,0,1,388
714,2,1,74,20,1,1,1,575
715,2,1,75,32,0,0,1,577
716,2,1,76,1,0,0,1,434
717,2,1,77,5,0,0,1,390
718,2,1,78,2,1,1,1,494
719,2,1,79,5,0,0,1,507
720,2,1,80,20,1,1,1,491
721,2,1,81,32,0,0,1,453
722,2,1,82,2,1,1,1,505
723,2,1,83,20,0,0,1,368
724,2,1,84,20,1,1,1,481
725,2,1,85,5,0,0,1,556
726,2,1,86,10,1,1,1,698
727,2,1,87,5,1,1,1,503
728,2,1,88,5,0,0,0,577
729,2,1,89,5,1,1,1,464
730,2,1,90,32,0,0,1,658
731,2,1,91,10,0,0,1,534
732,2,1,92,20,0,0,1,498
733,2,1,93,32,1,1,1,598
734,2,1,94,2,1,1,1,431
735,2,1,95,5,0,0,1,448
736,2,1,96,2,1,1,1,442
737,2,1,97,10,1,1,1,604
738,2,1,98,10,0,0,1,494
739,2,1,99,32,0,0,1,414
740,2,1,100,32,1,1,1,619
741,2,1,101,32,1,1,1,506
742,2,1,102,32,1,1,1,496
743,2,1,103,10,1,1,1,543
744,2,1,104,1,0,0,1,482
745,2,1,105,5,0,0,1,560
746,2,1,106,5,0,0,1,558
747,2,1,107,20,0,0,1,695
748,2,1,108,32,1,1,1,507
749,2,1,109,20,0,0,1,436
750,2,1,110,32,1,1,1,544
751,2,1,111,20,1,1,1,557
752,2,1,112,20,1,1,1,451
753,2,1,113,32,1,1,1,615
754,2,1,114,20,1,1,1,508
755,2,1,115,32,0,0,1,503
756,2,1,116,20,1,1,1,386
757,2,1,117,20,0,0,1,412
758,2,1,118,32,0,0,1,418
759,2,1,119,1,1,1,1,383
760,2,1,120,20,1,1,1,728
761,2,1,121,2,1,1,1,515
762,2,1,122,2,1,1,1,457
763,2,1,123,2,0,0,1,617
764,2,1,124,10,0,0,1,498
765,2,1,125,2,0,0,1,552
766,2,1,126,20,0,0,1,447
767,2,1,127,20,1,1,1,467
768,2,1,128,5,0,0,1,499
769,2,1,129,20,0,0,1,488
770,2,1,130,20,1,1,1,576
771,2,1,131,10,1,1,1,459
772,2,1,132,20,0,0,1,482
773,2,1,133,2,0,0,1,416
774,2,1,134,32,1,1,1,806
775,2,1,135,20,0,0,1,439
776,2,1,136,32,1,1,1,687
777,2,1,137,1,0,0,1,476
778,2,1,138,32,1,1,1,864
779,2,1,139,20,0,0,1,456
780,2,1,140,20,0,0,1,530
781,2,1,141,20,0,0,1,554
782,2,1,142,1,0,0,1,398
783,2,1,143,32,1,1,1,675
784,2,1,144,10,1,1,1,661
785,2,1,145,5,1,1,1,670
786,2,1,146,5,0,0,1,447
787,2,1,147,10,0,0,1,405
788,2,1,148,2,0,0,1,385
789,2,1,149,20,1,1,1,556
790,2,1,150,2,1,1,1,431
791,2,1,151,20,0,0,1,559
792,2,1,152,20,1,1,1,456
793,2,1,153,2,0,0,1,440
794,2,1,154,2,0,0,1,384
795,2,1,155,5,1,1,1,469
796,2,1,156,10,0,0,1,416
797,2,1,157,20,1,1,1,428
798,2,1,158,32,1,1,1,536
799,2,1,159,32,0,0,1,487
800,2,1,160,1,1,1,1,428
801,2,1,161,20,0,0,1,454
802,2,1,162,2,0,0,1,467
803,2,1,163,32,1,1,1,513
804,2,1,164,10,1,1,1,537
805,2,1,165,5,0,0,1,421
806,2,1,166,32,0,0,1,589
807,2,1,167,10,0,0,1,512
808,2,1,168,10,0,0,1,450
809,2,1,169,32,1,1,1,577
810,2,1,170,10,0,0,1,434
811,2,1,171,2,0,0,1,428
812,2,1,172,10,1,1,1,631
813,2,1,173,5,0,0,1,436
814,2,1,174,10,0,0,1,459
815,2,1,175,5,1,1,1,499
816,2,1,176,20,0,0,1,563
817,2,1,177,20,0,0,1,403
818,2,1,178,2,0,0,1,390
819,2,1,179,2,1,1,1,517
820,2,1,180,32,0,0,1,537
821,2,1,181,20,1,1,1,559
822,2,1,182,32,0,0,1,515
823,2,1,183,32,0,0,1,528
824,2,1,184,32,1,1,1,585
825,2,1,185,5,1,1,1,476
826,2,1,186,32,0,0,1,484
827,2,1,187,10,1,1,1,611
828,2,1,188,32,1,1,1,589
829,2,1,189,10,1,1,1,484
830,2,1,190,5,1,1,1,606
831,2,1,191,10,0,0,1,515
832,2,1,192,2,0,0,1,442
833,2,1,193,5,0,0,1,410
834,2,1,194,32,1,1,1,550
835,2,1,195,32,1,1,1,712
836,2,1,196,5,0,0,1,639
837,2,1,197,2,1,1,1,438
838,2,1,198,5,0,0,1,417
839,2,1,199,10,1,1,1,665
840,2,1,200,20,1,1,1,572
841,2,1,201,5,0,0,1,423
842,2,1,202,2,0,0,1,439
843,2,1,203,2,1,1,1,420
844,2,1,204,20,1,1,1,527
845,2,1,205,32,0,0,1,407
846,2,1,206,1,1,1,1,481
847,2,1,207,2,1,1,1,406
848,2,1,208,10,0,0,1,416
849,2,1,209,2,0,0,1,376
850,2,1,210,10,0,0,1,726
851,2,1,211,2,1,1,1,408
852,2,1,212,2,1,1,1,413
853,2,1,213,20,1,1,1,585
854,2,1,214,5,1,1,1,398
855,2,1,215,5,1,1,1,595
856,2,1,216,5,1,1,1,374
857,2,1,217,32,1,1,1,392
858,2,1,218,32,1,1,1,541
859,2,1,219,5,0,0,1,518
860,2,1,220,10,0,0,1,479
861,2,1,221,20,0,0,1,942
862,2,1,222,10,1,1,1,475
863,2,1,223,32,1,1,1,443
864,2,1,224,32,0,0,1,610
865,2,1,225,32,1,1,1,670
866,2,1,226,5,0,0,1,415
867,2,1,227,10,1,1,1,500
868,2,1,228,10,0,0,1,528
869,2,1,229,2,1,1,1,427
870,2,1,230,1,0,0,1,500
871,2,1,231,32,0,0,1,518
872,2,1,232,10,0,0,1,410
873,2,1,233,2,1,1,1,402
874,2,1,234,5,1,1,1,410
875,2,1,235,5,0,0,1,411
876,2,1,236,20,1,1,1,463
877,2,1,237,2,0,0,1,463
878,2,1,238,32,0,0,1,373
879,2,1,239,5,1,1,1,443
880,2,1,240,20,1,1,1,497
881,2,1,241,2,1,1,1,465
882,2,1,242,2,1,1,1,401
883,2,1,243,10,1,1,1,579
884,2,1,244,2,0,0,1,488
885,2,1,245,32,0,0,1,470
886,2,1,246,10,1,1,1,672
887,2,1,247,20,0,0,1,478
888,2,1,248,2,0,0,1,426
889,2,1,249,2,1,1,1,467
890,2,1,250,2,0,0,1,401
891,2,1,251,20,1,1,1,575
892,2,1,252,5,1,1,1,511
893,2,1,253,2,1,1,1,443
894,2,1,254,10,0,0,1,468
895,2,1,255,10,0,0,1,425
896,2,1,256,32,1,1,1,490
897,2,1,257,20,1,1,1,537
898,2,1,258,32,0,0,1,839
899,2,1,259,5,1,1,1,472
900,2,1,260,2,0,0,1,359
901,2,1,261,2,1,1,1,427
902,2,1,262,10,1,1,1,625
903,2,1,263,5,0,0,1,574
904,2,1,264,2,0,0,1,514
905,2,1,265,2,0,0,1,452
906,2,1,266,1,0,0,1,337
907,2,1,267,10,0,0,1,373
908,2,1,268,32,0,0,1,507
909,2,1,269,10,0,0,1,400
910,2,1,270,1,1,1,1,454
911,2,1,271,32,1,1,1,533
912,2,1,272,10,1,1,1,423
913,2,1,273,2,1,1,1,419
914,2,1,274,5,0,0,1,423
915,2,1,275,2,1,1,1,415
916,2,1,276,20,0,0,1,479
917,2,1,277,1,1,1,1,397
918,2,1,278,5,1,1,1,425
919,2,1,279,1,0,0,1,362
920,2,1,280,5,1,1,1,502
921,2,1,281,20,0,0,1,390
922,2,1,282,20,1,1,1,726
923,2,1,283,32,0,0,1,685
924,2,1,284,2,1,1,1,461
925,2,1,285,1,1,1,1,375
926,2,1,286,2,1,1,1,344
927,2,1,287,1,1,1,1,334
928,2,1,288,20,1,1,1,459
929,2,1,289,2,0,0,0,368
930,2,1,290,32,1,1,1,490
931,2,1,291,20,0,0,1,631
932,2,1,292,20,1,1,1,474
933,2,1,293,20,1,1,1,531
934,2,1,294,10,1,1,1,558
935,2,1,295,2,1,1,1,597
936,2,1,296,32,0,0,1,441
937,2,1,297,32,0,0,1,601
938,2,1,298,20,1,1,1,549
939,2,1,299,2,1,1,1,417
940,2,1,300,20,1,1,1,512
941,2,1,301,5,1,1,1,372
942,2,1,302,5,0,0,1,588
943,2,1,303,2,0,0,1,519
944,2,1,304,32,1,1,1,742
945,2,1,305,5,0,0,1,444
946,2,1,306,20,1,1,1,427
947,2,1,307,32,1,1,1,504
948,2,1,308,20,1,1,1,436
949,2,1,309,5,1,1,1,391
950,2,1,310,32,0,0,1,496
951,2,1,311,10,0,0,1,408
952,2,1,312,5,1,1,1,471
953,2,1,313,20,0,0,1,756
954,2,1,314,2,1,1,1,454
955,2,1,315,10,1,1,1,645
956,2,1,316,32,1,1,1,658
957,2,1,317,10,1,1,1,496
958,2,1,318,1,1,1,1,387
959,2,1,319,10,1,1,1,437
960,2,1,320,32,1,1,1,512
961,2,1,321,2,0,0,1,440
962,2,1,322,20,1,1,1,448
963,2,1,323,10,1,1,1,529
964,2,1,324,5,1,1,1,686
965,2,1,325,10,0,0,1,466
966,2,1,326,10,1,1,1,491
967,2,1,327,5,0,0,1,462
968,2,1,328,10,1,1,1,539
969,2,1,329,20,0,0,1,466
970,2,1,330,32,0,0,1,423
971,2,1,331,10,1,1,1,490
972,2,1,332,5,1,1,1,505
973,2,1,333,20,1,1,1,500
974,2,1,334,2,0,0,1,490
975,2,1,335,2,1,1,1,448
976,2,1,336,20,0,0,1,520
977,2,1,337,20,0,0,1,518
978,2,1,338,10,0,0,1,497
979,2,1,339,5,1,1,1,498
980,2,1,340,5,0,0,1,421
981,2,1,341,32,1,1,1,484
982,2,1,342,20,0,0,1,537
983,2,1,343,5,0,0,1,456
984,2,1,344,20,1,1,1,545
985,2,1,345,5,1,1,1,596
986,2,1,346,10,0,0,1,494
987,2,1,347,5,1,1,1,749
988,2,1,348,32,0,0,1,455
989,2,1,349,10,0,0,1,494
990,2,1,350,32,1,1,1,529
991,2,1,351,10,0,0,1,424
992,2,1,352,20,0,0,1,546
993,2,1,353,32,0,0,1,467
994,2,1,354,2,0,0,1,416
995,2,1,355,1,0,0,1,335
996,2,1,356,5,1,1,1,489
997,2,1,357,20,0,0,1,751
998,2,1,358,5,1,1,1,507
999,2,1,359,32,0,0,1,538
1000,2,1,360,32,0,0,1,466
1001,2,1,361,1,1,1,1,513
1002,2,1,362,2,1,1,1,467
1003,2,1,363,1,0,0,1,410
1004,2,1,364,20,0,0,1,403
1005,2,1,365,32,0,0,1,462
1006,2,1,366,10,1,1,1,613
1007,2,1,367,10,0,0,1,421
1008,2,1,368,2,1,1,0,388
1009,2,1,369,5,1,1,1,433
1010,2,1,370,10,0,0,1,447
1011,2,1,371,20,0,0,1,396
1012,2,1,372,32,1,1,1,466
1013,2,1,373,1,0,0,1,356
1014,2,1,374,5,0,0,1,461
1015,2,1,375,20,0,0,1,491
1016,2,1,376,2,0,0,1,501
1017,2,1,377,5,1,1,1,432
1018,2,1,378,20,1,1,1,587
1019,2,1,379,20,0,0,1,475
1020,2,1,380,10,1,1,1,435
1021,2,1,381,32,0,0,1,484
1022,2,1,382,10,0,0,1,372
1023,2,1,383,2,0,0,1,365
1024,2,1,384,2,0,0,1,551
1025,2,1,385,20,1,1,1,472
1026,2,1,386,2,0,0,1,398
1027,2,1,387,2,1,1,1,464
1028,2,1,388,32,0,0,1,516
1029,2,1,389,10,1,1,1,432
1030,2,1,390,20,1,1,1,526
1031,2,1,391,20,0,0,1,474
1032,2,1,392,10,0,0,1,395
1033,2,1,393,10,1,1,1,424
1034,2,1,394,1,1,1,1,478
1035,2,1,395,2,0,0,1,428
1036,2,1,396,2,1,1,1,432
1037,2,1,397,5,1,1,1,506
1038,2,1,398,20,0,0,1,507
1039,2,1,399,32,0,0,1,415
1040,2,1,400,1,0,0,1,343
1041,2,1,401,5,0,0,1,376
1042,2,1,402,5,1,1,1,437
1043,2,1,403,5,1,1,1,456
1044,2,1,404,10,1,1,1,507
1045,2,1,405,2,1,1,1,365
1046,2,1,406,20,1,1,1,461
1047,2,1,407,2,1,1,1,363
1048,2,1,408,5,1,1,1,415
1049,2,1,409,10,1,1,1,491
1050,2,1,410,32,1,1,1,471
1051,2,1,411,32,1,1,1,582
1052,2,1,412,32,0,0,1,594
1053,2,1,413,1,0,0,1,406
1054,2,1,414,5,1,1,1,390
1055,2,1,415,5,1,1,1,414
1056,2,1,416,5,1,1,1,334
1057,2,1,417,2,0,0,1,451
1058,2,1,418,10,0,0,1,611
1059,2,1,419,2,1,1,1,398
1060,2,1,420,10,0,0,1,459
1061,2,1,421,20,0,0,1,662
1062,2,1,422,5,0,0,1,374
1063,2,1,423,2,0,0,1,327
1064,2,1,424,10,1,1,1,499
1065,2,1,425,2,0,0,1,391
1066,2,1,426,5,1,1,1,633
1067,2,1,427,20,0,0,1,608
1068,2,1,428,1,0,0,1,339
1069,2,1,429,20,0,0,1,394
1070,2,1,430,20,0,0,1,448
1071,2,1,431,20,1,1,1,592
1072,2,1,432,5,1,1,1,420
1073,2,1,433,10,1,1,1,516
1074,2,1,434,32,1,1,1,484
1075,2,1,435,10,1,1,1,367
1076,2,1,436,10,0,0,1,443
1077,2,1,437,10,1,1,1,425
1078,2,1,438,5,0,0,1,395
1079,2,1,439,2,0,0,1,410
1080,2,1,440,10,1,1,1,483
1081,2,1,441,5,1,1,1,488
1082,2,1,442,1,1,1,1,376
1083,2,1,443,10,0,0,1,425
1084,2,1,444,20,0,0,1,437
1085,2,1,445,5,0,0,1,598
1086,2,1,446,10,0,0,1,459
1087,2,1,447,2,0,0,1,332
1088,2,1,448,2,0,0,1,351
1089,2,1,449,32,1,1,1,405
1090,2,1,450,32,0,0,1,510
1091,2,1,451,5,1,1,1,433
1092,2,1,452,20,0,0,1,599
1093,2,1,453,32,0,0,1,377
1094,2,1,454,2,1,1,1,379
1095,2,1,455,32,1,1,1,441
1096,2,1,456,10,0,0,1,511
1097,2,1,457,2,1,1,1,402
1098,2,1,458,32,1,1,0,489
1099,2,1,459,10,0,0,1,670
1100,2,1,460,20,0,0,1,540
1101,2,1,461,20,1,1,1,508
1102,2,1,462,2,1,1,1,399
1103,2,1,463,10,0,0,1,455
1104,2,1,464,32,0,0,1,589
1105,2,1,465,32,0,0,1,456
1106,2,1,466,2,1,1,1,365
1107,2,1,467,20,0,0,1,569
1108,2,1,468,20,0,0,1,597
1109,2,1,469,10,0,0,1,473
1110,2,1,470,1,0,0,1,450
1111,2,1,471,2,1,1,1,463
1112,2,1,472,10,0,0,1,413
1113,2,1,473,32,0,0,1,658
1114,2,1,474,20,0,0,1,422
1115,2,1,475,20,1,1,1,521
1116,2,1,476,10,1,1,1,397
1117,2,1,477,32,0,0,1,631
1118,2,1,478,10,0,0,1,473
1119,2,1,479,32,1,1,1,421
1120,2,1,480,20,1,1,1,454
1121,2,1,481,20,0,0,1,479
1122,2,1,482,2,0,0,1,391
1123,2,1,483,10,1,1,1,551
1124,2,1,484,2,1,1,1,438
1125,2,1,485,5,0,0,1,619
1126,2,1,486,2,1,1,1,421
1127,2,1,487,32,0,0,1,654
1128,2,1,488,5,0,0,1,466
1129,2,1,489,10,1,1,1,654
1130,2,1,490,1,0,0,1,660
1131,2,1,491,2,1,1,1,455
1132,2,1,492,2,1,1,1,484
1133,2,1,493,2,0,0,1,378
1134,2,1,494,2,1,1,1,439
1135,2,1,495,1,0,0,1,475
1136,2,1,496,20,0,0,1,585
1137,2,1,497,20,0,0,1,411
1138,2,1,498,1,0,0,1,385
1139,2,1,499,5,1,1,1,462
1140,2,1,500,1,1,1,1,418
1141,2,1,501,32,1,1,1,526
1142,2,1,502,2,0,0,1,378
1143,2,1,503,32,1,1,1,493
1144,2,1,504,1,1,1,1,453
1145,2,1,505,10,0,0,1,465
1146,2,1,506,10,1,1,1,451
1147,2,1,507,2,1,1,1,465
1148,2,1,508,5,0,0,1,663
1149,2,1,509,1,1,1,1,431
1150,2,1,510,10,0,0,1,476
1151,2,1,511,5,0,0,1,614
1152,2,1,512,32,1,1,1,571
1153,2,1,513,20,1,1,1,523
1154,2,1,514,10,1,1,1,638
1155,2,1,515,1,1,1,1,468
1156,2,1,516,20,1,1,1,430
1157,2,1,517,5,1,1,1,412
1158,2,1,518,5,0,0,1,620
1159,2,1,519,32,0,0,1,498
1160,2,1,520,20,1,1,1,505
1161,2,1,521,20,1,1,1,564
1162,2,1,522,20,0,0,1,396
1163,2,1,523,2,0,0,1,409
1164,2,1,524,2,0,0,1,522
1165,2,1,525,2,1,1,1,406
1166,2,1,526,10,1,1,1,551
1167,2,1,527,2,1,1,1,466
1168,2,1,528,32,1,1,1,441
1169,2,1,529,32,0,0,1,458
1170,2,1,530,2,0,0,1,366
1171,2,1,531,10,1,1,1,605
1172,2,1,532,10,0,0,1,465
1173,2,1,533,5,0,0,1,380
1174,2,1,534,32,1,1,1,556
1175,2,1,535,20,1,1,1,570
1176,2,1,536,32,0,0,1,476
1177,2,1,537,5,1,1,1,463
1178,2,1,538,20,1,1,1,514
1179,2,1,539,5,0,0,1,502
1180,2,1,540,5,1,1,1,553
1181,2,1,541,32,1,1,1,461
1182,2,1,542,32,1,1,1,539
1183,2,1,543,10,0,0,1,472
1184,2,1,544,32,1,1,1,484
1185,2,1,545,20,0,0,1,490
1186,2,1,546,10,1,1,1,448
1187,2,1,547,2,0,0,1,404
1188,2,1,548,32,1,1,1,481
1189,2,1,549,5,1,1,1,509
1190,2,1,550,10,1,1,1,396
1191,2,1,551,20,1,1,1,481
1192,2,1,552,5,0,0,1,422
1193,2,1,553,10,0,0,1,457
1194,2,1,554,10,0,0,1,421
1195,2,1,555,10,1,1,1,461
1196,2,1,556,2,0,0,1,400
1197,2,1,557,10,0,0,1,544
1198,2,1,558,10,1,1,1,466
1199,2,1,559,1,0,0,1,391
1200,2,1,560,32,0,0,1,428
1201,2,1,561,2,0,0,1,454
1202,2,1,562,20,0,0,1,416
1203,2,1,563,10,1,1,1,431
1204,2,1,564,20,1,1,1,588
1205,2,1,565,5,0,0,1,525
1206,2,1,566,2,0,0,1,402
1207,2,1,567,5,0,0,1,514
1208,2,1,568,20,0,0,1,439
1209,2,1,569,20,0,0,1,409
1210,2,1,570,10,1,1,1,513
1211,2,1,571,5,1,1,1,394
1212,2,1,572,2,0,0,1,485
1213,2,1,573,5,0,0,1,522
1214,2,1,574,2,1,1,1,765
1215,2,1,575,1,0,0,1,524
1216,2,1,576,10,1,1,1,583
1217,2,1,577,5,0,0,1,502
1218,2,1,578,5,0,0,1,401
1219,2,1,579,10,0,0,1,441
1220,2,1,580,20,0,0,1,402
1221,2,1,581,20,0,0,1,487
1222,2,1,582,5,0,0,1,398
1223,2,1,583,5,0,0,1,400
1224,2,1,584,10,1,1,1,627
1225,2,1,585,1,1,1,1,446
1226,2,1,586,20,1,1,1,536
1227,2,1,587,5,1,1,1,461
1228,2,1,588,2,1,1,1,390
1229,2,1,589,10,0,0,1,524
1230,2,1,590,5,1,1,1,654
1231,2,1,591,5,1,1,1,410
1232,2,1,592,10,1,1,1,401
1233,2,1,593,5,1,1,1,417
1234,2,1,594,20,1,1,1,424
1235,2,1,595,20,0,0,1,564
1236,2,1,596,32,0,0,1,546
1237,2,1,597,2,0,0,1,420
1238,2,1,598,2,0,0,1,492
1239,2,1,599,5,1,1,1,543
1240,2,1,600,2,0,0,1,629
1241,2,1,601,32,1,1,1,528
1242,2,1,602,2,0,0,1,375
1243,2,1,603,20,0,0,1,508
1244,2,1,604,5,0,0,1,396
1245,2,1,605,32,1,1,1,539
1246,2,1,606,10,0,0,1,512
1247,2,1,607,32,0,0,1,429
1248,2,1,608,10,0,0,1,382
1249,2,1,609,5,0,0,1,376
1250,2,1,610,10,0,0,1,466
1251,2,1,611,32,1,1,1,624
1252,2,1,612,5,1,1,1,479
1253,2,1,613,10,1,1,1,481
1254,2,1,614,2,1,1,1,399
1255,2,1,615,5,0,0,1,508
1256,2,1,616,10,0,0,1,426
1257,2,1,617,10,0,0,1,516
1258,2,1,618,20,0,0,1,558
1259,2,1,619,10,1,1,1,510
1260,2,1,620,20,1,1,1,718
1261,2,1,621,1,1,1,1,402
1262,2,1,622,32,1,1,1,666
1263,2,1,623,10,1,1,1,381
1264,2,1,624,20,0,0,1,472
1265,2,1,625,5,1,1,1,596
1266,2,1,626,10,1,1,1,427
1267,2,1,627,2,0,0,1,551
1268,2,1,628,10,1,1,1,545
1269,2,1,629,20,1,1,1,593
1270,2,1,630,20,0,0,1,350
1271,2,1,631,20,1,1,1,468
1272,2,1,632,32,1,1,1,540
1273,2,1,633,5,1,1,1,503
1274,2,1,634,32,0,0,1,516
1275,2,1,635,10,1,1,1,435
1276,2,1,636,5,1,1,1,485
1277,2,1,637,32,0,0,1,530
1278,2,1,638,5,0,0,1,415
1279,2,1,639,2,1,1,1,492
1280,2,1,640,10,1,1,1,525
1281,3,1,1,2,0,0,1,827
1282,3,1,2,1,1,1,1,924
1283,3,1,3,10,0,0,1,431
1284,3,1,4,32,0,0,1,536
1285,3,1,5,2,0,0,1,487
1286,3,1,6,20,0,0,1,406
1287,3,1,7,2,0,0,1,406
1288,3,1,8,1,1,1,1,457
1289,3,1,9,32,1,1,1,458
1290,3,1,10,20,1,1,1,415
1291,3,1,11,2,0,0,1,443
1292,3,1,12,5,1,1,1,464
1293,3,1,13,5,0,0,1,542
1294,3,1,14,2,1,1,1,363
1295,3,1,15,5,1,1,1,438
1296,3,1,16,2,1,1,1,413
1297,3,1,17,2,1,1,1,337
1298,3,1,18,1,1,1,1,351
1299,3,1,19,20,0,0,1,360
1300,3,1,20,1,1,1,1,346
1301,3,1,21,2,1,1,1,393
1302,3,1,22,5,0,0,1,498
1303,3,1,23,32,0,0,1,428
1304,3,1,24,10,0,0,1,563
1305,3,1,25,20,1,1,1,610
1306,3,1,26,20,0,0,1,473
1307,3,1,27,5,0,0,1,517
1308,3,1,28,10,0,0,1,529
1309,3,1,29,2,0,0,1,508
1310,3,1,30,10,1,1,1,402
1311,3,1,31,10,0,0,1,382
1312,3,1,32,32,0,0,1,480
1313,3,1,33,10,0,0,1,467
1314,3,1,34,20,1,1,1,447
1315,3,1,35,20,1,1,1,600
1316,3,1,36,5,1,1,1,487
1317,3,1,37,32,1,1,1,751
1318,3,1,38,10,0,0,1,494
1319,3,1,39,5,1,1,1,472
1320,3,1,40,32,1,1,1,533
1321,3,1,41,10,1,1,1,575
1322,3,1,42,2,0,0,1,345
1323,3,1,43,5,1,1,1,1055
1324,3,1,44,5,0,0,1,359
1325,3,1,45,32,1,1,1,397
1326,3,1,46,32,1,1,1,438
1327,3,1,47,32,1,1,1,357
1328,3,1,48,20,0,0,1,398
1329,3,1,49,2,0,0,0,415
1330,3,1,50,2,0,0,1,475
1331,3,1,51,5,1,1,1,568
1332,3,1,52,5,0,0,1,491
1333,3,1,53,5,1,1,1,368
1334,3,1,54,10,1,1,1,492
1335,3,1,55,2,1,1,1,410
1336,3,1,56,20,0,0,1,385
1337,3,1,57,2,0,0,1,363
1338,3,1,58,2,1,1,1,366
1339,3,1,59,5,0,0,1,326
1340,3,1,60,32,0,0,1,469
1341,3,1,61,20,1,1,1,538
1342,3,1,62,5,0,0,1,318
1343,3,1,63,20,0,0,1,423
1344,3,1,64,20,1,1,1,553
1345,3,1,65,32,0,0,1,499
1346,3,1,66,5,0,0,1,485
1347,3,1,67,2,0,0,1,585
1348,3,1,68,20,0,0,1,648
1349,3,1,69,2,1,1,1,498
1350,3,1,70,20,1,1,1,484
1351,3,1,71,5,0,0,1,680
1352,3,1,72,2,1,1,1,493
1353,3,1,73,10,0,0,1,437
1354,3,1,74,1,1,1,1,456
1355,3,1,75,2,0,0,1,569
1356,3,1,76,32,0,0,1,482
1357,3,1,77,10,1,1,1,579
1358,3,1,78,2,1,1,1,451
1359,3,1,79,10,0,0,1,575
1360,3,1,80,20,0,0,1,594
1361,3,1,81,32,0,0,1,510
1362,3,1,82,32,1,1,1,558
1363,3,1,83,5,1,1,1,420
1364,3,1,84,1,0,0,1,442
1365,3,1,85,5,1,1,1,367
1366,3,1,86,20,0,0,1,438
1367,3,1,87,20,1,1,1,423
1368,3,1,88,2,0,0,1,364
1369,3,1,89,5,1,1,1,437
1370,3,1,90,20,1,1,1,453
1371,3,1,91,20,1,1,1,397
1372,3,1,92,5,0,0,1,501
1373,3,1,93,20,1,1,1,594
1374,3,1,94,2,0,0,1,502
1375,3,1,95,32,0,0,1,518
1376,3,1,96,2,0,0,1,464
1377,3,1,97,32,1,1,1,665
1378,3,1,98,10,1,1,1,413
1379,3,1,99,1,1,1,1,333
1380,3,1,100,5,0,0,1,567
1381,3,1,101,32,1,1,1,448
1382,3,1,102,5,1,1,1,403
1383,3,1,103,2,0,0,1,433
1384,3,1,104,32,1,1,1,432
1385,3,1,105,10,0,0,1,418
1386,3,1,106,5,0,0,1,466
1387,3,1,107,20,0,0,1,488
1388,3,1,108,5,0,0,1,358
1389,3,1,109,32,0,0,1,453
1390,3,1,110,32,0,0,1,589
1391,3,1,111,5,0,0,1,395
1392,3,1,112,2,0,0,1,693
1393,3,1,113,5,0,0,1,434
1394,3,1,114,20,0,0,1,407
1395,3,1,115,5,1,1,1,545
1396,3,1,116,20,0,0,1,500
1397,3,1,117,32,0,0,1,458
1398,3,1,118,1,0,0,1,344
1399,3,1,119,20,1,1,1,363
1400,3,1,120,20,1,1,1,442
1401,3,1,121,10,0,0,1,887
1402,3,1,122,1,1,1,1,423
1403,3,1,123,5,0,0,1,735
1404,3,1,124,32,0,0,1,634
1405,3,1,125,32,1,1,1,535
1406,3,1,126,20,0,0,1,376
1407,3,1,127,2,0,0,1,341
1408,3,1,128,20,1,1,1,403
1409,3,1,129,20,1,1,1,478
1410,3,1,130,2,0,0,1,713
1411,3,1,131,2,0,0,1,498
1412,3,1,132,10,0,0,1,483
1413,3,1,133,10,1,1,1,598
1414,3,1,134,5,1,1,1,597
1415,3,1,135,10,0,0,1,608
1416,3,1,136,5,0,0,1,392
1417,3,1,137,20,1,1,1,425
1418,3,1,138,2,0,0,1,519
1419,3,1,139,2,1,1,1,481
1420,3,1,140,5,0,0,1,648
1421,3,1,141,10,0,0,1,376
1422,3,1,142,2,1,1,1,454
1423,3,1,143,32,0,0,1,501
1424,3,1,144,10,1,1,1,470
1425,3,1,145,10,1,1,1,608
1426,3,1,146,32,1,1,1,828
1427,3,1,147,2,1,1,1,351
1428,3,1,148,5,0,0,1,563
1429,3,1,149,2,0,0,1,541
1430,3,1,150,2,1,1,1,444
1431,3,1,151,20,0,0,1,613
1432,3,1,152,5,1,1,1,483
1433,3,1,153,32,1,1,1,486
1434,3,1,154,32,1,1,1,640
1435,3,1,155,10,0,0,1,396
1436,3,1,156,10,1,1,1,463
1437,3,1,157,10,0,0,1,587
1438,3,1,158,32,0,0,1,467
1439,3,1,159,20,1,1,1,394
1440,3,1,160,20,1,1,1,554
1441,3,1,161,5,1,1,1,1674
1442,3,1,162,32,1,1,1,638
1443,3,1,163,10,0,0,1,626
1444,3,1,164,32,1,1,1,1623
1445,3,1,165,32,1,1,1,374
1446,3,1,166,20,1,1,1,373
1447,3,1,167,2,1,1,1,1031
1448,3,1,168,5,1,1,1,484
1449,3,1,169,10,1,1,1,489
1450,3,1,170,20,0,0,1,475
1451,3,1,171,10,0,0,1,691
1452,3,1,172,32,0,0,1,471
1453,3,1,173,2,1,1,1,490
1454,3,1,174,10,0,0,1,540
1455,3,1,175,2,1,1,1,476
1456,3,1,176,32,0,0,1,386
1457,3,1,177,2,1,1,1,512
1458,3,1,178,32,1,1,1,507
1459,3,1,179,20,0,0,1,547
1460,3,1,180,5,0,0,1,479
1461,3,1,181,5,1,1,1,505
1462,3,1,182,20,0,0,1,350
1463,3,1,183,10,1,1,1,528
1464,3,1,184,20,1,1,1,529
1465,3,1,185,2,1,1,1,1434
1466,3,1,186,2,0,0,1,448
1467,3,1,187,2,0,0,1,348
1468,3,1,188,32,1,1,1,360
1469,3,1,189,2,1,1,1,352
1470,3,1,190,10,0,0,1,357
1471,3,1,191,5,1,1,1,358
1472,3,1,192,10,0,0,1,433
1473,3,1,193,5,1,1,1,388
1474,3,1,194,10,1,1,1,451
1475,3,1,195,32,0,0,1,638
1476,3,1,196,2,1,1,1,412
1477,3,1,197,2,1,1,1,473
1478,3,1,198,32,0,0,1,629
1479,3,1,199,2,0,0,1,532
1480,3,1,200,10,0,0,1,497
1481,3,1,201,10,1,1,1,602
1482,3,1,202,10,1,1,1,379
1483,3,1,203,2,1,1,1,1560
1484,3,1,204,2,1,1,1,302
1485,3,1,205,2,1,1,1,1072
1486,3,1,206,1,0,0,1,550
1487,3,1,207,10,1,1,1,297
1488,3,1,208,2,1,1,1,609
1489,3,1,209,5,0,0,1,603
1490,3,1,210,2,0,0,1,506
1491,3,1,211,5,0,0,1,381
1492,3,1,212,20,0,0,1,717
1493,3,1,213,20,0,0,1,671
1494,3,1,214,10,0,0,1,598
1495,3,1,215,10,1,1,1,467
1496,3,1,216,10,0,0,1,487
1497,3,1,217,5,0,0,1,402
1498,3,1,218,10,0,0,1,370
1499,3,1,219,10,1,1,1,461
1500,3,1,220,2,1,1,1,450
1501,3,1,221,10,1,1,1,420
1502,3,1,222,32,1,1,1,445
1503,3,1,223,20,0,0,1,499
1504,3,1,224,1,1,1,1,398
1505,3,1,225,2,0,0,1,410
1506,3,1,226,10,1,1,1,430
1507,3,1,227,10,0,0,1,347
1508,3,1,228,20,0,0,1,417
1509,3,1,229,2,1,1,1,397
1510,3,1,230,2,0,0,1,354
1511,3,1,231,5,1,1,1,372
1512,3,1,232,32,1,1,1,1180
1513,3,1,233,20,0,0,1,403
1514,3,1,234,20,0,0,1,408
1515,3,1,235,10,0,0,1,398
1516,3,1,236,5,1,1,1,457
1517,3,1,237,2,1,1,1,550
1518,3,1,238,2,1,1,1,476
1519,3,1,239,2,0,0,1,517
1520,3,1,240,20,0,0,1,367
1521,3,1,241,5,0,0,1,446
1522,3,1,242,32,0,0,1,450
1523,3,1,243,2,0,0,1,471
1524,3,1,244,20,1,1,1,370
1525,3,1,245,5,0,0,1,379
1526,3,1,246,5,0,0,1,380
1527,3,1,247,2,1,1,1,486
1528,3,1,248,2,1,1,1,451
1529,3,1,249,20,1,1,1,498
1530,3,1,250,10,1,1,1,624
1531,3,1,251,10,0,0,1,683
1532,3,1,252,2,1,1,1,374
1533,3,1,253,5,0,0,1,446
1534,3,1,254,2,0,0,1,392
1535,3,1,255,20,1,1,1,426
1536,3,1,256,2,0,0,1,427
1537,3,1,257,1,1,1,1,388
1538,3,1,258,5,0,0,1,449
1539,3,1,259,2,1,1,1,386
1540,3,1,260,10,0,0,1,492
1541,3,1,261,32,1,1,1,378
1542,3,1,262,2,0,0,1,488
1543,3,1,263,32,0,0,1,430
1544,3,1,264,20,0,0,1,515
1545,3,1,265,2,0,0,1,371
1546,3,1,266,32,0,0,1,371
1547,3,1,267,20,1,1,1,494
1548,3,1,268,20,1,1,1,408
1549,3,1,269,32,0,0,1,426
1550,3,1,270,32,1,1,1,502
1551,3,1,271,32,0,0,1,450
1552,3,1,272,1,1,1,1,499
1553,3,1,273,2,0,0,1,867
1554,3,1,274,20,0,0,1,369
1555,3,1,275,20,1,1,1,387
1556,3,1,276,2,0,0,1,364
1557,3,1,277,10,0,0,1,349
1558,3,1,278,10,0,0,1,350
1559,3,1,279,20,1,1,1,392
1560,3,1,280,2,0,0,1,403
1561,3,1,281,5,1,1,1,403
1562,3,1,282,10,0,0,1,429
1563,3,1,283,10,1,1,1,574
1564,3,1,284,1,0,0,1,352
1565,3,1,285,2,1,1,1,437
1566,3,1,286,32,0,0,1,502
1567,3,1,287,32,0,0,1,502
1568,3,1,288,5,1,1,1,545
1569,3,1,289,2,0,0,1,454
1570,3,1,290,2,0,0,1,350
1571,3,1,291,2,1,1,1,395
1572,3,1,292,5,0,0,1,380
1573,3,1,293,32,0,0,1,403
1574,3,1,294,32,1,1,1,432
1575,3,1,295,5,1,1,1,2146
1576,3,1,296,5,0,0,1,382
1577,3,1,297,32,0,0,1,396
1578,3,1,298,2,1,1,1,409
1579,3,1,299,32,0,0,1,507
1580,3,1,300,5,0,0,1,315
1581,3,1,301,5,0,0,1,351
1582,3,1,302,5,0,0,1,508
1583,3,1,303,5,1,1,1,450
1584,3,1,304,5,1,1,1,412
1585,3,1,305,10,1,1,1,433
1586,3,1,306,2,1,1,1,384
1587,3,1,307,10,1,1,1,367
1588,3,1,308,2,0,0,1,466
1589,3,1,309,20,0,0,1,442
1590,3,1,310,2,0,0,1,482
1591,3,1,311,5,0,0,1,407
1592,3,1,312,32,1,1,1,384
1593,3,1,313,1,0,0,1,391
1594,3,1,314,1,1,1,1,363
1595,3,1,315,20,1,1,1,1252
1596,3,1,316,10,0,0,1,1184
1597,3,1,317,32,0,0,1,400
1598,3,1,318,5,0,0,1,365
1599,3,1,319,2,1,1,1,692
1600,3,1,320,32,0,0,1,628
1601,3,1,321,32,0,0,1,488
1602,3,1,322,32,1,1,1,349
1603,3,1,323,2,1,1,1,308
1604,3,1,324,10,1,1,1,359
1605,3,1,325,32,1,1,1,745
1606,3,1,326,5,1,1,1,427
1607,3,1,327,1,0,0,1,369
1608,3,1,328,32,0,0,1,335
1609,3,1,329,32,1,1,1,480
1610,3,1,330,2,1,1,1,363
1611,3,1,331,1,1,1,1,443
1612,3,1,332,10,1,1,1,368
1613,3,1,333,5,1,1,1,362
1614,3,1,334,32,1,1,1,462
1615,3,1,335,20,0,0,1,356
1616,3,1,336,1,0,0,1,306
1617,3,1,337,32,0,0,1,498
1618,3,1,338,10,1,1,1,419
1619,3,1,339,20,0,0,1,390
1620,3,1,340,20,1,1,0,365
1621,3,1,341,2,1,1,1,363
1622,3,1,342,2,0,0,1,879
1623,3,1,343,20,0,0,1,404
1624,3,1,344,2,0,0,1,345
1625,3,1,345,1,1,1,1,382
1626,3,1,346,32,1,1,1,443
1627,3,1,347,20,0,0,1,372
1628,3,1,348,2,0,0,1,418
1629,3,1,349,5,0,0,1,308
1630,3,1,350,20,1,1,1,408
1631,3,1,351,5,1,1,1,1084
1632,3,1,352,2,1,1,1,1160
1633,3,1,353,32,1,1,1,1175
1634,3,1,354,20,0,0,1,402
1635,3,1,355,2,1,1,1,375
1636,3,1,356,5,0,0,1,412
1637,3,1,357,5,1,1,1,324
1638,3,1,358,1,0,0,1,567
1639,3,1,359,10,1,1,1,412
1640,3,1,360,20,0,0,1,384
1641,3,1,361,1,1,1,1,387
1642,3,1,362,5,1,1,1,391
1643,3,1,363,10,1,1,1,414
1644,3,1,364,32,0,0,1,534
1645,3,1,365,10,0,0,1,861
1646,3,1,366,2,0,0,1,404
1647,3,1,367,10,0,0,1,383
1648,3,1,368,10,1,1,1,419
1649,3,1,369,5,1,1,1,887
1650,3,1,370,10,0,0,1,421
1651,3,1,371,1,0,0,1,397
1652,3,1,372,32,0,0,1,297
1653,3,1,373,20,1,1,1,550
1654,3,1,374,5,0,0,1,366
1655,3,1,375,20,0,0,1,288
1656,3,1,376,10,0,0,1,1294
1657,3,1,377,32,0,0,1,552
1658,3,1,378,20,0,0,1,383
1659,3,1,379,10,0,0,1,304
1660,3,1,380,32,1,1,1,592
1661,3,1,381,10,1,1,1,333
1662,3,1,382,1,0,0,1,1000
1663,3,1,383,5,0,0,1,323
1664,3,1,384,2,0,0,1,308
1665,3,1,385,32,0,0,1,382
1666,3,1,386,5,1,1,1,412
1667,3,1,387,32,1,1,1,504
1668,3,1,388,2,0,0,1,354
1669,3,1,389,1,0,0,1,407
1670,3,1,390,5,1,1,0,333
1671,3,1,391,5,0,0,1,488
1672,3,1,392,20,1,1,1,460
1673,3,1,393,20,1,1,1,2161
1674,3,1,394,32,1,1,1,537
1675,3,1,395,20,1,1,1,1370
1676,3,1,396,5,1,1,1,915
1677,3,1,397,2,1,1,1,456
1678,3,1,398,1,0,0,1,382
1679,3,1,399,1,1,1,1,321
1680,3,1,400,5,0,0,0,436
1681,3,1,401,32,0,0,1,1075
1682,3,1,402,20,1,1,1,575
1683,3,1,403,32,1,1,1,467
1684,3,1,404,2,1,1,1,597
1685,3,1,405,20,1,1,1,660
1686,3,1,406,5,1,1,1,369
1687,3,1,407,20,0,0,1,565
1688,3,1,408,2,0,0,1,368
1689,3,1,409,20,1,1,1,386
1690,3,1,410,20,1,1,1,515
1691,3,1,411,10,1,1,1,393
1692,3,1,412,32,1,1,1,449
1693,3,1,413,10,1,1,1,897
1694,3,1,414,10,0,0,1,979
1695,3,1,415,20,0,0,1,3627
1696,3,1,416,10,1,1,1,385
1697,3,1,417,20,1,1,1,416
1698,3,1,418,32,1,1,1,562
1699,3,1,419,32,1,1,1,424
1700,3,1,420,5,0,0,1,3683
1701,3,1,421,5,0,0,1,402
1702,3,1,422,32,0,0,1,3502
1703,3,1,423,2,1,1,1,422
1704,3,1,424,1,0,0,1,317
1705,3,1,425,20,0,0,1,402
1706,3,1,426,10,0,0,1,349
1707,3,1,427,32,1,1,1,398
1708,3,1,428,10,1,1,1,358
1709,3,1,429,5,0,0,1,403
1710,3,1,430,32,0,0,1,388
1711,3,1,431,10,0,0,1,424
1712,3,1,432,2,0,0,1,443
1713,3,1,433,10,1,1,1,370
1714,3,1,434,2,0,0,1,402
1715,3,1,435,2,1,1,1,635
1716,3,1,436,20,0,0,1,468
1717,3,1,437,20,0,0,1,414
1718,3,1,438,20,1,1,1,1062
1719,3,1,439,32,0,0,1,483
1720,3,1,440,5,0,0,1,352
1721,3,1,441,5,0,0,1,1473
1722,3,1,442,10,1,1,1,471
1723,3,1,443,10,0,0,1,516
1724,3,1,444,5,1,1,1,409
1725,3,1,445,20,1,1,1,419
1726,3,1,446,32,1,1,0,465
1727,3,1,447,10,0,0,1,538
1728,3,1,448,10,0,0,1,378
1729,3,1,449,10,0,0,1,441
1730,3,1,450,1,0,0,1,469
1731,3,1,451,5,0,0,1,505
1732,3,1,452,2,1,1,1,410
1733,3,1,453,5,1,1,1,398
1734,3,1,454,20,0,0,1,427
1735,3,1,455,10,1,1,1,545
1736,3,1,456,2,1,1,1,494
1737,3,1,457,20,1,1,1,441
1738,3,1,458,20,1,1,1,401
1739,3,1,459,5,0,0,1,664
1740,3,1,460,5,1,1,1,448
1741,3,1,461,32,1,1,1,424
1742,3,1,462,5,1,1,1,326
1743,3,1,463,10,1,1,1,380
1744,3,1,464,20,1,1,1,479
1745,3,1,465,32,0,0,1,411
1746,3,1,466,10,0,0,1,328
1747,3,1,467,1,1,1,1,418
1748,3,1,468,10,1,1,1,330
1749,3,1,469,10,0,0,1,493
1750,3,1,470,32,0,0,1,327
1751,3,1,471,32,1,1,1,496
1752,3,1,472,20,0,0,1,632
1753,3,1,473,32,0,0,1,354
1754,3,1,474,32,0,0,1,369
1755,3,1,475,32,1,1,1,344
1756,3,1,476,20,0,0,1,412
1757,3,1,477,5,1,1,1,339
1758,3,1,478,32,1,1,1,505
1759,3,1,479,5,1,1,1,356
1760,3,1,480,5,0,0,1,354
1761,3,1,481,20,1,1,1,528
1762,3,1,482,5,0,0,1,596
1763,3,1,483,5,1,1,1,417
1764,3,1,484,32,1,1,1,368
1765,3,1,485,10,1,1,1,448
1766,3,1,486,5,1,1,1,449
1767,3,1,487,10,0,0,1,480
1768,3,1,488,20,1,1,1,1703
1769,3,1,489,10,0,0,1,448
1770,3,1,490,20,1,1,1,362
1771,3,1,491,5,1,1,1,430
1772,3,1,492,32,0,0,1,502
1773,3,1,493,2,0,0,1,529
1774,3,1,494,10,1,1,1,410
1775,3,1,495,20,0,0,1,382
1776,3,1,496,10,1,1,1,337
1777,3,1,497,2,1,1,1,922
1778,3,1,498,5,1,1,1,322
1779,3,1,499,1,1,1,1,346
1780,3,1,500,32,1,1,1,379
1781,3,1,501,20,1,1,1,376
1782,3,1,502,10,1,1,1,406
1783,3,1,503,32,1,1,1,516
1784,3,1,504,10,1,1,1,358
1785,3,1,505,10,1,1,1,351
1786,3,1,506,20,0,0,1,584
1787,3,1,507,20,0,0,1,441
1788,3,1,508,5,0,0,1,334
1789,3,1,509,32,1,1,1,613
1790,3,1,510,20,1,1,1,490
1791,3,1,511,2,1,1,1,613
1792,3,1,512,20,1,1,1,444
1793,3,1,513,2,1,1,1,400
1794,3,1,514,10,0,0,1,482
1795,3,1,515,32,0,0,1,421
1796,3,1,516,32,1,1,1,409
1797,3,1,517,5,1,1,1,448
1798,3,1,518,1,0,0,1,400
1799,3,1,519,10,1,1,1,362
1800,3,1,520,20,1,1,1,501
1801,3,1,521,20,0,0,1,585
1802,3,1,522,20,1,1,1,472
1803,3,1,523,32,1,1,1,480
1804,3,1,524,5,0,0,1,650
1805,3,1,525,32,0,0,1,979
1806,3,1,526,5,1,1,1,463
1807,3,1,527,32,0,0,1,813
1808,3,1,528,20,1,1,1,351
1809,3,1,529,1,1,1,1,930
1810,3,1,530,1,0,0,1,521
1811,3,1,531,10,0,0,1,448
1812,3,1,532,2,1,1,1,487
1813,3,1,533,10,0,0,1,2005
1814,3,1,534,32,1,1,1,674
1815,3,1,535,10,0,0,1,543
1816,3,1,536,2,1,1,1,430
1817,3,1,537,32,1,1,1,402
1818,3,1,538,20,1,1,1,1124
1819,3,1,539,1,0,0,1,569
1820,3,1,540,5,1,1,1,1452
1821,3,1,541,20,1,1,1,433
1822,3,1,542,20,1,1,1,657
1823,3,1,543,5,1,1,1,777
1824,3,1,544,20,0,0,1,906
1825,3,1,545,10,1,1,1,460
1826,3,1,546,10,1,1,1,716
1827,3,1,547,5,1,1,1,969
1828,3,1,548,10,0,0,1,555
1829,3,1,549,32,0,0,1,989
1830,3,1,550,32,1,1,1,982
1831,3,1,551,2,0,0,1,757
1832,3,1,552,1,0,0,1,419
1833,3,1,553,32,0,0,1,497
1834,3,1,554,2,0,0,1,311
1835,3,1,555,5,1,1,1,491
1836,3,1,556,32,1,1,1,450
1837,3,1,557,32,0,0,1,449
1838,3,1,558,20,1,1,1,387
1839,3,1,559,32,1,1,1,509
1840,3,1,560,20,0,0,1,583
1841,3,1,561,32,0,0,1,839
1842,3,1,562,1,1,1,1,434
1843,3,1,563,20,0,0,1,471
1844,3,1,564,1,0,0,1,589
1845,3,1,565,10,0,0,1,391
1846,3,1,566,32,1,1,0,350
1847,3,1,567,10,1,1,1,616
1848,3,1,568,10,0,0,1,471
1849,3,1,569,32,0,0,1,402
1850,3,1,570,32,0,0,1,386
1851,3,1,571,2,0,0,1,394
1852,3,1,572,2,1,1,1,603
1853,3,1,573,20,0,0,1,583
1854,3,1,574,5,0,0,1,655
1855,3,1,575,5,1,1,1,467
1856,3,1,576,5,0,0,1,413
1857,3,1,577,10,0,0,1,407
1858,3,1,578,2,0,0,1,352
1859,3,1,579,20,1,1,1,580
1860,3,1,580,20,0,0,1,430
1861,3,1,581,10,0,0,1,357
1862,3,1,582,5,0,0,1,387
1863,3,1,583,5,1,1,1,946
1864,3,1,584,10,1,1,1,867
1865,3,1,585,2,1,1,1,401
1866,3,1,586,32,1,1,1,1542
1867,3,1,587,32,0,0,1,1054
1868,3,1,588,2,1,1,1,394
1869,3,1,589,10,1,1,1,374
1870,3,1,590,32,0,0,1,434
1871,3,1,591,32,1,1,1,445
1872,3,1,592,32,1,1,1,463
1873,3,1,593,20,0,0,1,369
1874,3,1,594,2,0,0,1,355
1875,3,1,595,5,1,1,1,401
1876,3,1,596,2,0,0,1,405
1877,3,1,597,10,0,0,1,480
1878,3,1,598,20,0,0,1,404
1879,3,1,599,5,1,1,1,1042
1880,3,1,600,20,0,0,1,381
1881,3,1,601,5,0,0,1,1447
1882,3,1,602,2,1,1,1,373
1883,3,1,603,5,0,0,1,380
1884,3,1,604,5,1,1,1,390
1885,3,1,605,10,1,1,1,824
1886,3,1,606,10,1,1,1,938
1887,3,1,607,2,1,1,1,339
1888,3,1,608,20,0,0,1,864
1889,3,1,609,10,1,1,1,712
1890,3,1,610,5,1,1,1,378
1891,3,1,611,2,0,0,1,386
1892,3,1,612,20,0,0,1,625
1893,3,1,613,10,1,1,1,1519
1894,3,1,614,32,0,0,1,947
1895,3,1,615,1,0,0,1,793
1896,3,1,616,5,0,0,1,334
1897,3,1,617,5,0,0,1,386
1898,3,1,618,1,1,1,1,329
1899,3,1,619,2,0,0,1,441
1900,3,1,620,32,0,0,1,449
1901,3,1,621,2,1,1,1,372
1902,3,1,622,20,1,1,1,324
1903,3,1,623,20,0,0,1,495
1904,3,1,624,32,1,1,1,481
1905,3,1,625,2,0,0,1,423
1906,3,1,626,20,0,0,1,390
1907,3,1,627,5,1,1,1,794
1908,3,1,628,2,0,0,1,468
1909,3,1,629,20,1,1,1,799
1910,3,1,630,10,1,1,1,407
1911,3,1,631,20,0,0,1,475
1912,3,1,632,5,0,0,1,346
1913,3,1,633,10,1,1,1,807
1914,3,1,634,10,1,1,1,793
1915,3,1,635,10,1,1,1,1154
1916,3,1,636,32,0,0,1,919
1917,3,1,637,10,0,0,1,391
1918,3,1,638,5,1,1,1,528
1919,3,1,639,10,0,0,1,330
1920,3,1,640,10,1,1,1,349
1921,4,1,1,32,1,1,1,513
1922,4,1,2,10,1,1,1,437
1923,4,1,3,2,1,1,1,389
1924,4,1,4,5,0,0,1,464
1925,4,1,5,32,1,1,1,457
1926,4,1,6,10,1,1,0,340
1927,4,1,7,5,1,1,1,468
1928,4,1,8,20,0,0,1,507
1929,4,1,9,20,1,1,1,392
1930,4,1,10,20,0,0,1,522
1931,4,1,11,32,0,0,1,491
1932,4,1,12,1,0,0,1,501
1933,4,1,13,2,0,0,1,319
1934,4,1,14,32,1,1,1,377
1935,4,1,15,10,1,1,1,342
1936,4,1,16,20,1,1,1,522
1937,4,1,17,10,0,0,1,625
1938,4,1,18,32,0,0,1,470
1939,4,1,19,5,1,1,1,325
1940,4,1,20,10,0,0,1,475
1941,4,1,21,32,1,1,1,430
1942,4,1,22,10,1,1,1,431
1943,4,1,23,5,0,0,1,577
1944,4,1,24,20,0,0,1,420
1945,4,1,25,32,1,1,1,433
1946,4,1,26,32,1,1,1,370
1947,4,1,27,32,0,0,1,518
1948,4,1,28,1,1,1,1,314
1949,4,1,29,5,1,1,1,528
1950,4,1,30,10,1,1,1,422
1951,4,1,31,10,1,1,1,438
1952,4,1,32,20,1,1,1,370
1953,4,1,33,5,0,0,1,375
1954,4,1,34,10,1,1,1,411
1955,4,1,35,5,0,0,1,370
1956,4,1,36,20,1,1,1,522
1957,4,1,37,10,1,1,1,472
1958,4,1,38,32,0,0,1,410
1959,4,1,39,2,1,1,1,340
1960,4,1,40,5,0,0,1,315
1961,4,1,41,5,1,1,1,613
1962,4,1,42,5,1,1,1,490
1963,4,1,43,2,0,0,1,359
1964,4,1,44,10,0,0,1,437
1965,4,1,45,5,1,1,1,537
1966,4,1,46,5,1,1,1,545
1967,4,1,47,5,0,0,1,335
1968,4,1,48,2,0,0,1,599
1969,4,1,49,10,0,0,1,546
1970,4,1,50,10,0,0,1,434
1971,4,1,51,5,0,0,1,792
1972,4,1,52,1,0,0,1,397
1973,4,1,53,20,0,0,1,457
1974,4,1,54,32,1,1,1,464
1975,4,1,55,32,0,0,1,449
1976,4,1,56,32,1,1,1,423
1977,4,1,57,5,0,0,1,366
1978,4,1,58,32,1,1,1,385
1979,4,1,59,32,1,1,1,509
1980,4,1,60,10,1,1,1,543
1981,4,1,61,32,0,0,1,493
1982,4,1,62,5,0,0,1,395
1983,4,1,63,2,0,0,1,424
1984,4,1,64,2,1,1,1,367
1985,4,1,65,2,1,1,1,519
1986,4,1,66,5,0,0,1,419
1987,4,1,67,10,0,0,1,369
1988,4,1,68,20,0,0,1,514
1989,4,1,69,20,1,1,1,599
1990,4,1,70,10,0,0,1,375
1991,4,1,71,5,0,0,1,416
1992,4,1,72,32,1,1,1,464
1993,4,1,73,5,0,0,1,496
1994,4,1,74,32,0,0,1,486
1995,4,1,75,2,0,0,1,391
1996,4,1,76,5,0,0,1,484
1997,4,1,77,20,0,0,1,482
1998,4,1,78,2,1,1,1,392
1999,4,1,79,5,1,1,1,469
2000,4,1,80,5,0,0,1,428
2001,4,1,81,10,0,0,1,474
2002,4,1,82,10,0,0,1,456
2003,4,1,83,10,1,1,1,473
2004,4,1,84,2,1,1,1,412
2005,4,1,85,32,0,0,1,407
2006,4,1,86,2,0,0,1,419
2007,4,1,87,32,0,0,1,480
2008,4,1,88,1,1,1,1,438
2009,4,1,89,2,1,1,1,482
2010,4,1,90,32,0,0,1,438
2011,4,1,91,20,1,1,1,838
2012,4,1,92,20,0,0,1,405
2013,4,1,93,20,1,1,1,447
2014,4,1,94,32,1,1,1,719
2015,4,1,95,32,0,0,1,531
2016,4,1,96,32,1,1,1,758
2017,4,1,97,5,1,1,1,583
2018,4,1,98,32,0,0,1,493
2019,4,1,99,5,1,1,1,394
2020,4,1,100,10,0,0,1,507
2021,4,1,101,5,0,0,1,466
2022,4,1,102,20,1,1,1,473
2023,4,1,103,10,0,0,1,434
2024,4,1,104,5,1,1,1,410
2025,4,1,105,20,0,0,1,394
2026,4,1,106,10,0,0,1,368
2027,4,1,107,2,1,1,1,383
2028,4,1,108,20,1,1,1,468
2029,4,1,109,20,1,1,1,511
2030,4,1,110,5,0,0,1,414
2031,4,1,111,5,0,0,1,667
2032,4,1,112,10,1,1,1,401
2033,4,1,113,20,0,0,1,465
2034,4,1,114,32,1,1,1,566
2035,4,1,115,10,0,0,1,409
2036,4,1,116,20,1,1,1,483
2037,4,1,117,2,0,0,1,462
2038,4,1,118,10,0,0,1,447
2039,4,1,119,20,0,0,1,433
2040,4,1,120,5,0,0,1,368
2041,4,1,121,2,0,0,1,446
2042,4,1,122,5,0,0,1,411
2043,4,1,123,10,0,0,1,344
2044,4,1,124,1,1,1,1,390
2045,4,1,125,5,0,0,1,330
2046,4,1,126,5,0,0,1,594
2047,4,1,127,2,1,1,1,406
2048,4,1,128,10,1,1,1,528
2049,4,1,129,2,1,1,1,389
2050,4,1,130,5,1,1,0,358
2051,4,1,131,1,0,0,1,373
2052,4,1,132,2,0,0,1,367
2053,4,1,133,5,1,1,1,406
2054,4,1,134,20,0,0,1,393
2055,4,1,135,32,1,1,1,422
2056,4,1,136,20,1,1,1,652
2057,4,1,137,2,0,0,1,344
2058,4,1,138,2,1,1,1,434
2059,4,1,139,20,1,1,1,516
2060,4,1,140,5,1,1,1,360
2061,4,1,141,5,0,0,1,371
2062,4,1,142,10,1,1,1,479
2063,4,1,143,20,0,0,1,520
2064,4,1,144,20,0,0,1,430
2065,4,1,145,5,1,1,1,374
2066,4,1,146,1,0,0,1,583
2067,4,1,147,1,0,0,1,348
2068,4,1,148,2,0,0,1,324
2069,4,1,149,5,0,0,1,429
2070,4,1,150,32,1,1,1,494
2071,4,1,151,20,0,0,1,429
2072,4,1,152,5,1,1,1,373
2073,4,1,153,2,1,1,1,577
2074,4,1,154,20,1,1,1,492
2075,4,1,155,5,0,0,1,485
2076,4,1,156,20,1,1,1,487
2077,4,1,157,2,0,0,1,568
2078,4,1,158,20,1,1,1,517
2079,4,1,159,5,1,1,1,471
2080,4,1,160,5,0,0,1,453
2081,4,1,161,5,0,0,1,384
2082,4,1,162,32,1,1,1,486
2083,4,1,163,10,0,0,1,388
2084,4,1,164,2,0,0,1,432
2085,4,1,165,10,1,1,1,516
2086,4,1,166,10,0,0,1,591
2087,4,1,167,5,1,1,1,370
2088,4,1,168,20,1,1,1,506
2089,4,1,169,32,0,0,1,543
2090,4,1,170,5,0,0,1,409
2091,4,1,171,32,1,1,1,446
2092,4,1,172,20,1,1,1,505
2093,4,1,173,1,0,0,1,371
2094,4,1,174,32,1,1,1,396
2095,4,1,175,5,1,1,1,446
2096,4,1,176,10,0,0,1,568
2097,4,1,177,5,1,1,1,373
2098,4,1,178,10,0,0,1,393
2099,4,1,179,10,0,0,1,430
2100,4,1,180,10,1,1,1,488
2101,4,1,181,32,1,1,1,569
2102,4,1,182,20,0,0,1,419
2103,4,1,183,5,0,0,1,478
2104,4,1,184,5,0,0,1,389
2105,4,1,185,10,1,1,1,439
2106,4,1,186,5,1,1,1,517
2107,4,1,187,32,0,0,1,489
2108,4,1,188,5,1,1,1,452
2109,4,1,189,2,1,1,1,448
2110,4,1,190,2,1,1,1,387
2111,4,1,191,32,0,0,1,437
2112,4,1,192,10,0,0,1,458
2113,4,1,193,1,0,0,1,372
2114,4,1,194,5,0,0,1,457
2115,4,1,195,5,0,0,1,450
2116,4,1,196,10,1,1,1,602
2117,4,1,197,5,1,1,1,449
2118,4,1,198,10,0,0,1,469
2119,4,1,199,20,0,0,1,419
2120,4,1,200,20,1,1,1,388
2121,4,1,201,2,0,0,1,420
2122,4,1,202,20,1,1,1,402
2123,4,1,203,5,1,1,1,440
2124,4,1,204,32,0,0,1,509
2125,4,1,205,5,1,1,1,391
2126,4,1,206,2,1,1,1,414
2127,4,1,207,2,1,1,1,340
2128,4,1,208,10,1,1,1,543
2129,4,1,209,1,0,0,1,390
2130,4,1,210,2,1,1,1,339
2131,4,1,211,32,0,0,1,423
2132,4,1,212,20,0,0,1,525
2133,4,1,213,32,0,0,1,461
2134,4,1,214,32,0,0,1,390
2135,4,1,215,5,0,0,1,482
2136,4,1,216,5,0,0,1,421
2137,4,1,217,5,0,0,1,389
2138,4,1,218,20,0,0,1,370
2139,4,1,219,32,1,1,1,607
2140,4,1,220,20,0,0,1,426
2141,4,1,221,32,0,0,1,446
2142,4,1,222,20,0,0,1,369
2143,4,1,223,10,1,1,1,497
2144,4,1,224,1,0,0,1,478
2145,4,1,225,5,0,0,1,446
2146,4,1,226,10,0,0,1,424
2147,4,1,227,10,0,0,1,500
2148,4,1,228,32,1,1,1,584
2149,4,1,229,10,1,1,1,584
2150,4,1,230,2,1,1,1,419
2151,4,1,231,2,1,1,1,375
2152,4,1,232,1,1,1,1,349
2153,4,1,233,2,1,1,1,381
2154,4,1,234,10,1,1,1,439
2155,4,1,235,20,0,0,1,586
2156,4,1,236,2,0,0,1,429
2157,4,1,237,32,1,1,1,470
2158,4,1,238,5,1,1,1,553
2159,4,1,239,20,0,0,1,469
2160,4,1,240,32,0,0,1,506
2161,4,1,241,2,0,0,1,33
2162,4,1,242,20,0,0,1,573
2163,4,1,243,20,1,1,1,495
2164,4,1,244,10,1,1,1,491
2165,4,1,245,32,1,1,1,584
2166,4,1,246,2,1,1,1,383
2167,4,1,247,2,1,1,1,399
2168,4,1,248,2,1,1,1,353
2169,4,1,249,20,1,1,1,425
2170,4,1,250,2,1,1,1,428
2171,4,1,251,10,0,0,1,491
2172,4,1,252,10,0,0,1,492
2173,4,1,253,20,1,1,1,439
2174,4,1,254,32,1,1,1,429
2175,4,1,255,20,0,0,1,495
2176,4,1,256,2,1,1,1,530
2177,4,1,257,2,1,1,1,519
2178,4,1,258,1,1,1,1,471
2179,4,1,259,20,0,0,1,459
2180,4,1,260,2,0,0,1,497
2181,4,1,261,10,1,1,1,578
2182,4,1,262,10,1,1,1,555
2183,4,1,263,20,1,1,1,489
2184,4,1,264,10,1,1,1,482
2185,4,1,265,20,1,1,1,477
2186,4,1,266,10,1,1,1,458
2187,4,1,267,20,1,1,1,433
2188,4,1,268,10,0,0,1,638
2189,4,1,269,32,0,0,1,489
2190,4,1,270,5,1,1,1,419
2191,4,1,271,1,1,1,1,601
2192,4,1,272,1,1,1,1,337
2193,4,1,273,32,1,1,1,490
2194,4,1,274,10,1,1,1,411
2195,4,1,275,20,0,0,1,477
2196,4,1,276,5,0,0,1,398
2197,4,1,277,10,1,1,1,569
2198,4,1,278,10,1,1,1,426
2199,4,1,279,2,1,1,1,411
2200,4,1,280,32,0,0,1,471
2201,4,1,281,10,0,0,1,530
2202,4,1,282,5,1,1,1,444
2203,4,1,283,20,0,0,1,492
2204,4,1,284,10,0,0,1,465
2205,4,1,285,2,0,0,1,492
2206,4,1,286,1,1,1,1,1859
2207,4,1,287,32,1,1,1,526
2208,4,1,288,20,0,0,1,410
2209,4,1,289,2,1,1,1,437
2210,4,1,290,20,0,0,1,397
2211,4,1,291,1,0,0,1,428
2212,4,1,292,5,0,0,1,386
2213,4,1,293,32,0,0,1,450
2214,4,1,294,1,0,0,1,372
2215,4,1,295,20,0,0,1,353
2216,4,1,296,10,0,0,1,654
2217,4,1,297,10,1,1,1,436
2218,4,1,298,5,1,1,1,481
2219,4,1,299,5,1,1,1,419
2220,4,1,300,2,0,0,1,394
2221,4,1,301,5,0,0,1,456
2222,4,1,302,20,1,1,1,633
2223,4,1,303,32,1,1,1,626
2224,4,1,304,5,0,0,1,358
2225,4,1,305,10,0,0,1,423
2226,4,1,306,2,0,0,1,491
2227,4,1,307,2,1,1,1,382
2228,4,1,308,10,1,1,1,693
2229,4,1,309,20,1,1,1,427
2230,4,1,310,32,1,1,1,450
2231,4,1,311,2,1,1,1,392
2232,4,1,312,10,0,0,1,489
2233,4,1,313,10,1,1,1,407
2234,4,1,314,32,1,1,1,470
2235,4,1,315,20,0,0,1,536
2236,4,1,316,5,1,1,1,531
2237,4,1,317,32,1,1,1,598
2238,4,1,318,2,0,0,1,351
2239,4,1,319,2,1,1,1,550
2240,4,1,320,20,1,1,1,578
2241,4,1,321,5,0,0,1,410
2242,4,1,322,2,0,0,1,428
2243,4,1,323,10,1,1,1,432
2244,4,1,324,32,1,1,1,628
2245,4,1,325,20,1,1,1,458
2246,4,1,326,2,0,0,1,513
2247,4,1,327,1,1,1,1,389
2248,4,1,328,5,1,1,1,396
2249,4,1,329,10,1,1,1,402
2250,4,1,330,20,0,0,1,396
2251,4,1,331,32,0,0,1,363
2252,4,1,332,32,1,1,1,538
2253,4,1,333,5,1,1,1,574
2254,4,1,334,20,1,1,1,513
2255,4,1,335,20,0,0,1,470
2256,4,1,336,20,1,1,1,701
2257,4,1,337,20,1,1,1,526
2258,4,1,338,5,1,1,1,373
2259,4,1,339,20,0,0,1,528
2260,4,1,340,2,0,0,1,419
2261,4,1,341,20,0,0,1,446
2262,4,1,342,20,1,1,1,663
2263,4,1,343,5,0,0,1,440
2264,4,1,344,20,1,1,1,534
2265,4,1,345,32,1,1,1,637
2266,4,1,346,5,0,0,1,414
2267,4,1,347,20,1,1,1,569
2268,4,1,348,2,0,0,1,417
2269,4,1,349,2,0,0,1,362
2270,4,1,350,32,0,0,1,512
2271,4,1,351,1,1,1,1,352
2272,4,1,352,2,1,1,1,379
2273,4,1,353,32,0,0,1,425
2274,4,1,354,5,0,0,1,440
2275,4,1,355,10,1,1,1,410
2276,4,1,356,2,1,1,1,454
2277,4,1,357,20,1,1,1,370
2278,4,1,358,1,1,1,1,465
2279,4,1,359,5,1,1,1,569
2280,4,1,360,5,0,0,1,443
2281,4,1,361,5,1,1,1,418
2282,4,1,362,10,0,0,1,779
2283,4,1,363,32,0,0,1,465
2284,4,1,364,2,0,0,1,387
2285,4,1,365,2,0,0,1,392
2286,4,1,366,2,0,0,1,569
2287,4,1,367,1,0,0,1,354
2288,4,1,368,32,1,1,1,716
2289,4,1,369,20,0,0,1,406
2290,4,1,370,1,1,1,1,375
2291,4,1,371,5,0,0,1,356
2292,4,1,372,5,1,1,1,443
2293,4,1,373,1,1,1,1,403
2294,4,1,374,10,1,1,1,403
2295,4,1,375,5,1,1,1,426
2296,4,1,376,2,0,0,1,485
2297,4,1,377,20,1,1,1,408
2298,4,1,378,32,1,1,1,388
2299,4,1,379,32,0,0,1,537
2300,4,1,380,10,0,0,1,405
2301,4,1,381,5,1,1,1,574
2302,4,1,382,20,0,0,1,365
2303,4,1,383,2,0,0,1,364
2304,4,1,384,2,0,0,1,418
2305,4,1,385,10,1,1,1,400
2306,4,1,386,10,0,0,1,440
2307,4,1,387,20,0,0,1,524
2308,4,1,388,2,1,1,1,704
2309,4,1,389,5,1,1,1,762
2310,4,1,390,10,0,0,1,350
2311,4,1,391,5,0,0,1,345
2312,4,1,392,20,1,1,1,453
2313,4,1,393,10,0,0,1,380
2314,4,1,394,10,1,1,1,400
2315,4,1,395,32,0,0,1,425
2316,4,1,396,32,0,0,1,561
2317,4,1,397,2,0,0,1,412
2318,4,1,398,10,1,1,1,473
2319,4,1,399,32,0,0,1,511
2320,4,1,400,1,0,0,1,329
2321,4,1,401,32,0,0,1,435
2322,4,1,402,2,0,0,1,419
2323,4,1,403,5,1,1,1,622
2324,4,1,404,10,1,1,1,490
2325,4,1,405,2,0,0,1,313
2326,4,1,406,2,0,0,1,351
2327,4,1,407,2,0,0,1,292
2328,4,1,408,32,0,0,1,459
2329,4,1,409,10,1,1,1,383
2330,4,1,410,10,0,0,1,433
2331,4,1,411,32,0,0,1,562
2332,4,1,412,2,1,1,1,643
2333,4,1,413,5,1,1,1,460
2334,4,1,414,2,0,0,1,413
2335,4,1,415,10,1,1,1,431
2336,4,1,416,32,1,1,1,525
2337,4,1,417,5,1,1,1,622
2338,4,1,418,2,0,0,1,552
2339,4,1,419,2,1,1,1,364
2340,4,1,420,20,0,0,1,369
2341,4,1,421,10,0,0,1,343
2342,4,1,422,20,0,0,1,425
2343,4,1,423,10,1,1,1,412
2344,4,1,424,10,0,0,1,326
2345,4,1,425,2,0,0,1,433
2346,4,1,426,10,1,1,1,438
2347,4,1,427,32,1,1,1,465
2348,4,1,428,5,1,1,1,531
2349,4,1,429,10,1,1,1,389
2350,4,1,430,10,0,0,1,432
2351,4,1,431,32,1,1,1,365
2352,4,1,432,32,1,1,1,496
2353,4,1,433,32,0,0,1,494
2354,4,1,434,20,1,1,1,439
2355,4,1,435,5,0,0,1,576
2356,4,1,436,32,1,1,1,566
2357,4,1,437,1,1,1,1,382
2358,4,1,438,32,1,1,1,490
2359,4,1,439,20,1,1,1,566
2360,4,1,440,5,1,1,1,382
2361,4,1,441,2,0,0,1,462
2362,4,1,442,2,0,0,1,513
2363,4,1,443,10,0,0,1,587
2364,4,1,444,1,0,0,1,397
2365,4,1,445,2,0,0,1,347
2366,4,1,446,10,0,0,1,472
2367,4,1,447,20,1,1,1,420
2368,4,1,448,2,0,0,1,509
2369,4,1,449,2,0,0,1,480
2370,4,1,450,2,0,0,1,400
2371,4,1,451,1,1,1,1,534
2372,4,1,452,20,0,0,1,437
2373,4,1,453,32,1,1,1,405
2374,4,1,454,2,0,0,1,454
2375,4,1,455,5,1,1,1,369
2376,4,1,456,32,1,1,1,551
2377,4,1,457,32,0,0,1,474
2378,4,1,458,5,1,1,1,442
2379,4,1,459,5,1,1,1,458
2380,4,1,460,32,1,1,1,475
2381,4,1,461,1,0,0,1,462
2382,4,1,462,1,0,0,1,388
2383,4,1,463,20,1,1,1,717
2384,4,1,464,32,0,0,1,370
2385,4,1,465,32,0,0,1,389
2386,4,1,466,2,0,0,1,377
2387,4,1,467,10,1,1,1,452
2388,4,1,468,10,0,0,1,441
2389,4,1,469,5,1,1,1,377
2390,4,1,470,20,0,0,1,434
2391,4,1,471,20,0,0,1,416
2392,4,1,472,5,0,0,1,350
2393,4,1,473,2,1,1,1,472
2394,4,1,474,32,1,1,1,517
2395,4,1,475,32,0,0,1,396
2396,4,1,476,2,1,1,1,406
2397,4,1,477,32,0,0,1,326
2398,4,1,478,10,0,0,1,494
2399,4,1,479,5,1,1,1,418
2400,4,1,480,20,0,0,1,399
2401,4,1,481,32,0,0,1,492
2402,4,1,482,5,0,0,1,331
2403,4,1,483,2,0,0,1,429
2404,4,1,484,20,1,1,1,434
2405,4,1,485,20,1,1,1,591
2406,4,1,486,32,0,0,1,498
2407,4,1,487,5,1,1,1,532
2408,4,1,488,2,1,1,1,488
2409,4,1,489,20,1,1,1,633
2410,4,1,490,2,1,1,1,459
2411,4,1,491,10,1,1,1,337
2412,4,1,492,2,0,0,1,416
2413,4,1,493,32,0,0,1,478
2414,4,1,494,5,0,0,1,614
2415,4,1,495,32,0,0,1,453
2416,4,1,496,10,1,1,1,432
2417,4,1,497,32,0,0,1,1397
2418,4,1,498,2,1,1,1,2326
2419,4,1,499,10,1,1,1,444
2420,4,1,500,5,1,1,1,353
2421,4,1,501,2,0,0,1,459
2422,4,1,502,32,1,1,1,518
2423,4,1,503,32,0,0,1,444
2424,4,1,504,5,0,0,1,531
2425,4,1,505,32,0,0,1,436
2426,4,1,506,10,1,1,1,451
2427,4,1,507,5,1,1,1,398
2428,4,1,508,10,1,1,1,584
2429,4,1,509,2,1,1,1,508
2430,4,1,510,20,1,1,1,377
2431,4,1,511,20,0,0,1,477
2432,4,1,512,32,0,0,1,395
2433,4,1,513,2,1,1,1,345
2434,4,1,514,2,0,0,1,536
2435,4,1,515,5,1,1,1,365
2436,4,1,516,20,1,1,1,445
2437,4,1,517,2,1,1,1,399
2438,4,1,518,10,0,0,1,475
2439,4,1,519,20,1,1,1,557
2440,4,1,520,10,1,1,1,489
2441,4,1,521,20,0,0,1,577
2442,4,1,522,32,1,1,1,407
2443,4,1,523,2,0,0,1,412
2444,4,1,524,10,0,0,1,486
2445,4,1,525,2,0,0,1,348
2446,4,1,526,10,0,0,1,373
2447,4,1,527,20,0,0,1,360
2448,4,1,528,20,1,1,1,660
2449,4,1,529,20,1,1,1,502
2450,4,1,530,1,1,1,1,422
2451,4,1,531,32,0,0,1,434
2452,4,1,532,10,0,0,1,534
2453,4,1,533,2,1,1,1,366
2454,4,1,534,20,0,0,1,397
2455,4,1,535,10,0,0,1,360
2456,4,1,536,20,1,1,0,324
2457,4,1,537,10,0,0,1,392
2458,4,1,538,1,0,0,1,377
2459,4,1,539,2,1,1,1,348
2460,4,1,540,10,1,1,1,605
2461,4,1,541,5,1,1,1,459
2462,4,1,542,1,0,0,1,443
2463,4,1,543,5,0,0,1,351
2464,4,1,544,32,1,1,1,419
2465,4,1,545,32,1,1,1,518
2466,4,1,546,2,0,0,1,559
2467,4,1,547,20,1,1,1,401
2468,4,1,548,5,1,1,1,392
2469,4,1,549,10,1,1,1,342
2470,4,1,550,2,1,1,1,445
2471,4,1,551,10,0,0,1,467
2472,4,1,552,2,1,1,1,403
2473,4,1,553,32,1,1,1,458
2474,4,1,554,2,1,1,1,384
2475,4,1,555,5,1,1,1,408
2476,4,1,556,32,0,0,1,562
2477,4,1,557,5,1,1,1,414
2478,4,1,558,5,1,1,1,796
2479,4,1,559,5,0,0,1,448
2480,4,1,560,10,0,0,1,384
2481,4,1,561,10,1,1,1,409
2482,4,1,562,32,0,0,1,386
2483,4,1,563,2,0,0,1,378
2484,4,1,564,1,1,1,1,394
2485,4,1,565,32,1,1,1,408
2486,4,1,566,20,0,0,1,462
2487,4,1,567,2,1,1,1,424
2488,4,1,568,2,0,0,1,323
2489,4,1,569,32,1,1,1,465
2490,4,1,570,20,0,0,1,467
2491,4,1,571,32,1,1,1,455
2492,4,1,572,10,0,0,1,410
2493,4,1,573,2,1,1,1,427
2494,4,1,574,20,0,0,1,365
2495,4,1,575,20,0,0,1,454
2496,4,1,576,32,1,1,1,566
2497,4,1,577,20,1,1,1,514
2498,4,1,578,2,1,1,1,364
2499,4,1,579,1,1,1,1,337
2500,4,1,580,32,1,1,1,370
2501,4,1,581,10,0,0,1,555
2502,4,1,582,20,0,0,1,389
2503,4,1,583,32,0,0,1,497
2504,4,1,584,20,1,1,1,420
2505,4,1,585,1,0,0,1,371
2506,4,1,586,32,1,1,1,402
2507,4,1,587,2,0,0,1,321
2508,4,1,588,10,0,0,1,372
2509,4,1,589,10,1,1,1,353
2510,4,1,590,32,0,0,1,406
2511,4,1,591,10,0,0,1,484
2512,4,1,592,5,0,0,1,407
2513,4,1,593,5,0,0,1,331
2514,4,1,594,10,1,1,1,377
2515,4,1,595,10,0,0,1,391
2516,4,1,596,2,1,1,1,386
2517,4,1,597,10,0,0,1,333
2518,4,1,598,20,0,0,1,448
2519,4,1,599,2,0,0,1,541
2520,4,1,600,2,1,1,1,728
2521,4,1,601,20,1,1,1,552
2522,4,1,602,32,0,0,1,442
2523,4,1,603,5,0,0,1,440
2524,4,1,604,5,0,0,1,477
2525,4,1,605,2,1,1,1,624
2526,4,1,606,2,1,1,1,425
2527,4,1,607,5,1,1,1,430
2528,4,1,608,32,1,1,1,404
2529,4,1,609,1,0,0,1,305
2530,4,1,610,2,1,1,1,351
2531,4,1,611,20,1,1,1,508
2532,4,1,612,20,0,0,1,413
2533,4,1,613,32,0,0,1,525
2534,4,1,614,20,0,0,1,448
2535,4,1,615,20,0,0,1,388
2536,4,1,616,32,0,0,1,420
2537,4,1,617,32,0,0,1,428
2538,4,1,618,10,1,1,1,455
2539,4,1,619,1,1,1,1,627
2540,4,1,620,5,0,0,1,371
2541,4,1,621,2,1,1,1,379
2542,4,1,622,20,1,1,1,363
2543,4,1,623,2,0,0,1,448
2544,4,1,624,32,0,0,1,420
2545,4,1,625,32,1,1,1,375
2546,4,1,626,10,1,1,1,371
2547,4,1,627,2,1,1,1,445
2548,4,1,628,32,0,0,1,499
2549,4,1,629,32,1,1,1,344
2550,4,1,630,1,1,1,1,362
2551,4,1,631,2,1,1,1,486
2552,4,1,632,20,0,0,1,516
2553,4,1,633,10,1,1,1,363
2554,4,1,634,5,0,0,1,407
2555,4,1,635,5,0,0,1,382
2556,4,1,636,20,0,0,1,389
2557,4,1,637,20,0,0,1,411
2558,4,1,638,10,0,0,1,404
2559,4,1,639,20,1,1,1,578
2560,4,1,640,20,1,1,1,461
2561,5,1,1,10,1,1,1,459
2562,5,1,2,2,1,1,1,459
2563,5,1,3,2,1,1,1,455
2564,5,1,4,5,1,1,1,357
2565,5,1,5,5,1,1,1,358
2566,5,1,6,10,0,0,1,461
2567,5,1,7,10,1,1,1,447
2568,5,1,8,5,1,1,1,359
2569,5,1,9,20,1,1,1,329
2570,5,1,10,10,0,0,1,388
2571,5,1,11,10,1,1,1,299
2572,5,1,12,32,0,0,1,411
2573,5,1,13,10,0,0,1,442
2574,5,1,14,20,0,0,1,470
2575,5,1,15,20,0,0,1,474
2576,5,1,16,5,0,0,1,489
2577,5,1,17,5,0,0,1,392
2578,5,1,18,10,1,1,1,833
2579,5,1,19,5,1,1,1,395
2580,5,1,20,5,1,1,1,436
2581,5,1,21,2,1,1,1,450
2582,5,1,22,2,0,0,1,361
2583,5,1,23,20,1,1,1,359
2584,5,1,24,32,0,0,1,483
2585,5,1,25,2,1,1,1,494
2586,5,1,26,1,1,1,1,414
2587,5,1,27,1,1,1,1,458
2588,5,1,28,2,0,0,1,339
2589,5,1,29,20,1,1,1,394
2590,5,1,30,5,1,1,1,416
2591,5,1,31,2,1,1,1,377
2592,5,1,32,10,1,1,1,283
2593,5,1,33,20,1,1,1,417
2594,5,1,34,2,0,0,1,371
2595,5,1,35,5,1,1,1,348
2596,5,1,36,5,0,0,1,473
2597,5,1,37,32,0,0,1,511
2598,5,1,38,2,0,0,1,411
2599,5,1,39,32,1,1,1,383
2600,5,1,40,20,1,1,1,510
2601,5,1,41,32,0,0,1,599
2602,5,1,42,5,0,0,1,483
2603,5,1,43,2,1,1,1,353
2604,5,1,44,10,1,1,1,483
2605,5,1,45,1,0,0,1,414
2606,5,1,46,10,1,1,1,364
2607,5,1,47,5,1,1,1,371
2608,5,1,48,20,0,0,1,452
2609,5,1,49,2,1,1,1,332
2610,5,1,50,5,0,0,1,449
2611,5,1,51,5,1,1,1,351
2612,5,1,52,2,0,0,1,419
2613,5,1,53,5,0,0,1,463
2614,5,1,54,32,0,0,1,416
2615,5,1,55,1,0,0,1,440
2616,5,1,56,10,1,1,1,565
2617,5,1,57,5,1,1,1,455
2618,5,1,58,2,0,0,1,455
2619,5,1,59,32,0,0,1,446
2620,5,1,60,10,1,1,1,398
2621,5,1,61,2,1,1,1,427
2622,5,1,62,20,0,0,1,440
2623,5,1,63,10,0,0,1,597
2624,5,1,64,1,1,1,1,390
2625,5,1,65,10,0,0,1,515
2626,5,1,66,2,1,1,1,524
2627,5,1,67,20,0,0,1,449
2628,5,1,68,5,1,1,1,511
2629,5,1,69,20,0,0,1,443
2630,5,1,70,1,1,1,1,393
2631,5,1,71,10,1,1,1,562
2632,5,1,72,32,1,1,1,440
2633,5,1,73,32,0,0,1,417
2634,5,1,74,2,1,1,1,422
2635,5,1,75,20,0,0,1,532
2636,5,1,76,32,0,0,1,468
2637,5,1,77,20,0,0,1,375
2638,5,1,78,32,0,0,1,505
2639,5,1,79,20,1,1,1,676
2640,5,1,80,10,1,1,1,491
2641,5,1,81,1,0,0,1,497
2642,5,1,82,5,1,1,1,500
2643,5,1,83,20,0,0,1,474
2644,5,1,84,1,1,1,1,340
2645,5,1,85,20,0,0,1,325
2646,5,1,86,5,0,0,1,372
2647,5,1,87,10,0,0,1,631
2648,5,1,88,2,0,0,1,441
2649,5,1,89,5,1,1,1,443
2650,5,1,90,2,0,0,1,434
2651,5,1,91,2,1,1,1,560
2652,5,1,92,20,0,0,1,365
2653,5,1,93,32,1,1,1,414
2654,5,1,94,32,1,1,1,433
2655,5,1,95,1,1,1,1,380
2656,5,1,96,2,0,0,1,552
2657,5,1,97,1,1,1,1,484
2658,5,1,98,5,0,0,1,473
2659,5,1,99,20,0,0,1,509
2660,5,1,100,5,1,1,1,479
2661,5,1,101,2,1,1,1,472
2662,5,1,102,2,1,1,1,448
2663,5,1,103,5,1,1,1,500
2664,5,1,104,2,1,1,1,377
2665,5,1,105,20,1,1,1,512
2666,5,1,106,20,1,1,1,400
2667,5,1,107,10,1,1,1,443
2668,5,1,108,20,1,1,1,420
2669,5,1,109,5,0,0,1,437
2670,5,1,110,1,1,1,1,437
2671,5,1,111,20,0,0,1,483
2672,5,1,112,32,1,1,1,495
2673,5,1,113,32,1,1,1,446
2674,5,1,114,32,1,1,1,434
2675,5,1,115,10,0,0,1,391
2676,5,1,116,20,0,0,1,626
2677,5,1,117,10,1,1,1,490
2678,5,1,118,32,1,1,1,424
2679,5,1,119,2,0,0,1,478
2680,5,1,120,5,0,0,1,476
2681,5,1,121,5,1,1,1,400
2682,5,1,122,2,0,0,1,419
2683,5,1,123,10,1,1,1,404
2684,5,1,124,20,1,1,1,442
2685,5,1,125,32,0,0,1,490
2686,5,1,126,10,0,0,1,567
2687,5,1,127,10,0,0,1,489
2688,5,1,128,32,1,1,1,486
2689,5,1,129,2,0,0,1,432
2690,5,1,130,20,1,1,1,542
2691,5,1,131,10,0,0,1,471
2692,5,1,132,5,0,0,1,504
2693,5,1,133,20,0,0,1,734
2694,5,1,134,2,0,0,1,380
2695,5,1,135,20,1,1,1,487
2696,5,1,136,1,0,0,1,462
2697,5,1,137,10,0,0,1,570
2698,5,1,138,32,0,0,1,446
2699,5,1,139,2,0,0,1,393
2700,5,1,140,32,0,0,1,382
2701,5,1,141,5,0,0,1,529
2702,5,1,142,20,0,0,1,562
2703,5,1,143,20,0,0,1,385
2704,5,1,144,20,1,1,1,475
2705,5,1,145,32,0,0,1,547
2706,5,1,146,10,0,0,1,461
2707,5,1,147,5,1,1,1,424
2708,5,1,148,2,0,0,1,389
2709,5,1,149,1,1,1,1,409
2710,5,1,150,10,0,0,1,488
2711,5,1,151,20,1,1,1,476
2712,5,1,152,2,0,0,1,472
2713,5,1,153,5,0,0,1,348
2714,5,1,154,10,0,0,1,501
2715,5,1,155,32,0,0,1,332
2716,5,1,156,5,0,0,1,359
2717,5,1,157,20,1,1,1,372
2718,5,1,158,32,0,0,1,428
2719,5,1,159,2,0,0,1,381
2720,5,1,160,2,1,1,1,434
2721,5,1,161,5,1,1,1,361
2722,5,1,162,5,0,0,1,410
2723,5,1,163,10,1,1,1,517
2724,5,1,164,1,1,1,1,514
2725,5,1,165,20,0,0,1,447
2726,5,1,166,5,0,0,1,433
2727,5,1,167,2,1,1,1,436
2728,5,1,168,5,0,0,1,401
2729,5,1,169,5,1,1,1,381
2730,5,1,170,32,1,1,1,549
2731,5,1,171,32,0,0,1,434
2732,5,1,172,20,1,1,1,518
2733,5,1,173,5,1,1,1,538
2734,5,1,174,10,0,0,1,399
2735,5,1,175,5,1,1,1,438
2736,5,1,176,10,0,0,1,450
2737,5,1,177,2,1,1,1,408
2738,5,1,178,2,0,0,1,418
2739,5,1,179,20,1,1,1,480
2740,5,1,180,20,0,0,1,481
2741,5,1,181,32,1,1,1,401
2742,5,1,182,2,0,0,1,357
2743,5,1,183,10,0,0,1,475
2744,5,1,184,5,1,1,1,647
2745,5,1,185,20,1,1,1,416
2746,5,1,186,2,1,1,1,415
2747,5,1,187,32,1,1,1,438
2748,5,1,188,2,0,0,1,389
2749,5,1,189,2,1,1,1,570
2750,5,1,190,20,1,1,1,505
2751,5,1,191,32,1,1,1,486
2752,5,1,192,20,0,0,1,536
2753,5,1,193,5,1,1,1,489
2754,5,1,194,20,1,1,1,476
2755,5,1,195,2,1,1,1,420
2756,5,1,196,5,0,0,1,528
2757,5,1,197,2,0,0,1,546
2758,5,1,198,5,0,0,1,637
2759,5,1,199,32,0,0,1,511
2760,5,1,200,20,0,0,1,480
2761,5,1,201,10,1,1,1,443
2762,5,1,202,20,0,0,1,468
2763,5,1,203,5,1,1,1,401
2764,5,1,204,20,0,0,1,411
2765,5,1,205,2,1,1,1,363
2766,5,1,206,20,0,0,1,595
2767,5,1,207,10,1,1,1,350
2768,5,1,208,5,1,1,1,383
2769,5,1,209,20,0,0,1,435
2770,5,1,210,5,0,0,1,388
2771,5,1,211,10,1,1,1,366
2772,5,1,212,5,0,0,1,457
2773,5,1,213,32,0,0,1,512
2774,5,1,214,5,1,1,1,397
2775,5,1,215,20,1,1,1,385
2776,5,1,216,5,0,0,1,407
2777,5,1,217,2,0,0,1,390
2778,5,1,218,20,1,1,1,522
2779,5,1,219,20,1,1,1,382
2780,5,1,220,32,1,1,1,450
2781,5,1,221,32,0,0,1,546
2782,5,1,222,32,1,1,1,452
2783,5,1,223,32,0,0,1,579
2784,5,1,224,10,1,1,1,398
2785,5,1,225,10,1,1,1,347
2786,5,1,226,2,1,1,1,383
2787,5,1,227,2,0,0,1,381
2788,5,1,228,10,1,1,1,394
2789,5,1,229,32,0,0,1,521
2790,5,1,230,20,0,0,1,635
2791,5,1,231,20,0,0,1,556
2792,5,1,232,32,0,0,1,383
2793,5,1,233,2,1,1,1,398
2794,5,1,234,5,0,0,1,379
2795,5,1,235,10,0,0,1,535
2796,5,1,236,32,1,1,1,611
2797,5,1,237,1,0,0,1,410
2798,5,1,238,32,1,1,1,540
2799,5,1,239,10,0,0,1,552
2800,5,1,240,5,0,0,1,654
2801,5,1,241,20,0,0,1,547
2802,5,1,242,10,1,1,1,418
2803,5,1,243,10,0,0,1,400
2804,5,1,244,2,1,1,1,372
2805,5,1,245,32,1,1,1,434
2806,5,1,246,20,0,0,1,416
2807,5,1,247,20,0,0,1,465
2808,5,1,248,32,1,1,1,500
2809,5,1,249,5,1,1,1,346
2810,5,1,250,10,0,0,1,336
2811,5,1,251,10,1,1,1,398
2812,5,1,252,1,0,0,1,292
2813,5,1,253,5,0,0,1,353
2814,5,1,254,5,1,1,1,331
2815,5,1,255,1,0,0,1,291
2816,5,1,256,20,1,1,1,383
2817,5,1,257,1,0,0,1,335
2818,5,1,258,10,1,1,1,476
2819,5,1,259,10,0,0,1,438
2820,5,1,260,1,0,0,1,378
2821,5,1,261,32,1,1,1,410
2822,5,1,262,32,0,0,1,398
2823,5,1,263,10,1,1,1,378
2824,5,1,264,2,1,1,1,372
2825,5,1,265,20,0,0,1,493
2826,5,1,266,20,1,1,1,335
2827,5,1,267,2,0,0,1,453
2828,5,1,268,2,0,0,1,566
2829,5,1,269,2,1,1,1,413
2830,5,1,270,20,0,0,1,355
2831,5,1,271,2,0,0,1,503
2832,5,1,272,10,0,0,1,363
2833,5,1,273,10,1,1,1,457
2834,5,1,274,2,0,0,1,400
2835,5,1,275,32,0,0,1,561
2836,5,1,276,2,0,0,1,455
2837,5,1,277,2,1,1,1,436
2838,5,1,278,2,1,1,1,458
2839,5,1,279,10,1,1,1,401
2840,5,1,280,2,1,1,1,505
2841,5,1,281,20,1,1,1,396
2842,5,1,282,32,0,0,1,463
2843,5,1,283,2,0,0,1,421
2844,5,1,284,32,1,1,1,549
2845,5,1,285,20,0,0,1,395
2846,5,1,286,10,1,1,1,408
2847,5,1,287,10,1,1,1,432
2848,5,1,288,32,0,0,1,545
2849,5,1,289,1,1,1,1,444
2850,5,1,290,2,1,1,1,479
2851,5,1,291,2,0,0,1,408
2852,5,1,292,1,0,0,1,442
2853,5,1,293,20,0,0,1,459
2854,5,1,294,5,1,1,1,702
2855,5,1,295,1,0,0,1,359
2856,5,1,296,2,1,1,1,406
2857,5,1,297,32,0,0,1,446
2858,5,1,298,2,0,0,1,515
2859,5,1,299,32,1,1,1,443
2860,5,1,300,32,0,0,1,484
2861,5,1,301,5,0,0,1,445
2862,5,1,302,5,0,0,1,395
2863,5,1,303,2,0,0,1,399
2864,5,1,304,20,1,1,1,422
2865,5,1,305,1,0,0,1,343
2866,5,1,306,2,0,0,1,376
2867,5,1,307,5,0,0,1,461
2868,5,1,308,20,1,1,1,447
2869,5,1,309,2,1,1,1,490
2870,5,1,310,1,0,0,1,340
2871,5,1,311,5,0,0,1,534
2872,5,1,312,5,1,1,1,546
2873,5,1,313,10,1,1,1,396
2874,5,1,314,10,1,1,1,506
2875,5,1,315,32,0,0,1,455
2876,5,1,316,32,0,0,1,473
2877,5,1,317,1,1,1,1,412
2878,5,1,318,5,0,0,1,472
2879,5,1,319,10,1,1,1,444
2880,5,1,320,10,0,0,1,347
2881,5,1,321,10,0,0,1,677
2882,5,1,322,10,0,0,0,328
2883,5,1,323,2,1,1,1,451
2884,5,1,324,10,0,0,1,367
2885,5,1,325,20,0,0,1,441
2886,5,1,326,20,1,1,1,447
2887,5,1,327,20,1,1,1,513
2888,5,1,328,32,1,1,1,370
2889,5,1,329,2,1,1,1,359
2890,5,1,330,2,0,0,1,347
2891,5,1,331,32,1,1,1,453
2892,5,1,332,10,1,1,1,392
2893,5,1,333,2,1,1,1,454
2894,5,1,334,32,1,1,1,491
2895,5,1,335,32,1,1,1,444
2896,5,1,336,5,1,1,1,378
2897,5,1,337,32,1,1,1,385
2898,5,1,338,2,0,0,1,478
2899,5,1,339,2,1,1,1,606
2900,5,1,340,20,1,1,1,540
2901,5,1,341,10,0,0,1,427
2902,5,1,342,20,0,0,1,481
2903,5,1,343,2,0,0,1,387
2904,5,1,344,32,0,0,1,517
2905,5,1,345,32,1,1,1,613
2906,5,1,346,32,1,1,1,487
2907,5,1,347,5,1,1,1,443
2908,5,1,348,32,0,0,1,546
2909,5,1,349,10,0,0,1,430
2910,5,1,350,2,1,1,1,544
2911,5,1,351,5,0,0,1,498
2912,5,1,352,10,0,0,1,408
2913,5,1,353,32,0,0,1,408
2914,5,1,354,32,1,1,1,468
2915,5,1,355,5,0,0,1,482
2916,5,1,356,32,0,0,1,451
2917,5,1,357,20,0,0,1,384
2918,5,1,358,32,0,0,1,493
2919,5,1,359,2,1,1,1,445
2920,5,1,360,32,0,0,1,357
2921,5,1,361,32,1,1,1,481
2922,5,1,362,10,1,1,1,385
2923,5,1,363,2,1,1,1,383
2924,5,1,364,5,1,1,1,432
2925,5,1,365,20,0,0,1,362
2926,5,1,366,10,1,1,1,467
2927,5,1,367,32,1,1,1,498
2928,5,1,368,5,1,1,1,404
2929,5,1,369,2,0,0,1,320
2930,5,1,370,32,0,0,1,423
2931,5,1,371,20,0,0,1,498
2932,5,1,372,20,1,1,1,511
2933,5,1,373,10,0,0,1,375
2934,5,1,374,10,1,1,1,377
2935,5,1,375,10,1,1,1,379
2936,5,1,376,20,1,1,1,427
2937,5,1,377,5,1,1,1,392
2938,5,1,378,2,0,0,1,446
2939,5,1,379,20,1,1,1,456
2940,5,1,380,32,0,0,1,557
2941,5,1,381,5,1,1,1,387
2942,5,1,382,20,1,1,1,462
2943,5,1,383,20,0,0,1,529
2944,5,1,384,10,0,0,1,397
2945,5,1,385,10,0,0,1,483
2946,5,1,386,10,1,1,1,381
2947,5,1,387,5,1,1,1,406
2948,5,1,388,20,1,1,1,421
2949,5,1,389,10,0,0,1,404
2950,5,1,390,10,0,0,1,369
2951,5,1,391,32,0,0,1,340
2952,5,1,392,10,1,1,1,474
2953,5,1,393,2,1,1,1,498
2954,5,1,394,20,0,0,1,483
2955,5,1,395,10,0,0,1,491
2956,5,1,396,2,0,0,1,454
2957,5,1,397,20,1,1,1,438
2958,5,1,398,32,0,0,1,466
2959,5,1,399,20,1,1,1,554
2960,5,1,400,5,0,0,1,476
2961,5,1,401,1,0,0,1,440
2962,5,1,402,2,0,0,1,409
2963,5,1,403,32,1,1,1,478
2964,5,1,404,32,0,0,1,579
2965,5,1,405,20,1,1,1,648
2966,5,1,406,32,1,1,1,495
2967,5,1,407,32,0,0,1,480
2968,5,1,408,32,1,1,1,520
2969,5,1,409,32,0,0,1,482
2970,5,1,410,5,1,1,1,537
2971,5,1,411,20,0,0,1,379
2972,5,1,412,2,0,0,1,346
2973,5,1,413,2,1,1,1,382
2974,5,1,414,1,0,0,1,387
2975,5,1,415,5,1,1,1,418
2976,5,1,416,20,1,1,1,546
2977,5,1,417,20,1,1,1,481
2978,5,1,418,2,0,0,1,517
2979,5,1,419,20,0,0,1,499
2980,5,1,420,5,1,1,1,499
2981,5,1,421,10,1,1,1,438
2982,5,1,422,5,1,1,1,479
2983,5,1,423,10,0,0,1,530
2984,5,1,424,20,0,0,1,386
2985,5,1,425,1,0,0,1,405
2986,5,1,426,10,0,0,1,681
2987,5,1,427,1,0,0,1,455
2988,5,1,428,2,0,0,1,445
2989,5,1,429,2,0,0,1,420
2990,5,1,430,2,0,0,1,410
2991,5,1,431,32,1,1,1,611
2992,5,1,432,2,1,1,1,450
2993,5,1,433,32,1,1,1,450
2994,5,1,434,32,0,0,1,433
2995,5,1,435,32,0,0,1,432
2996,5,1,436,2,0,0,1,472
2997,5,1,437,32,1,1,1,540
2998,5,1,438,5,0,0,1,433
2999,5,1,439,2,0,0,1,449
3000,5,1,440,10,1,1,1,444
3001,5,1,441,5,0,0,1,990
3002,5,1,442,32,0,0,1,475
3003,5,1,443,5,0,0,1,498
3004,5,1,444,2,1,1,1,512
3005,5,1,445,2,0,0,1,380
3006,5,1,446,20,1,1,1,488
3007,5,1,447,10,1,1,1,503
3008,5,1,448,5,1,1,1,419
3009,5,1,449,2,0,0,1,486
3010,5,1,450,32,0,0,1,503
3011,5,1,451,5,0,0,1,632
3012,5,1,452,10,0,0,1,455
3013,5,1,453,1,0,0,1,383
3014,5,1,454,5,1,1,1,489
3015,5,1,455,20,0,0,1,458
3016,5,1,456,2,0,0,1,486
3017,5,1,457,1,1,1,1,572
3018,5,1,458,2,1,1,1,418
3019,5,1,459,32,0,0,1,459
3020,5,1,460,20,1,1,1,534
3021,5,1,461,2,0,0,1,489
3022,5,1,462,20,0,0,1,498
3023,5,1,463,20,1,1,1,578
3024,5,1,464,5,0,0,1,445
3025,5,1,465,10,0,0,1,448
3026,5,1,466,1,0,0,1,377
3027,5,1,467,10,0,0,1,449
3028,5,1,468,32,1,1,1,553
3029,5,1,469,20,1,1,1,591
3030,5,1,470,2,1,1,1,467
3031,5,1,471,5,0,0,1,436
3032,5,1,472,5,1,1,1,525
3033,5,1,473,20,1,1,1,403
3034,5,1,474,2,0,0,1,377
3035,5,1,475,10,0,0,1,580
3036,5,1,476,20,0,0,1,477
3037,5,1,477,5,0,0,1,388
3038,5,1,478,5,1,1,1,406
3039,5,1,479,2,1,1,1,414
3040,5,1,480,5,0,0,1,428
3041,5,1,481,32,1,1,1,529
3042,5,1,482,32,1,1,1,427
3043,5,1,483,5,0,0,1,359
3044,5,1,484,20,0,0,1,403
3045,5,1,485,1,1,1,1,372
3046,5,1,486,10,0,0,1,398
3047,5,1,487,32,1,1,1,444
3048,5,1,488,10,0,0,1,425
3049,5,1,489,32,1,1,1,425
3050,5,1,490,5,0,0,1,508
3051,5,1,491,5,1,1,1,388
3052,5,1,492,10,1,1,1,449
3053,5,1,493,10,0,0,1,435
3054,5,1,494,10,0,0,1,425
3055,5,1,495,32,0,0,1,454
3056,5,1,496,32,0,0,1,394
3057,5,1,497,10,1,1,1,388
3058,5,1,498,32,0,0,1,352
3059,5,1,499,10,0,0,1,371
3060,5,1,500,2,1,1,1,419
3061,5,1,501,10,1,1,1,402
3062,5,1,502,20,1,1,1,366
3063,5,1,503,20,0,0,1,404
3064,5,1,504,2,1,1,1,504
3065,5,1,505,5,1,1,1,358
3066,5,1,506,1,1,1,1,378
3067,5,1,507,32,1,1,1,487
3068,5,1,508,5,0,0,1,456
3069,5,1,509,10,0,0,1,381
3070,5,1,510,20,0,0,1,514
3071,5,1,511,32,1,1,1,542
3072,5,1,512,5,1,1,1,571
3073,5,1,513,20,0,0,1,450
3074,5,1,514,10,1,1,1,654
3075,5,1,515,2,0,0,1,362
3076,5,1,516,2,1,1,1,364
3077,5,1,517,32,0,0,1,389
3078,5,1,518,10,1,1,1,510
3079,5,1,519,20,1,1,1,526
3080,5,1,520,20,0,0,1,400
3081,5,1,521,32,0,0,1,482
3082,5,1,522,1,1,1,1,422
3083,5,1,523,1,1,1,1,343
3084,5,1,524,10,1,1,1,403
3085,5,1,525,2,0,0,1,428
3086,5,1,526,10,1,1,1,414
3087,5,1,527,32,0,0,1,416
3088,5,1,528,1,0,0,1,354
3089,5,1,529,10,0,0,1,426
3090,5,1,530,20,0,0,1,388
3091,5,1,531,2,1,1,1,534
3092,5,1,532,2,1,1,1,391
3093,5,1,533,2,1,1,1,386
3094,5,1,534,5,0,0,1,471
3095,5,1,535,5,1,1,1,353
3096,5,1,536,5,0,0,1,400
3097,5,1,537,10,0,0,1,373
3098,5,1,538,10,0,0,1,317
3099,5,1,539,2,0,0,1,341
3100,5,1,540,10,1,1,1,438
3101,5,1,541,32,1,1,1,384
3102,5,1,542,5,0,0,1,414
3103,5,1,543,5,1,1,1,347
3104,5,1,544,2,0,0,1,440
3105,5,1,545,32,1,1,1,437
3106,5,1,546,20,1,1,1,464
3107,5,1,547,10,0,0,1,447
3108,5,1,548,5,1,1,1,441
3109,5,1,549,20,1,1,1,413
3110,5,1,550,10,0,0,1,446
3111,5,1,551,20,1,1,1,439
3112,5,1,552,10,0,0,1,461
3113,5,1,553,10,1,1,1,382
3114,5,1,554,1,1,1,1,350
3115,5,1,555,2,1,1,1,413
3116,5,1,556,10,1,1,1,357
3117,5,1,557,5,1,1,1,329
3118,5,1,558,32,1,1,1,346
3119,5,1,559,32,1,1,1,427
3120,5,1,560,32,0,0,1,585
3121,5,1,561,10,1,1,1,391
3122,5,1,562,1,1,1,1,377
3123,5,1,563,2,1,1,1,328
3124,5,1,564,5,0,0,1,393
3125,5,1,565,20,1,1,1,306
3126,5,1,566,5,1,1,1,490
3127,5,1,567,2,1,1,1,329
3128,5,1,568,5,0,0,1,465
3129,5,1,569,32,1,1,1,544
3130,5,1,570,32,1,1,1,471
3131,5,1,571,20,0,0,1,486
3132,5,1,572,5,0,0,1,430
3133,5,1,573,32,0,0,1,473
3134,5,1,574,5,0,0,1,375
3135,5,1,575,20,1,1,1,485
3136,5,1,576,20,1,1,1,661
3137,5,1,577,20,0,0,1,517
3138,5,1,578,10,0,0,1,419
3139,5,1,579,32,1,1,1,449
3140,5,1,580,5,0,0,1,394
3141,5,1,581,32,1,1,1,383
3142,5,1,582,5,1,1,1,452
3143,5,1,583,10,1,1,1,391
3144,5,1,584,20,0,0,1,456
3145,5,1,585,10,1,1,1,400
3146,5,1,586,10,0,0,1,431
3147,5,1,587,10,0,0,1,411
3148,5,1,588,32,1,1,1,395
3149,5,1,589,5,1,1,1,449
3150,5,1,590,2,0,0,1,387
3151,5,1,591,10,1,1,1,396
3152,5,1,592,32,1,1,1,404
3153,5,1,593,5,0,0,1,444
3154,5,1,594,20,0,0,1,465
3155,5,1,595,20,1,1,1,389
3156,5,1,596,20,1,1,1,349
3157,5,1,597,2,0,0,1,362
3158,5,1,598,20,1,1,1,641
3159,5,1,599,2,1,1,1,429
3160,5,1,600,32,1,1,1,362
3161,5,1,601,32,0,0,1,437
3162,5,1,602,5,1,1,1,344
3163,5,1,603,2,1,1,1,378
3164,5,1,604,10,0,0,1,522
3165,5,1,605,5,0,0,1,541
3166,5,1,606,2,0,0,1,389
3167,5,1,607,1,1,1,1,390
3168,5,1,608,20,0,0,1,745
3169,5,1,609,32,0,0,1,497
3170,5,1,610,5,0,0,1,383
3171,5,1,611,2,1,1,1,427
3172,5,1,612,5,0,0,1,382
3173,5,1,613,32,1,1,1,432
3174,5,1,614,10,0,0,1,448
3175,5,1,615,20,0,0,1,366
3176,5,1,616,32,0,0,1,423
3177,5,1,617,20,0,0,1,372
3178,5,1,618,5,0,0,1,369
3179,5,1,619,10,1,1,1,473
3180,5,1,620,2,0,0,1,394
3181,5,1,621,32,1,1,1,430
3182,5,1,622,5,1,1,1,409
3183,5,1,623,5,0,0,1,437
3184,5,1,624,32,0,0,1,457
3185,5,1,625,10,0,0,1,478
3186,5,1,626,32,1,1,1,455
3187,5,1,627,10,1,1,1,394
3188,5,1,628,2,1,1,1,432
3189,5,1,629,32,1,1,1,453
3190,5,1,630,20,1,1,1,401
3191,5,1,631,2,1,1,1,368
3192,5,1,632,10,1,1,1,369
3193,5,1,633,10,1,1,1,587
3194,5,1,634,20,1,1,1,483
3195,5,1,635,5,0,0,1,600
3196,5,1,636,5,1,1,1,433
3197,5,1,637,5,0,0,1,435
3198,5,1,638,5,1,1,1,379
3199,5,1,639,5,1,1,1,339
3200,5,1,640,20,1,1,1,350
3201,6,1,1,5,0,0,1,369
3202,6,1,2,20,1,1,1,423
3203,6,1,3,32,1,1,1,454
3204,6,1,4,2,1,1,1,339
3205,6,1,5,32,0,0,1,545
3206,6,1,6,5,0,0,1,419
3207,6,1,7,2,0,0,1,405
3208,6,1,8,5,0,0,1,311
3209,6,1,9,2,1,1,1,345
3210,6,1,10,32,1,1,1,433
3211,6,1,11,2,1,1,1,402
3212,6,1,12,2,0,0,1,394
3213,6,1,13,5,1,1,1,451
3214,6,1,14,10,1,1,1,437
3215,6,1,15,1,0,0,1,328
3216,6,1,16,2,0,0,1,347
3217,6,1,17,2,0,0,1,400
3218,6,1,18,10,0,0,1,440
3219,6,1,19,10,1,1,1,477
3220,6,1,20,2,1,1,1,370
3221,6,1,21,2,1,1,1,428
3222,6,1,22,32,1,1,1,463
3223,6,1,23,1,0,0,1,358
3224,6,1,24,2,0,0,1,515
3225,6,1,25,2,1,1,1,402
3226,6,1,26,5,1,1,1,461
3227,6,1,27,10,0,0,1,315
3228,6,1,28,5,1,1,1,440
3229,6,1,29,5,1,1,1,424
3230,6,1,30,5,1,1,1,401
3231,6,1,31,5,1,1,1,980
3232,6,1,32,10,1,1,1,345
3233,6,1,33,32,1,1,1,449
3234,6,1,34,32,0,0,1,724
3235,6,1,35,20,1,1,1,367
3236,6,1,36,32,1,1,1,522
3237,6,1,37,20,1,1,1,387
3238,6,1,38,1,1,1,1,363
3239,6,1,39,1,0,0,1,327
3240,6,1,40,10,0,0,1,414
3241,6,1,41,1,0,0,1,695
3242,6,1,42,10,0,0,1,603
3243,6,1,43,5,0,0,1,335
3244,6,1,44,32,0,0,1,385
3245,6,1,45,5,0,0,1,327
3246,6,1,46,2,0,0,1,437
3247,6,1,47,32,1,1,1,483
3248,6,1,48,10,0,0,1,544
3249,6,1,49,2,0,0,1,698
3250,6,1,50,32,0,0,1,741
3251,6,1,51,1,0,0,1,369
3252,6,1,52,32,1,1,1,424
3253,6,1,53,2,1,1,1,349
3254,6,1,54,32,1,1,1,539
3255,6,1,55,10,1,1,1,379
3256,6,1,56,10,1,1,1,500
3257,6,1,57,10,0,0,1,541
3258,6,1,58,10,0,0,1,366
3259,6,1,59,5,0,0,1,421
3260,6,1,60,32,0,0,1,389
3261,6,1,61,10,0,0,1,448
3262,6,1,62,32,1,1,1,452
3263,6,1,63,2,0,0,1,378
3264,6,1,64,32,1,1,1,424
3265,6,1,65,5,1,1,1,341
3266,6,1,66,20,0,0,1,456
3267,6,1,67,2,0,0,1,425
3268,6,1,68,2,0,0,1,343
3269,6,1,69,10,0,0,1,348
3270,6,1,70,32,0,0,1,396
3271,6,1,71,32,0,0,1,454
3272,6,1,72,2,1,1,1,385
3273,6,1,73,32,0,0,1,454
3274,6,1,74,20,1,1,1,903
3275,6,1,75,2,1,1,1,450
3276,6,1,76,2,1,1,1,426
3277,6,1,77,32,0,0,1,370
3278,6,1,78,20,0,0,1,409
3279,6,1,79,5,0,0,1,345
3280,6,1,80,10,0,0,1,350
3281,6,1,81,32,0,0,1,428
3282,6,1,82,32,1,1,1,727
3283,6,1,83,5,0,0,1,334
3284,6,1,84,2,1,1,1,502
3285,6,1,85,5,1,1,1,383
3286,6,1,86,5,0,0,1,600
3287,6,1,87,10,1,1,1,561
3288,6,1,88,32,0,0,1,514
3289,6,1,89,32,0,0,1,539
3290,6,1,90,10,1,1,1,447
3291,6,1,91,5,0,0,1,354
3292,6,1,92,10,0,0,1,630
3293,6,1,93,32,0,0,1,426
3294,6,1,94,5,1,1,1,783
3295,6,1,95,20,1,1,1,557
3296,6,1,96,20,1,1,1,493
3297,6,1,97,2,1,1,1,472
3298,6,1,98,32,0,0,1,499
3299,6,1,99,32,1,1,1,430
3300,6,1,100,10,0,0,1,377
3301,6,1,101,5,0,0,1,463
3302,6,1,102,2,1,1,1,433
3303,6,1,103,20,0,0,1,360
3304,6,1,104,10,0,0,1,462
3305,6,1,105,20,1,1,1,441
3306,6,1,106,20,0,0,1,433
3307,6,1,107,10,0,0,1,552
3308,6,1,108,20,0,0,1,527
3309,6,1,109,10,0,0,1,376
3310,6,1,110,2,0,0,1,616
3311,6,1,111,32,0,0,1,654
3312,6,1,112,5,1,1,1,470
3313,6,1,113,20,1,1,1,538
3314,6,1,114,20,1,1,1,522
3315,6,1,115,2,1,1,1,490
3316,6,1,116,20,1,1,1,456
3317,6,1,117,10,0,0,1,513
3318,6,1,118,1,1,1,1,485
3319,6,1,119,2,0,0,1,446
3320,6,1,120,32,1,1,1,524
3321,6,1,121,10,1,1,1,448
3322,6,1,122,20,1,1,1,487
3323,6,1,123,32,1,1,1,458
3324,6,1,124,32,0,0,1,443
3325,6,1,125,20,1,1,1,567
3326,6,1,126,5,0,0,1,476
3327,6,1,127,2,1,1,1,520
3328,6,1,128,20,0,0,1,479
3329,6,1,129,32,0,0,1,558
3330,6,1,130,2,0,0,1,378
3331,6,1,131,2,1,1,1,431
3332,6,1,132,5,0,0,1,628
3333,6,1,133,32,0,0,1,378
3334,6,1,134,20,0,0,1,470
3335,6,1,135,32,0,0,1,378
3336,6,1,136,32,0,0,1,596
3337,6,1,137,10,0,0,1,361
3338,6,1,138,2,1,1,1,442
3339,6,1,139,10,1,1,1,441
3340,6,1,140,20,0,0,1,597
3341,6,1,141,5,1,1,1,629
3342,6,1,142,32,1,1,1,1015
3343,6,1,143,5,1,1,1,476
3344,6,1,144,2,0,0,1,552
3345,6,1,145,5,1,1,1,550
3346,6,1,146,32,1,1,1,657
3347,6,1,147,10,0,0,1,568
3348,6,1,148,2,1,1,1,496
3349,6,1,149,5,0,0,1,485
3350,6,1,150,2,0,0,1,466
3351,6,1,151,20,1,1,1,428
3352,6,1,152,20,0,0,1,375
3353,6,1,153,20,0,0,1,497
3354,6,1,154,20,1,1,1,508
3355,6,1,155,32,1,1,1,434
3356,6,1,156,1,1,1,1,480
3357,6,1,157,20,0,0,1,513
3358,6,1,158,2,1,1,1,457
3359,6,1,159,10,1,1,1,527
3360,6,1,160,20,0,0,1,664
3361,6,1,161,20,0,0,1,421
3362,6,1,162,32,0,0,1,575
3363,6,1,163,10,1,1,1,396
3364,6,1,164,1,0,0,1,436
3365,6,1,165,20,0,0,1,763
3366,6,1,166,2,0,0,1,460
3367,6,1,167,5,0,0,1,1516
3368,6,1,168,32,0,0,1,401
3369,6,1,169,2,0,0,1,451
3370,6,1,170,5,0,0,1,481
3371,6,1,171,1,1,1,1,854
3372,6,1,172,1,0,0,1,1031
3373,6,1,173,2,1,1,1,863
3374,6,1,174,32,0,0,1,638
3375,6,1,175,2,1,1,1,520
3376,6,1,176,32,0,0,1,558
3377,6,1,177,5,1,1,1,1480
3378,6,1,178,32,1,1,1,584
3379,6,1,179,5,0,0,1,626
3380,6,1,180,32,1,1,1,622
3381,6,1,181,1,0,0,1,544
3382,6,1,182,2,0,0,1,940
3383,6,1,183,5,0,0,1,651
3384,6,1,184,10,1,1,1,2350
3385,6,1,185,32,1,1,1,461
3386,6,1,186,20,0,0,1,546
3387,6,1,187,1,1,1,1,476
3388,6,1,188,5,0,0,1,438
3389,6,1,189,2,1,1,1,843
3390,6,1,190,10,0,0,1,669
3391,6,1,191,1,1,3,0,4990
3392,6,1,192,5,1,1,1,417
3393,6,1,193,10,0,0,1,359
3394,6,1,194,5,1,1,0,315
3395,6,1,195,5,0,0,1,563
3396,6,1,196,10,1,1,1,427
3397,6,1,197,5,1,1,1,604
3398,6,1,198,5,0,0,1,427
3399,6,1,199,32,1,1,1,401
3400,6,1,200,10,0,0,1,396
3401,6,1,201,5,0,0,1,400
3402,6,1,202,2,1,1,1,435
3403,6,1,203,32,1,1,1,658
3404,6,1,204,10,0,0,1,433
3405,6,1,205,1,1,1,1,369
3406,6,1,206,20,0,0,1,493
3407,6,1,207,10,0,0,1,385
3408,6,1,208,5,0,0,1,600
3409,6,1,209,5,1,1,1,1085
3410,6,1,210,20,1,1,1,468
3411,6,1,211,20,0,0,1,378
3412,6,1,212,5,1,1,1,359
3413,6,1,213,32,1,1,1,433
3414,6,1,214,2,1,1,1,435
3415,6,1,215,2,1,1,1,426
3416,6,1,216,20,0,0,1,483
3417,6,1,217,20,0,0,1,438
3418,6,1,218,2,1,1,1,407
3419,6,1,219,20,0,0,1,566
3420,6,1,220,1,0,0,1,491
3421,6,1,221,2,1,1,1,361
3422,6,1,222,5,0,0,1,459
3423,6,1,223,32,1,1,1,504
3424,6,1,224,5,0,0,1,400
3425,6,1,225,5,0,0,1,425
3426,6,1,226,20,0,0,1,356
3427,6,1,227,10,1,1,1,503
3428,6,1,228,10,1,1,1,647
3429,6,1,229,5,1,1,1,1030
3430,6,1,230,20,1,1,1,1584
3431,6,1,231,2,0,0,1,337
3432,6,1,232,2,0,0,1,483
3433,6,1,233,32,1,1,1,481
3434,6,1,234,10,1,1,1,437
3435,6,1,235,2,0,0,1,392
3436,6,1,236,10,1,1,1,422
3437,6,1,237,2,0,0,1,379
3438,6,1,238,1,1,1,1,413
3439,6,1,239,32,1,1,1,479
3440,6,1,240,5,1,1,1,479
3441,6,1,241,32,0,0,1,389
3442,6,1,242,32,1,1,1,386
3443,6,1,243,1,1,1,1,389
3444,6,1,244,20,1,1,1,383
3445,6,1,245,5,1,1,1,389
3446,6,1,246,20,1,1,1,507
3447,6,1,247,32,0,0,1,421
3448,6,1,248,10,0,0,1,482
3449,6,1,249,10,1,1,1,453
3450,6,1,250,5,1,1,1,450
3451,6,1,251,20,1,1,1,520
3452,6,1,252,2,1,1,1,482
3453,6,1,253,32,0,0,1,372
3454,6,1,254,10,1,1,1,529
3455,6,1,255,1,1,1,1,468
3456,6,1,256,32,0,0,1,438
3457,6,1,257,20,0,0,1,505
3458,6,1,258,2,0,0,1,383
3459,6,1,259,32,1,1,1,507
3460,6,1,260,2,1,1,1,977
3461,6,1,261,10,1,1,1,564
3462,6,1,262,10,1,1,1,1201
3463,6,1,263,20,1,1,1,454
3464,6,1,264,5,0,0,1,369
3465,6,1,265,10,0,0,1,449
3466,6,1,266,32,0,0,1,373
3467,6,1,267,5,0,0,1,402
3468,6,1,268,20,1,1,1,852
3469,6,1,269,20,0,0,1,390
3470,6,1,270,20,0,0,1,361
3471,6,1,271,32,0,0,1,468
3472,6,1,272,32,0,0,1,506
3473,6,1,273,32,1,1,1,880
3474,6,1,274,5,1,1,1,410
3475,6,1,275,10,0,0,1,391
3476,6,1,276,2,1,1,1,423
3477,6,1,277,2,1,1,1,417
3478,6,1,278,1,1,1,1,414
3479,6,1,279,5,1,1,1,915
3480,6,1,280,10,1,1,1,612
3481,6,1,281,32,1,1,1,523
3482,6,1,282,2,0,0,1,396
3483,6,1,283,10,1,1,1,1850
3484,6,1,284,20,0,0,1,360
3485,6,1,285,5,1,1,1,381
3486,6,1,286,20,1,1,1,422
3487,6,1,287,20,1,1,1,904
3488,6,1,288,20,0,0,0,492
3489,6,1,289,2,0,0,1,440
3490,6,1,290,32,0,0,1,542
3491,6,1,291,5,1,1,1,652
3492,6,1,292,2,0,0,1,474
3493,6,1,293,2,0,0,1,476
3494,6,1,294,2,1,1,1,767
3495,6,1,295,5,0,0,1,895
3496,6,1,296,2,0,0,1,448
3497,6,1,297,2,0,0,1,1272
3498,6,1,298,32,1,1,1,477
3499,6,1,299,2,1,1,1,495
3500,6,1,300,5,1,1,1,395
3501,6,1,301,20,1,1,1,630
3502,6,1,302,5,1,1,1,331
3503,6,1,303,10,0,0,1,591
3504,6,1,304,32,1,1,1,682
3505,6,1,305,10,1,1,1,535
3506,6,1,306,5,0,0,1,382
3507,6,1,307,5,1,1,1,403
3508,6,1,308,5,0,0,1,372
3509,6,1,309,5,1,1,1,431
3510,6,1,310,5,1,1,1,493
3511,6,1,311,5,0,0,1,473
3512,6,1,312,20,0,0,1,526
3513,6,1,313,2,1,1,1,386
3514,6,1,314,32,0,0,1,413
3515,6,1,315,10,1,1,1,407
3516,6,1,316,2,0,0,1,604
3517,6,1,317,20,0,0,1,574
3518,6,1,318,20,0,0,1,615
3519,6,1,319,20,0,0,1,549
3520,6,1,320,10,1,1,1,1365
3521,6,1,321,1,0,0,1,383
3522,6,1,322,32,1,1,1,457
3523,6,1,323,20,1,1,1,569
3524,6,1,324,10,1,1,1,461
3525,6,1,325,5,1,1,1,417
3526,6,1,326,5,0,0,1,970
3527,6,1,327,20,1,1,1,1366
3528,6,1,328,5,1,1,1,407
3529,6,1,329,1,0,0,1,485
3530,6,1,330,20,1,1,1,440
3531,6,1,331,5,1,1,1,784
3532,6,1,332,20,1,1,1,425
3533,6,1,333,20,1,1,1,391
3534,6,1,334,10,0,0,1,435
3535,6,1,335,10,1,1,1,1411
3536,6,1,336,5,1,1,1,1056
3537,6,1,337,32,1,1,1,792
3538,6,1,338,10,1,1,1,1115
3539,6,1,339,5,1,1,1,441
3540,6,1,340,2,1,1,1,428
3541,6,1,341,10,1,1,1,490
3542,6,1,342,2,0,0,1,428
3543,6,1,343,32,1,1,1,508
3544,6,1,344,5,0,0,1,474
3545,6,1,345,5,0,0,1,495
3546,6,1,346,2,0,0,1,513
3547,6,1,347,32,0,0,1,789
3548,6,1,348,5,1,1,1,401
3549,6,1,349,2,0,0,1,318
3550,6,1,350,20,0,0,1,476
3551,6,1,351,32,0,0,1,833
3552,6,1,352,5,1,1,1,598
3553,6,1,353,10,0,0,1,2097
3554,6,1,354,32,1,1,1,484
3555,6,1,355,20,0,0,1,503
3556,6,1,356,5,0,0,1,541
3557,6,1,357,32,1,1,1,572
3558,6,1,358,5,1,1,1,459
3559,6,1,359,1,0,0,1,639
3560,6,1,360,2,0,0,1,512
3561,6,1,361,2,1,1,1,688
3562,6,1,362,32,1,1,1,557
3563,6,1,363,20,0,0,1,600
3564,6,1,364,32,1,1,1,464
3565,6,1,365,2,1,1,1,656
3566,6,1,366,20,0,0,1,441
3567,6,1,367,2,0,0,1,419
3568,6,1,368,10,1,1,1,1560
3569,6,1,369,2,0,0,1,478
3570,6,1,370,10,0,0,1,442
3571,6,1,371,10,1,1,1,700
3572,6,1,372,10,0,0,1,506
3573,6,1,373,10,0,0,1,496
3574,6,1,374,32,0,0,1,763
3575,6,1,375,10,0,0,1,606
3576,6,1,376,32,0,0,1,2106
3577,6,1,377,20,1,1,1,607
3578,6,1,378,2,1,1,1,1354
3579,6,1,379,10,1,1,1,2444
3580,6,1,380,5,1,1,1,2326
3581,6,1,381,2,1,1,1,467
3582,6,1,382,32,0,0,1,573
3583,6,1,383,2,1,1,1,527
3584,6,1,384,5,1,1,1,3762
3585,6,1,385,5,0,0,1,454
3586,6,1,386,2,0,0,1,336
3587,6,1,387,32,1,1,1,450
3588,6,1,388,20,1,1,1,459
3589,6,1,389,10,0,0,1,454
3590,6,1,390,2,1,1,1,349
3591,6,1,391,20,0,0,1,426
3592,6,1,392,32,0,0,1,439
3593,6,1,393,32,1,1,1,425
3594,6,1,394,10,0,0,1,474
3595,6,1,395,1,1,1,1,403
3596,6,1,396,32,1,1,1,709
3597,6,1,397,10,0,0,1,480
3598,6,1,398,10,0,0,1,425
3599,6,1,399,10,1,1,1,417
3600,6,1,400,10,0,0,1,556
3601,6,1,401,20,0,0,1,469
3602,6,1,402,10,0,0,1,318
3603,6,1,403,5,0,0,1,495
3604,6,1,404,2,1,1,1,981
3605,6,1,405,20,1,1,1,556
3606,6,1,406,2,0,0,1,473
3607,6,1,407,20,1,1,1,350
3608,6,1,408,10,0,0,1,436
3609,6,1,409,1,1,1,1,447
3610,6,1,410,10,1,1,1,596
3611,6,1,411,20,0,0,1,490
3612,6,1,412,10,1,1,1,777
3613,6,1,413,10,1,1,1,445
3614,6,1,414,2,1,1,1,406
3615,6,1,415,2,1,1,1,571
3616,6,1,416,32,0,0,1,485
3617,6,1,417,5,1,1,1,434
3618,6,1,418,20,1,1,1,406
3619,6,1,419,2,0,0,1,478
3620,6,1,420,10,0,0,1,379
3621,6,1,421,10,0,0,1,402
3622,6,1,422,10,0,0,1,545
3623,6,1,423,20,0,0,1,340
3624,6,1,424,1,1,1,1,607
3625,6,1,425,2,0,0,1,532
3626,6,1,426,10,1,1,1,998
3627,6,1,427,20,1,1,1,2004
3628,6,1,428,5,0,0,1,405
3629,6,1,429,5,0,0,1,501
3630,6,1,430,5,0,0,1,401
3631,6,1,431,5,0,0,1,347
3632,6,1,432,32,1,1,1,538
3633,6,1,433,5,0,0,1,380
3634,6,1,434,20,0,0,1,448
3635,6,1,435,32,1,1,1,469
3636,6,1,436,2,1,1,1,398
3637,6,1,437,20,0,0,1,1624
3638,6,1,438,5,0,0,1,430
3639,6,1,439,20,1,1,1,484
3640,6,1,440,20,1,1,1,1994
3641,6,1,441,5,0,0,1,716
3642,6,1,442,20,0,0,1,579
3643,6,1,443,5,0,0,1,815
3644,6,1,444,10,0,0,1,758
3645,6,1,445,2,1,1,1,447
3646,6,1,446,32,0,0,1,862
3647,6,1,447,20,1,1,1,477
3648,6,1,448,5,1,1,1,376
3649,6,1,449,2,1,1,1,383
3650,6,1,450,32,0,0,1,668
3651,6,1,451,20,0,0,1,466
3652,6,1,452,2,1,1,1,457
3653,6,1,453,5,0,0,1,400
3654,6,1,454,10,1,1,1,414
3655,6,1,455,10,1,1,1,477
3656,6,1,456,20,0,0,1,435
3657,6,1,457,5,1,1,1,540
3658,6,1,458,10,0,0,1,816
3659,6,1,459,2,0,0,1,403
3660,6,1,460,2,0,0,1,423
3661,6,1,461,20,1,1,1,391
3662,6,1,462,1,0,0,1,924
3663,6,1,463,32,1,1,1,1447
3664,6,1,464,20,1,1,1,423
3665,6,1,465,32,0,0,1,387
3666,6,1,466,20,1,1,1,366
3667,6,1,467,5,0,0,1,528
3668,6,1,468,10,1,1,1,331
3669,6,1,469,10,1,1,1,320
3670,6,1,470,10,0,0,1,1099
3671,6,1,471,5,1,1,1,354
3672,6,1,472,10,1,1,1,531
3673,6,1,473,1,1,1,1,397
3674,6,1,474,20,1,1,1,495
3675,6,1,475,10,1,1,1,345
3676,6,1,476,20,0,0,1,444
3677,6,1,477,32,1,1,1,426
3678,6,1,478,5,0,0,1,454
3679,6,1,479,32,0,0,1,350
3680,6,1,480,32,1,1,1,2054
3681,6,1,481,2,1,1,1,416
3682,6,1,482,20,1,1,1,512
3683,6,1,483,1,0,0,1,356
3684,6,1,484,20,0,0,1,358
3685,6,1,485,5,0,0,1,381
3686,6,1,486,20,0,0,1,590
3687,6,1,487,2,1,1,1,438
3688,6,1,488,2,1,1,1,322
3689,6,1,489,32,1,1,1,403
3690,6,1,490,20,0,0,1,674
3691,6,1,491,20,0,0,1,474
3692,6,1,492,5,1,1,1,345
3693,6,1,493,5,1,1,1,330
3694,6,1,494,2,0,0,1,517
3695,6,1,495,1,0,0,1,496
3696,6,1,496,2,1,1,1,285
3697,6,1,497,20,0,0,1,501
3698,6,1,498,2,0,0,1,482
3699,6,1,499,20,1,1,1,396
3700,6,1,500,2,1,1,1,372
3701,6,1,501,2,1,1,1,559
3702,6,1,502,32,1,1,1,413
3703,6,1,503,2,1,1,1,330
3704,6,1,504,32,1,1,1,431
3705,6,1,505,2,0,0,1,360
3706,6,1,506,32,1,1,1,475
3707,6,1,507,20,0,0,0,372
3708,6,1,508,2,0,0,1,402
3709,6,1,509,20,0,0,1,636
3710,6,1,510,20,1,1,1,527
3711,6,1,511,32,1,1,1,615
3712,6,1,512,20,1,1,1,413
3713,6,1,513,10,1,1,1,463
3714,6,1,514,20,0,0,1,369
3715,6,1,515,32,0,0,1,401
3716,6,1,516,32,0,0,1,566
3717,6,1,517,20,1,1,1,451
3718,6,1,518,5,0,0,1,364
3719,6,1,519,2,1,1,1,359
3720,6,1,520,32,0,0,1,509
3721,6,1,521,2,0,0,1,441
3722,6,1,522,32,1,1,1,353
3723,6,1,523,32,0,0,1,387
3724,6,1,524,2,0,0,1,421
3725,6,1,525,32,1,1,1,419
3726,6,1,526,1,1,1,1,369
3727,6,1,527,5,1,1,1,428
3728,6,1,528,5,1,1,1,350
3729,6,1,529,10,0,0,1,526
3730,6,1,530,10,0,0,1,352
3731,6,1,531,5,0,0,1,444
3732,6,1,532,10,0,0,1,323
3733,6,1,533,20,0,0,1,343
3734,6,1,534,20,0,0,1,326
3735,6,1,535,32,0,0,1,501
3736,6,1,536,5,1,1,1,344
3737,6,1,537,10,1,1,1,581
3738,6,1,538,20,1,1,1,422
3739,6,1,539,5,0,0,1,581
3740,6,1,540,2,0,0,1,337
3741,6,1,541,10,1,1,1,377
3742,6,1,542,20,0,0,1,511
3743,6,1,543,10,1,1,1,393
3744,6,1,544,5,0,0,1,372
3745,6,1,545,20,0,0,1,417
3746,6,1,546,32,1,1,1,394
3747,6,1,547,20,1,1,1,419
3748,6,1,548,32,0,0,1,733
3749,6,1,549,2,0,0,1,339
3750,6,1,550,10,1,1,1,431
3751,6,1,551,10,0,0,1,444
3752,6,1,552,5,1,1,1,316
3753,6,1,553,10,0,0,1,348
3754,6,1,554,2,0,0,1,335
3755,6,1,555,32,1,1,1,468
3756,6,1,556,20,1,1,1,467
3757,6,1,557,10,1,1,1,330
3758,6,1,558,32,0,0,1,323
3759,6,1,559,20,1,1,1,436
3760,6,1,560,2,0,0,1,740
3761,6,1,561,1,1,1,1,364
3762,6,1,562,1,0,0,1,455
3763,6,1,563,1,1,1,1,312
3764,6,1,564,32,0,0,1,327
3765,6,1,565,10,0,0,1,566
3766,6,1,566,20,0,0,1,579
3767,6,1,567,20,0,0,1,395
3768,6,1,568,10,1,1,1,480
3769,6,1,569,10,0,0,1,462
3770,6,1,570,10,0,0,1,506
3771,6,1,571,1,0,0,1,505
3772,6,1,572,5,1,1,1,388
3773,6,1,573,5,0,0,1,300
3774,6,1,574,20,1,1,1,395
3775,6,1,575,2,0,0,1,522
3776,6,1,576,10,1,1,1,510
3777,6,1,577,32,0,0,1,343
3778,6,1,578,5,1,1,1,664
3779,6,1,579,20,1,1,1,441
3780,6,1,580,10,0,0,1,394
3781,6,1,581,2,0,0,1,442
3782,6,1,582,10,0,0,1,380
3783,6,1,583,10,1,1,1,448
3784,6,1,584,5,0,0,1,562
3785,6,1,585,10,1,1,1,363
3786,6,1,586,10,0,0,1,376
3787,6,1,587,5,1,1,1,715
3788,6,1,588,10,0,0,1,470
3789,6,1,589,32,1,1,1,394
3790,6,1,590,5,0,0,1,488
3791,6,1,591,2,1,1,1,451
3792,6,1,592,2,1,1,1,389
3793,6,1,593,5,1,1,1,455
3794,6,1,594,10,1,1,1,331
3795,6,1,595,2,0,0,1,564
3796,6,1,596,20,1,1,1,413
3797,6,1,597,20,1,1,1,359
3798,6,1,598,2,0,0,1,371
3799,6,1,599,20,1,1,1,333
3800,6,1,600,2,0,0,1,463
3801,6,1,601,20,0,0,1,354
3802,6,1,602,2,0,0,1,404
3803,6,1,603,5,1,1,1,328
3804,6,1,604,5,1,1,1,376
3805,6,1,605,32,0,0,1,485
3806,6,1,606,2,1,1,1,365
3807,6,1,607,20,1,1,1,773
3808,6,1,608,2,1,1,1,346
3809,6,1,609,32,0,0,1,499
3810,6,1,610,32,1,1,1,406
3811,6,1,611,1,1,1,1,454
3812,6,1,612,20,0,0,1,324
3813,6,1,613,1,1,1,1,316
3814,6,1,614,2,0,0,1,297
3815,6,1,615,5,0,0,1,390
3816,6,1,616,2,0,0,1,288
3817,6,1,617,10,1,1,1,346
3818,6,1,618,10,1,1,1,339
3819,6,1,619,32,1,1,1,389
3820,6,1,620,32,0,0,1,347
3821,6,1,621,10,0,0,1,463
3822,6,1,622,10,1,1,1,347
3823,6,1,623,10,1,1,1,392
3824,6,1,624,5,1,1,1,369
3825,6,1,625,20,1,1,1,519
3826,6,1,626,1,0,0,1,390
3827,6,1,627,10,0,0,1,524
3828,6,1,628,32,0,0,1,379
3829,6,1,629,5,1,1,1,434
3830,6,1,630,32,0,0,1,401
3831,6,1,631,1,0,0,1,426
3832,6,1,632,20,1,1,1,456
3833,6,1,633,5,0,0,1,458
3834,6,1,634,1,0,0,1,454
3835,6,1,635,32,0,0,1,538
3836,6,1,636,20,1,1,1,682
3837,6,1,637,32,1,1,1,491
3838,6,1,638,10,1,1,1,461
3839,6,1,639,5,0,0,1,342
3840,6,1,640,32,0,0,1,389
3841,7,1,1,32,0,0,1,601
3842,7,1,2,5,1,1,1,537
3843,7,1,3,2,1,1,1,321
3844,7,1,4,2,0,0,0,305
3845,7,1,5,10,0,0,1,385
3846,7,1,6,20,1,1,1,436
3847,7,1,7,32,0,0,1,483
3848,7,1,8,5,0,0,1,331
3849,7,1,9,32,0,0,1,309
3850,7,1,10,2,0,0,1,301
3851,7,1,11,20,0,0,0,315
3852,7,1,12,2,0,0,1,371
3853,7,1,13,2,1,1,1,382
3854,7,1,14,32,0,0,1,356
3855,7,1,15,20,1,1,1,460
3856,7,1,16,10,0,0,1,308
3857,7,1,17,32,1,1,1,336
3858,7,1,18,2,1,1,0,259
3859,7,1,19,10,0,0,1,400
3860,7,1,20,32,1,1,1,330
3861,7,1,21,32,0,0,1,349
3862,7,1,22,2,1,1,0,321
3863,7,1,23,32,1,1,1,459
3864,7,1,24,32,0,0,1,335
3865,7,1,25,10,1,1,1,306
3866,7,1,26,5,0,0,1,290
3867,7,1,27,10,1,1,1,494
3868,7,1,28,32,0,0,1,361
3869,7,1,29,32,0,0,1,397
3870,7,1,30,2,1,1,1,303
3871,7,1,31,10,0,0,1,456
3872,7,1,32,20,1,1,1,363
3873,7,1,33,5,1,1,1,268
3874,7,1,34,10,0,0,1,356
3875,7,1,35,10,1,1,0,382
3876,7,1,36,5,0,0,1,373
3877,7,1,37,2,1,1,1,308
3878,7,1,38,32,0,0,1,427
3879,7,1,39,5,1,1,1,278
3880,7,1,40,1,1,1,1,318
3881,7,1,41,32,1,1,1,423
3882,7,1,42,10,0,0,1,311
3883,7,1,43,10,0,0,1,338
3884,7,1,44,2,0,0,1,362
3885,7,1,45,32,0,0,1,395
3886,7,1,46,5,1,1,1,369
3887,7,1,47,10,0,0,1,260
3888,7,1,48,20,1,1,0,282
3889,7,1,49,32,1,1,1,445
3890,7,1,50,32,0,0,1,331
3891,7,1,51,32,0,0,1,287
3892,7,1,52,20,1,1,1,307
3893,7,1,53,20,0,0,1,388
3894,7,1,54,5,0,0,1,286
3895,7,1,55,10,1,1,1,318
3896,7,1,56,20,1,1,0,379
3897,7,1,57,2,0,0,1,322
3898,7,1,58,20,1,1,0,319
3899,7,1,59,20,0,0,1,598
3900,7,1,60,10,0,0,1,423
3901,7,1,61,10,1,1,1,319
3902,7,1,62,2,0,0,1,300
3903,7,1,63,20,0,0,0,375
3904,7,1,64,10,1,1,1,374
3905,7,1,65,2,0,0,1,329
3906,7,1,66,20,0,0,1,494
3907,7,1,67,2,1,1,1,273
3908,7,1,68,5,0,0,1,368
3909,7,1,69,5,0,0,1,273
3910,7,1,70,1,0,0,1,341
3911,7,1,71,2,0,0,1,350
3912,7,1,72,32,0,0,1,452
3913,7,1,73,32,0,0,1,416
3914,7,1,74,20,0,0,1,392
3915,7,1,75,1,0,0,1,340
3916,7,1,76,32,0,0,1,435
3917,7,1,77,2,1,1,0,350
3918,7,1,78,2,0,0,0,281
3919,7,1,79,5,0,0,1,367
3920,7,1,80,2,0,0,1,302
3921,7,1,81,10,1,1,1,392
3922,7,1,82,2,1,1,0,306
3923,7,1,83,32,0,0,1,390
3924,7,1,84,2,1,1,1,311
3925,7,1,85,32,1,1,1,303
3926,7,1,86,20,1,1,1,456
3927,7,1,87,10,0,0,1,292
3928,7,1,88,10,1,1,1,319
3929,7,1,89,10,1,1,1,320
3930,7,1,90,1,1,1,1,329
3931,7,1,91,2,0,0,1,406
3932,7,1,92,32,0,0,1,457
3933,7,1,93,10,1,1,1,359
3934,7,1,94,5,1,1,1,383
3935,7,1,95,10,0,0,1,416
3936,7,1,96,2,1,1,1,341
3937,7,1,97,1,0,0,1,288
3938,7,1,98,1,1,1,1,297
3939,7,1,99,5,1,1,1,376
3940,7,1,100,2,0,0,1,321
3941,7,1,101,10,0,0,1,635
3942,7,1,102,32,1,1,0,295
3943,7,1,103,20,1,1,1,305
3944,7,1,104,20,0,0,1,415
3945,7,1,105,32,1,1,1,485
3946,7,1,106,20,1,1,1,341
3947,7,1,107,20,1,1,1,359
3948,7,1,108,5,1,1,1,325
3949,7,1,109,10,1,1,1,511
3950,7,1,110,10,1,1,1,459
3951,7,1,111,32,0,0,1,465
3952,7,1,112,32,1,1,1,402
3953,7,1,113,1,0,0,1,307
3954,7,1,114,20,1,1,1,329
3955,7,1,115,5,0,0,1,564
3956,7,1,116,20,1,1,1,352
3957,7,1,117,1,0,0,1,335
3958,7,1,118,20,0,0,1,388
3959,7,1,119,10,1,1,1,334
3960,7,1,120,2,0,0,1,373
3961,7,1,121,10,0,0,1,397
3962,7,1,122,20,1,1,0,324
3963,7,1,123,5,0,0,1,311
3964,7,1,124,10,1,1,1,320
3965,7,1,125,20,1,1,1,725
3966,7,1,126,20,0,0,1,296
3967,7,1,127,5,1,1,1,485
3968,7,1,128,5,0,0,1,406
3969,7,1,129,32,1,1,1,334
3970,7,1,130,10,1,1,0,272
3971,7,1,131,2,0,0,1,311
3972,7,1,132,20,0,0,0,370
3973,7,1,133,2,1,1,1,294
3974,7,1,134,10,1,1,1,444
3975,7,1,135,2,0,0,0,319
3976,7,1,136,20,1,1,1,331
3977,7,1,137,5,0,0,1,335
3978,7,1,138,10,0,0,1,351
