trial_id,Subject,block_n,Trial,set_size,correctResponse,resp,acc,RT
1,1,1,1,32,1,1,1,671
2,1,1,2,10,1,1,1,476
3,1,1,3,10,0,0,1,559
4,1,1,4,32,1,1,1,552
5,1,1,5,5,1,1,1,526
6,1,1,6,20,0,0,1,484
7,1,1,7,5,0,0,1,574
8,1,1,8,2,1,1,1,387
9,1,1,9,2,0,0,1,387
10,1,1,10,2,0,0,1,437
11,1,1,11,20,1,1,1,569
12,1,1,12,10,0,0,1,421
13,1,1,13,32,0,0,1,515
14,1,1,14,2,1,1,1,457
15,1,1,15,2,1,1,1,485
16,1,1,16,5,1,1,1,541
17,1,1,17,5,0,0,1,500
18,1,1,18,10,0,0,1,515
19,1,1,19,2,0,0,1,388
20,1,1,20,1,0,0,1,409
21,1,1,21,10,1,1,1,625
22,1,1,22,20,1,1,1,571
23,1,1,23,20,1,1,1,559
24,1,1,24,2,0,0,1,406
25,1,1,25,20,0,0,1,487
26,1,1,26,2,1,1,1,452
27,1,1,27,5,1,1,1,419
28,1,1,28,32,0,0,1,624
29,1,1,29,5,0,0,1,526
30,1,1,30,5,0,0,1,466
31,1,1,31,2,1,1,1,534
32,1,1,32,10,0,0,1,502
33,1,1,33,32,0,0,1,498
34,1,1,34,10,1,1,1,445
35,1,1,35,2,0,0,1,448
36,1,1,36,32,0,0,1,480
37,1,1,37,32,1,1,1,513
38,1,1,38,1,0,0,1,329
39,1,1,39,10,1,1,1,789
40,1,1,40,32,1,1,1,457
41,1,1,41,32,0,0,1,518
42,1,1,42,1,1,1,1,478
43,1,1,43,10,1,1,1,359
44,1,1,44,20,1,1,1,486
45,1,1,45,32,1,1,1,418
46,1,1,46,32,0,0,1,443
47,1,1,47,2,1,1,1,501
48,1,1,48,10,0,0,1,413
49,1,1,49,2,0,0,1,532
50,1,1,50,2,1,1,1,378
51,1,1,51,20,0,0,1,531
52,1,1,52,2,1,1,1,449
53,1,1,53,32,0,0,1,468
54,1,1,54,5,1,1,1,403
55,1,1,55,1,0,0,1,512
56,1,1,56,20,1,1,1,404
57,1,1,57,5,1,1,1,413
58,1,1,58,20,0,0,1,475
59,1,1,59,20,1,1,1,442
60,1,1,60,10,1,1,1,474
61,1,1,61,20,1,1,1,491
62,1,1,62,32,0,0,1,524
63,1,1,63,5,0,0,1,494
64,1,1,64,2,1,1,1,535
65,1,1,65,5,1,1,1,493
66,1,1,66,5,1,1,1,544
67,1,1,67,10,1,1,1,485
68,1,1,68,2,1,1,1,448
69,1,1,69,2,1,1,1,506
70,1,1,70,5,1,1,1,424
71,1,1,71,10,1,1,1,354
72,1,1,72,2,0,0,1,395
73,1,1,73,32,1,1,1,478
74,1,1,74,20,0,0,1,463
75,1,1,75,2,0,0,1,419
76,1,1,76,2,0,0,1,498
77,1,1,77,32,1,1,1,495
78,1,1,78,2,0,0,1,369
79,1,1,79,5,0,0,1,540
80,1,1,80,32,1,1,1,381
81,1,1,81,10,1,1,1,524
82,1,1,82,5,0,0,1,441
83,1,1,83,10,0,0,1,471
84,1,1,84,32,1,1,1,472
85,1,1,85,2,0,0,1,570
86,1,1,86,10,0,0,1,466
87,1,1,87,10,1,1,1,398
88,1,1,88,10,0,0,1,432
89,1,1,89,20,1,1,1,445
90,1,1,90,10,0,0,1,514
91,1,1,91,2,0,0,1,412
92,1,1,92,5,0,0,1,351
93,1,1,93,5,1,1,1,473
94,1,1,94,20,0,0,1,451
95,1,1,95,10,1,1,1,393
96,1,1,96,20,0,0,1,409
97,1,1,97,2,1,1,1,342
98,1,1,98,10,0,0,1,364
99,1,1,99,1,1,1,1,328
100,1,1,100,2,1,1,1,391
101,1,1,101,1,0,0,1,323
102,1,1,102,10,0,0,1,386
103,1,1,103,2,0,0,1,281
104,1,1,104,2,1,1,1,470
105,1,1,105,20,1,1,1,395
106,1,1,106,20,1,1,1,451
107,1,1,107,5,0,0,1,407
108,1,1,108,32,0,0,1,652
109,1,1,109,1,1,1,1,441
110,1,1,110,5,0,0,1,349
111,1,1,111,32,0,0,0,438
112,1,1,112,5,0,0,1,430
113,1,1,113,20,1,1,1,440
114,1,1,114,5,0,0,1,492
115,1,1,115,32,1,1,1,445
116,1,1,116,10,1,1,1,385
117,1,1,117,5,1,1,1,566
118,1,1,118,20,0,0,1,521
119,1,1,119,20,1,1,1,516
120,1,1,120,20,0,0,1,402
121,1,1,121,20,1,1,1,460
122,1,1,122,2,1,1,1,368
123,1,1,123,2,1,1,1,461
124,1,1,124,2,1,1,1,352
125,1,1,125,5,1,1,1,329
126,1,1,126,5,0,0,1,359
127,1,1,127,5,0,0,1,440
128,1,1,128,32,0,0,1,415
129,1,1,129,20,1,1,1,524
130,1,1,130,2,1,1,1,872
131,1,1,131,2,0,0,1,504
132,1,1,132,32,1,1,1,493
133,1,1,133,20,1,1,1,454
134,1,1,134,20,0,0,1,375
135,1,1,135,10,0,0,1,507
136,1,1,136,10,0,0,1,368
137,1,1,137,5,0,0,1,565
138,1,1,138,5,1,1,1,424
139,1,1,139,2,0,0,1,346
140,1,1,140,20,0,0,1,380
141,1,1,141,10,1,1,1,653
142,1,1,142,32,0,0,1,413
143,1,1,143,5,1,1,1,497
144,1,1,144,20,0,0,1,504
145,1,1,145,10,0,0,1,545
146,1,1,146,32,0,0,1,454
147,1,1,147,2,1,1,1,425
148,1,1,148,10,0,0,1,414
149,1,1,149,32,0,0,1,402
150,1,1,150,5,1,1,1,447
151,1,1,151,1,1,1,1,379
152,1,1,152,32,0,0,1,491
153,1,1,153,10,1,1,1,363
154,1,1,154,1,1,1,1,377
155,1,1,155,10,1,1,1,448
156,1,1,156,20,0,0,1,493
157,1,1,157,32,0,0,1,422
158,1,1,158,5,0,0,1,439
159,1,1,159,5,1,1,1,392
160,1,1,160,32,1,1,1,490
161,1,1,161,2,0,0,1,418
162,1,1,162,2,0,0,1,381
163,1,1,163,10,0,0,1,367
164,1,1,164,32,0,0,1,374
165,1,1,165,5,0,0,1,436
166,1,1,166,10,1,1,1,446
167,1,1,167,32,0,0,1,366
168,1,1,168,5,0,0,1,448
169,1,1,169,2,1,1,1,366
170,1,1,170,2,1,1,0,286
171,1,1,171,2,0,0,1,430
172,1,1,172,5,0,0,1,415
173,1,1,173,5,1,1,1,815
174,1,1,174,20,0,0,1,613
175,1,1,175,2,0,0,1,486
176,1,1,176,1,0,0,1,344
177,1,1,177,10,0,0,1,393
178,1,1,178,2,1,1,1,430
179,1,1,179,2,0,0,1,481
180,1,1,180,5,0,0,1,562
181,1,1,181,5,1,1,1,436
182,1,1,182,1,0,0,1,447
183,1,1,183,32,0,0,1,483
184,1,1,184,20,0,0,1,407
185,1,1,185,20,1,1,1,449
186,1,1,186,20,1,1,1,388
187,1,1,187,10,1,1,1,396
188,1,1,188,20,1,1,1,440
189,1,1,189,5,0,0,1,341
190,1,1,190,10,0,0,1,389
191,1,1,191,5,0,0,1,430
192,1,1,192,1,1,1,1,470
193,1,1,193,10,1,1,1,533
194,1,1,194,5,0,0,1,480
195,1,1,195,10,0,0,1,520
196,1,1,196,20,0,0,1,401
197,1,1,197,10,0,0,1,390
198,1,1,198,32,1,1,1,424
199,1,1,199,32,1,1,1,575
200,1,1,200,32,0,0,1,403
201,1,1,201,5,0,0,1,656
202,1,1,202,20,0,0,1,677
203,1,1,203,32,1,1,1,510
204,1,1,204,5,1,1,1,536
205,1,1,205,20,1,1,1,467
206,1,1,206,10,1,1,1,422
207,1,1,207,20,0,0,1,524
208,1,1,208,5,0,0,1,478
209,1,1,209,32,0,0,1,451
210,1,1,210,2,0,0,1,409
211,1,1,211,32,0,0,1,443
212,1,1,212,32,1,1,1,374
213,1,1,213,2,0,0,1,495
214,1,1,214,20,0,0,1,458
215,1,1,215,32,1,1,1,458
216,1,1,216,10,0,0,1,410
217,1,1,217,10,0,0,1,435
218,1,1,218,2,0,0,1,338
219,1,1,219,32,0,0,1,405
220,1,1,220,2,0,0,1,393
221,1,1,221,5,0,0,1,351
222,1,1,222,10,0,0,1,308
223,1,1,223,5,1,1,1,438
224,1,1,224,2,1,1,1,387
225,1,1,225,1,1,1,1,424
226,1,1,226,32,1,1,1,544
227,1,1,227,5,0,0,1,413
228,1,1,228,32,0,0,1,618
229,1,1,229,20,0,0,1,526
230,1,1,230,2,1,1,1,478
231,1,1,231,2,0,0,1,461
232,1,1,232,20,1,1,1,868
233,1,1,233,10,0,0,1,530
234,1,1,234,2,1,1,1,422
235,1,1,235,10,0,0,1,445
236,1,1,236,5,1,1,1,790
237,1,1,237,20,1,1,1,519
238,1,1,238,2,1,1,1,455
239,1,1,239,32,1,1,1,453
240,1,1,240,20,1,1,1,391
241,1,1,241,10,0,0,1,495
242,1,1,242,5,0,0,1,408
243,1,1,243,20,0,0,1,454
244,1,1,244,5,0,0,1,408
245,1,1,245,20,0,0,1,446
246,1,1,246,32,1,1,1,481
247,1,1,247,1,1,1,1,537
248,1,1,248,32,0,0,1,434
249,1,1,249,5,0,0,1,392
250,1,1,250,5,0,0,1,363
251,1,1,251,32,1,1,1,407
252,1,1,252,32,0,0,1,389
253,1,1,253,2,1,1,1,429
254,1,1,254,20,1,1,1,387
255,1,1,255,32,1,1,1,498
256,1,1,256,32,0,0,1,389
257,1,1,257,5,1,1,1,359
258,1,1,258,5,1,1,1,472
259,1,1,259,5,1,1,1,336
260,1,1,260,2,1,1,1,360
261,1,1,261,32,0,0,1,461
262,1,1,262,32,1,1,1,412
263,1,1,263,5,0,0,1,323
264,1,1,264,20,0,0,1,384
265,1,1,265,10,1,1,1,386
266,1,1,266,32,0,0,1,407
267,1,1,267,32,0,0,1,639
268,1,1,268,32,1,1,1,490
269,1,1,269,10,1,1,1,394
270,1,1,270,5,0,0,1,461
271,1,1,271,5,1,1,1,340
272,1,1,272,10,1,1,1,436
273,1,1,273,20,0,0,1,482
274,1,1,274,20,1,1,1,406
275,1,1,275,10,1,1,1,422
276,1,1,276,1,1,1,1,458
277,1,1,277,20,0,0,1,384
278,1,1,278,1,0,0,1,347
279,1,1,279,5,1,1,1,394
280,1,1,280,10,1,1,0,360
281,1,1,281,32,0,0,1,1052
282,1,1,282,10,1,1,1,463
283,1,1,283,2,1,1,1,430
284,1,1,284,2,1,1,1,317
285,1,1,285,5,1,1,1,433
286,1,1,286,20,0,0,1,510
287,1,1,287,32,1,1,1,438
288,1,1,288,2,0,0,1,348
289,1,1,289,5,1,1,1,499
290,1,1,290,10,0,0,1,382
291,1,1,291,20,0,0,1,418
292,1,1,292,2,0,0,1,421
293,1,1,293,2,1,1,1,465
294,1,1,294,5,1,1,1,362
295,1,1,295,2,1,1,1,490
296,1,1,296,32,1,1,1,402
297,1,1,297,1,1,1,1,322
298,1,1,298,32,1,1,1,519
299,1,1,299,10,0,0,1,521
300,1,1,300,2,0,0,1,577
301,1,1,301,10,1,1,1,536
302,1,1,302,2,0,0,1,368
303,1,1,303,2,0,0,1,354
304,1,1,304,20,0,0,1,358
305,1,1,305,20,0,0,0,362
306,1,1,306,10,1,1,1,554
307,1,1,307,32,1,1,1,386
308,1,1,308,5,0,0,1,499
309,1,1,309,10,1,1,1,444
310,1,1,310,32,1,1,1,457
311,1,1,311,5,1,1,1,469
312,1,1,312,20,1,1,1,408
313,1,1,313,20,0,0,1,386
314,1,1,314,2,0,0,1,361
315,1,1,315,5,0,0,1,454
316,1,1,316,10,1,1,1,463
317,1,1,317,2,1,1,1,767
318,1,1,318,2,1,1,1,458
319,1,1,319,5,1,1,1,621
320,1,1,320,32,0,0,1,722
321,1,1,321,5,1,1,1,935
322,1,1,322,20,0,0,1,473
323,1,1,323,20,1,1,1,503
324,1,1,324,32,0,0,1,477
325,1,1,325,10,1,1,1,472
326,1,1,326,32,1,1,1,363
327,1,1,327,20,0,0,1,529
328,1,1,328,5,0,0,1,463
329,1,1,329,2,1,1,1,391
330,1,1,330,5,1,1,1,462
331,1,1,331,5,0,0,1,381
332,1,1,332,2,0,0,1,376
333,1,1,333,2,0,0,1,302
334,1,1,334,20,0,0,1,403
335,1,1,335,2,0,0,1,453
336,1,1,336,32,1,1,1,413
337,1,1,337,32,0,0,1,452
338,1,1,338,10,0,0,1,401
339,1,1,339,5,1,1,1,421
340,1,1,340,1,0,0,1,331
341,1,1,341,10,1,1,1,427
342,1,1,342,20,1,1,1,491
343,1,1,343,32,1,1,1,413
344,1,1,344,5,0,0,1,356
345,1,1,345,5,1,1,1,404
346,1,1,346,2,1,1,1,415
347,1,1,347,20,1,1,1,418
348,1,1,348,10,0,0,1,522
349,1,1,349,10,1,1,1,399
350,1,1,350,5,0,0,1,483
351,1,1,351,5,1,1,1,409
352,1,1,352,1,1,1,1,408
353,1,1,353,2,0,0,1,321
354,1,1,354,2,1,1,1,369
355,1,1,355,2,0,0,1,368
356,1,1,356,1,1,1,1,410
357,1,1,357,10,0,0,1,423
358,1,1,358,10,1,1,1,391
359,1,1,359,32,0,0,1,367
360,1,1,360,32,1,1,1,501
361,1,1,361,1,1,1,1,595
362,1,1,362,2,1,1,1,372
363,1,1,363,2,0,0,1,421
364,1,1,364,20,0,0,1,401
365,1,1,365,1,0,0,1,387
366,1,1,366,10,1,1,1,382
367,1,1,367,10,0,0,1,318
368,1,1,368,20,0,0,1,366
369,1,1,369,20,1,1,1,515
370,1,1,370,10,0,0,1,393
371,1,1,371,20,0,0,1,420
372,1,1,372,2,0,0,1,341
373,1,1,373,20,1,1,1,463
374,1,1,374,2,0,0,1,377
375,1,1,375,32,1,1,1,427
376,1,1,376,5,0,0,1,486
377,1,1,377,10,0,0,1,411
378,1,1,378,32,1,1,1,437
379,1,1,379,5,1,1,1,378
380,1,1,380,32,0,0,1,438
381,1,1,381,5,1,1,1,505
382,1,1,382,32,1,1,1,472
383,1,1,383,20,0,0,1,444
384,1,1,384,10,0,0,1,485
385,1,1,385,2,1,1,1,460
386,1,1,386,5,0,0,1,429
387,1,1,387,32,0,0,1,406
388,1,1,388,10,0,0,1,371
389,1,1,389,2,0,0,1,373
390,1,1,390,10,0,0,1,364
391,1,1,391,20,1,1,1,424
392,1,1,392,2,1,1,1,444
393,1,1,393,2,1,1,1,396
394,1,1,394,2,0,0,1,537
395,1,1,395,1,0,0,1,371
396,1,1,396,20,0,0,1,356
397,1,1,397,32,1,1,1,486
398,1,1,398,5,0,0,1,348
399,1,1,399,32,1,1,1,409
400,1,1,400,32,1,1,1,358
401,1,1,401,1,1,1,1,631
402,1,1,402,20,1,1,1,375
403,1,1,403,1,1,1,1,302
404,1,1,404,5,1,1,1,361
405,1,1,405,10,1,1,1,499
406,1,1,406,20,1,1,1,548
407,1,1,407,20,1,1,1,596
408,1,1,408,5,1,1,1,474
409,1,1,409,5,1,1,1,509
410,1,1,410,10,1,1,1,360
411,1,1,411,20,1,1,1,320
412,1,1,412,20,0,0,0,293
413,1,1,413,10,0,0,1,422
414,1,1,414,10,0,0,1,502
415,1,1,415,10,0,0,1,448
416,1,1,416,20,0,0,1,407
417,1,1,417,1,0,0,1,362
418,1,1,418,32,1,1,1,483
419,1,1,419,10,1,1,1,383
420,1,1,420,10,0,0,1,409
421,1,1,421,32,0,0,1,376
422,1,1,422,1,1,1,1,367
423,1,1,423,32,1,1,1,396
424,1,1,424,1,1,1,1,396
425,1,1,425,10,0,0,1,347
426,1,1,426,20,1,1,1,471
427,1,1,427,2,0,0,1,467
428,1,1,428,10,0,0,1,375
429,1,1,429,10,1,1,1,410
430,1,1,430,32,0,0,1,514
431,1,1,431,20,0,0,1,404
432,1,1,432,2,1,1,1,449
433,1,1,433,2,0,0,1,431
434,1,1,434,20,0,0,1,542
435,1,1,435,20,1,1,1,424
436,1,1,436,2,1,1,1,550
437,1,1,437,10,1,1,1,419
438,1,1,438,2,1,1,1,588
439,1,1,439,1,0,0,1,512
440,1,1,440,20,1,1,1,526
441,1,1,441,2,0,0,1,516
442,1,1,442,20,0,0,1,405
443,1,1,443,5,1,1,1,360
444,1,1,444,20,1,1,1,375
445,1,1,445,5,1,1,1,313
446,1,1,446,10,1,1,1,365
447,1,1,447,10,0,0,1,385
448,1,1,448,2,0,0,1,522
449,1,1,449,10,0,0,1,419
450,1,1,450,32,0,0,1,392
451,1,1,451,2,0,0,0,405
452,1,1,452,2,1,1,1,554
453,1,1,453,20,1,1,1,476
454,1,1,454,1,0,0,1,379
455,1,1,455,1,0,0,1,409
456,1,1,456,32,1,1,1,636
457,1,1,457,10,1,1,1,404
458,1,1,458,5,1,1,1,467
459,1,1,459,32,0,0,1,480
460,1,1,460,2,1,1,1,414
461,1,1,461,5,1,1,1,406
462,1,1,462,2,1,1,1,514
463,1,1,463,10,0,0,1,494
464,1,1,464,2,1,1,1,632
465,1,1,465,32,0,0,1,506
466,1,1,466,32,0,0,1,574
467,1,1,467,2,1,1,1,690
468,1,1,468,2,0,0,1,497
469,1,1,469,20,1,1,1,489
470,1,1,470,20,1,1,1,417
471,1,1,471,10,1,1,1,467
472,1,1,472,2,1,1,1,324
473,1,1,473,32,1,1,1,350
474,1,1,474,32,0,0,1,510
475,1,1,475,1,1,1,1,432
476,1,1,476,10,0,0,1,472
477,1,1,477,5,0,0,1,485
478,1,1,478,32,0,0,1,459
479,1,1,479,32,1,1,1,548
480,1,1,480,32,0,0,1,496
481,1,1,481,10,1,1,1,981
482,1,1,482,20,1,1,1,545
483,1,1,483,2,1,1,1,421
484,1,1,484,20,0,0,1,576
485,1,1,485,5,0,0,1,498
486,1,1,486,20,1,1,1,587
487,1,1,487,2,1,1,1,377
488,1,1,488,5,0,0,1,761
489,1,1,489,2,0,0,1,338
490,1,1,490,5,0,0,1,419
491,1,1,491,10,0,0,1,390
492,1,1,492,20,0,0,1,461
493,1,1,493,32,1,1,1,484
494,1,1,494,32,1,1,1,534
495,1,1,495,20,0,0,1,436
496,1,1,496,32,0,0,1,424
497,1,1,497,5,1,1,1,548
498,1,1,498,5,1,1,1,492
499,1,1,499,32,1,1,1,442
500,1,1,500,20,1,1,1,351
501,1,1,501,5,1,1,1,316
502,1,1,502,10,0,0,1,345
503,1,1,503,20,1,1,1,502
504,1,1,504,5,1,1,1,401
505,1,1,505,2,0,0,1,360
506,1,1,506,2,1,1,1,320
507,1,1,507,5,1,1,1,357
508,1,1,508,5,0,0,1,334
509,1,1,509,2,0,0,1,386
510,1,1,510,10,1,1,1,366
511,1,1,511,10,0,0,1,418
512,1,1,512,32,1,1,1,373
513,1,1,513,5,0,0,1,475
514,1,1,514,2,1,1,1,338
515,1,1,515,20,1,1,1,564
516,1,1,516,20,0,0,1,308
517,1,1,517,32,1,1,1,364
518,1,1,518,32,0,0,1,433
519,1,1,519,2,0,0,1,410
520,1,1,520,5,0,0,1,470
521,1,1,521,20,1,1,1,555
522,1,1,522,10,1,1,1,437
523,1,1,523,20,0,0,1,429
524,1,1,524,2,0,0,1,296
525,1,1,525,20,1,1,1,458
526,1,1,526,5,1,1,1,407
527,1,1,527,1,0,0,1,292
528,1,1,528,10,1,1,1,600
529,1,1,529,10,0,0,1,361
530,1,1,530,32,1,1,0,338
531,1,1,531,10,1,1,1,381
532,1,1,532,20,0,0,1,372
533,1,1,533,2,0,0,1,398
534,1,1,534,10,0,0,1,357
535,1,1,535,10,0,0,1,351
536,1,1,536,2,0,0,1,420
537,1,1,537,32,0,0,1,441
538,1,1,538,20,1,1,1,401
539,1,1,539,5,0,0,1,423
540,1,1,540,32,1,1,1,400
541,1,1,541,20,0,0,1,476
542,1,1,542,20,1,1,1,435
543,1,1,543,20,1,1,1,371
544,1,1,544,5,0,0,1,411
545,1,1,545,32,0,0,0,377
546,1,1,546,32,0,0,1,649
547,1,1,547,32,0,0,1,424
548,1,1,548,2,0,0,1,410
549,1,1,549,32,1,1,1,611
550,1,1,550,1,0,0,1,361
551,1,1,551,20,1,1,1,466
552,1,1,552,10,0,0,1,370
553,1,1,553,20,0,0,1,439
554,1,1,554,10,1,1,1,403
555,1,1,555,10,1,1,0,438
556,1,1,556,5,0,0,1,421
557,1,1,557,10,0,0,1,629
558,1,1,558,5,0,0,1,391
559,1,1,559,5,0,0,1,434
560,1,1,560,10,1,1,1,475
561,1,1,561,5,0,0,1,800
562,1,1,562,32,1,1,1,434
563,1,1,563,20,1,1,1,530
564,1,1,564,2,1,1,1,378
565,1,1,565,2,0,0,1,544
566,1,1,566,20,0,0,1,448
567,1,1,567,5,0,0,1,422
568,1,1,568,10,1,1,1,540
569,1,1,569,20,1,1,1,504
570,1,1,570,32,1,1,1,446
571,1,1,571,32,0,0,1,504
572,1,1,572,1,1,1,1,489
573,1,1,573,20,0,0,1,540
574,1,1,574,20,1,1,1,458
575,1,1,575,20,1,1,1,382
576,1,1,576,10,0,0,1,466
577,1,1,577,32,0,0,1,467
578,1,1,578,32,1,1,1,572
579,1,1,579,5,0,0,1,447
580,1,1,580,10,1,1,1,436
581,1,1,581,5,1,1,1,470
582,1,1,582,1,0,0,1,420
583,1,1,583,20,1,1,1,541
584,1,1,584,10,1,1,1,302
585,1,1,585,20,0,0,1,427
586,1,1,586,32,0,0,1,518
587,1,1,587,20,0,0,1,401
588,1,1,588,10,1,1,1,463
589,1,1,589,2,0,0,1,404
590,1,1,590,32,1,1,1,385
591,1,1,591,1,0,0,1,330
592,1,1,592,20,0,0,1,450
593,1,1,593,5,0,0,1,393
594,1,1,594,32,1,1,1,574
595,1,1,595,2,1,1,1,396
596,1,1,596,5,1,1,1,514
597,1,1,597,32,1,1,1,445
598,1,1,598,2,1,1,1,362
599,1,1,599,5,1,1,1,453
600,1,1,600,10,1,1,1,357
601,1,1,601,20,0,0,1,772
602,1,1,602,10,0,0,1,354
603,1,1,603,32,0,0,0,376
604,1,1,604,10,1,1,1,533
605,1,1,605,1,0,0,1,403
606,1,1,606,2,0,0,1,391
607,1,1,607,5,1,1,1,390
608,1,1,608,2,1,1,1,372
609,1,1,609,10,1,1,1,414
610,1,1,610,2,1,1,1,352
611,1,1,611,20,1,1,1,358
612,1,1,612,10,1,1,1,523
613,1,1,613,5,1,1,1,421
614,1,1,614,2,1,1,1,414
615,1,1,615,32,0,0,1,551
616,1,1,616,20,0,0,1,396
617,1,1,617,10,0,0,1,483
618,1,1,618,5,1,1,1,436
619,1,1,619,1,1,1,1,823
620,1,1,620,10,0,0,1,456
621,1,1,621,5,1,1,1,401
622,1,1,622,5,0,0,1,541
623,1,1,623,32,1,1,1,526
624,1,1,624,5,1,1,1,621
625,1,1,625,32,0,0,1,479
626,1,1,626,2,0,0,1,510
627,1,1,627,20,0,0,1,507
628,1,1,628,10,1,1,1,471
629,1,1,629,32,0,0,1,372
630,1,1,630,5,1,1,1,509
631,1,1,631,2,0,0,1,533
632,1,1,632,5,1,1,1,480
633,1,1,633,20,1,1,1,519
634,1,1,634,5,0,0,1,413
635,1,1,635,10,1,1,1,874
636,1,1,636,32,0,0,1,566
637,1,1,637,32,1,1,1,701
638,1,1,638,10,0,0,1,502
639,1,1,639,1,0,0,1,634
640,1,1,640,20,0,0,1,830
641,2,1,1,10,1,1,1,877
642,2,1,2,20,0,0,1,510
643,2,1,3,10,0,0,1,417
644,2,1,4,2,0,0,1,424
645,2,1,5,20,1,1,1,1862
646,2,1,6,10,0,0,1,531
647,2,1,7,5,1,1,1,517
648,2,1,8,2,1,1,1,383
649,2,1,9,5,0,0,1,476
650,2,1,10,32,0,0,1,493
651,2,1,11,20,0,0,1,449
652,2,1,12,2,1,1,1,601
653,2,1,13,5,0,0,1,599
654,2,1,14,5,0,0,1,497
655,2,1,15,5,1,1,1,498
656,2,1,16,5,0,0,1,401
657,2,1,17,2,1,1,1,559
658,2,1,18,32,0,0,1,674
659,2,1,19,32,1,1,1,478
660,2,1,20,10,0,0,1,502
661,2,1,21,5,1,1,1,591
662,2,1,22,20,1,1,1,583
663,2,1,23,10,0,0,1,585
664,2,1,24,5,1,1,1,1384
665,2,1,25,1,0,0,1,459
666,2,1,26,2,0,0,1,499
667,2,1,27,20,0,0,1,1086
668,2,1,28,20,1,1,1,504
669,2,1,29,10,1,1,1,510
670,2,1,30,10,0,0,1,340
671,2,1,31,10,1,1,1,363
672,2,1,32,5,0,0,1,383
673,2,1,33,2,1,1,1,865
674,2,1,34,32,1,1,1,709
675,2,1,35,32,0,0,1,529
676,2,1,36,10,0,0,1,389
677,2,1,37,2,1,1,1,429
678,2,1,38,5,1,1,1,392
679,2,1,39,10,0,0,1,435
680,2,1,40,1,1,1,1,322
681,2,1,41,5,0,0,1,486
682,2,1,42,10,1,1,1,457
683,2,1,43,5,0,0,1,494
684,2,1,44,10,0,0,1,514
685,2,1,45,5,0,0,1,561
686,2,1,46,5,0,0,1,722
687,2,1,47,10,1,1,1,433
688,2,1,48,10,0,0,1,390
689,2,1,49,2,0,0,1,484
690,2,1,50,2,0,0,1,440
691,2,1,51,2,0,0,1,364
692,2,1,52,32,0,0,1,528
693,2,1,53,20,0,0,1,617
694,2,1,54,20,1,1,1,881
695,2,1,55,32,0,0,1,567
696,2,1,56,10,1,1,1,463
697,2,1,57,2,0,0,1,376
698,2,1,58,32,0,0,1,502
699,2,1,59,2,1,1,1,519
700,2,1,60,1,0,0,1,374
701,2,1,61,5,0,0,1,444
702,2,1,62,2,0,0,1,498
703,2,1,63,20,0,0,1,448
704,2,1,64,5,0,0,1,431
705,2,1,65,10,0,0,1,381
706,2,1,66,32,1,1,1,790
707,2,1,67,32,1,1,1,533
708,2,1,68,20,1,1,1,526
709,2,1,69,5,1,1,1,386
710,2,1,70,20,1,1,1,446
711,2,1,71,20,0,0,1,550
712,2,1,72,20,1,1,1,1088
713,2,1,73,5,1,1,1,736
714,2,1,74,2,0,0,1,362
715,2,1,75,20,1,1,1,442
716,2,1,76,32,1,1,1,585
717,2,1,77,20,1,1,1,655
718,2,1,78,5,1,1,1,696
719,2,1,79,5,0,0,1,522
720,2,1,80,1,1,1,1,532
721,2,1,81,32,0,0,1,620
722,2,1,82,2,0,0,1,462
723,2,1,83,32,0,0,1,424
724,2,1,84,32,0,0,1,465
725,2,1,85,5,0,0,1,397
726,2,1,86,2,1,1,0,435
727,2,1,87,20,0,0,1,521
728,2,1,88,1,1,1,1,372
729,2,1,89,10,0,0,1,486
730,2,1,90,2,1,1,1,392
731,2,1,91,32,1,1,1,504
732,2,1,92,10,0,0,1,482
733,2,1,93,10,0,0,1,429
734,2,1,94,20,1,1,1,706
735,2,1,95,10,0,0,1,906
736,2,1,96,32,1,1,1,524
737,2,1,97,1,0,0,1,336
738,2,1,98,20,0,0,1,589
739,2,1,99,20,1,1,1,341
740,2,1,100,2,0,0,1,369
741,2,1,101,5,0,0,1,485
742,2,1,102,20,0,0,1,415
743,2,1,103,5,0,0,1,432
744,2,1,104,2,0,0,1,482
745,2,1,105,20,0,0,1,473
746,2,1,106,5,1,1,1,601
747,2,1,107,32,1,1,1,509
748,2,1,108,20,0,0,1,528
749,2,1,109,2,1,1,1,607
750,2,1,110,20,0,0,1,436
751,2,1,111,20,0,0,1,480
752,2,1,112,2,1,1,1,519
753,2,1,113,2,1,1,1,628
754,2,1,114,2,1,1,1,498
755,2,1,115,32,1,1,1,442
756,2,1,116,20,1,1,1,530
757,2,1,117,32,1,1,1,486
758,2,1,118,10,0,0,0,465
759,2,1,119,20,1,1,1,472
760,2,1,120,2,1,1,1,547
761,2,1,121,2,0,0,1,1251
762,2,1,122,10,1,1,1,641
763,2,1,123,10,1,1,1,733
764,2,1,124,10,1,1,1,560
765,2,1,125,2,0,0,1,507
766,2,1,126,10,1,1,1,551
767,2,1,127,5,1,1,1,778
768,2,1,128,2,0,0,1,421
769,2,1,129,10,1,1,1,885
770,2,1,130,20,1,1,1,519
771,2,1,131,2,0,0,1,554
772,2,1,132,20,0,0,1,603
773,2,1,133,20,0,0,1,727
774,2,1,134,32,1,1,1,522
775,2,1,135,10,1,1,1,525
776,2,1,136,1,1,1,1,443
777,2,1,137,32,1,1,1,575
778,2,1,138,10,0,0,1,648
779,2,1,139,20,1,1,1,507
780,2,1,140,32,0,0,1,534
781,2,1,141,20,0,0,1,535
782,2,1,142,20,1,1,1,528
783,2,1,143,20,0,0,1,603
784,2,1,144,32,0,0,1,486
785,2,1,145,32,0,0,1,644
786,2,1,146,20,1,1,1,617
787,2,1,147,5,0,0,1,826
788,2,1,148,20,0,0,1,466
789,2,1,149,10,1,1,1,455
790,2,1,150,10,1,1,1,970
791,2,1,151,10,0,0,1,576
792,2,1,152,2,1,1,1,546
793,2,1,153,20,0,0,1,457
794,2,1,154,32,1,1,1,456
795,2,1,155,5,0,0,1,570
796,2,1,156,20,1,1,1,665
797,2,1,157,1,1,1,1,477
798,2,1,158,2,0,0,1,478
799,2,1,159,32,0,0,1,603
800,2,1,160,20,1,1,1,549
801,2,1,161,20,0,0,1,647
802,2,1,162,1,0,0,1,569
803,2,1,163,1,0,0,0,330
804,2,1,164,20,1,1,1,473
805,2,1,165,2,0,0,1,773
806,2,1,166,20,0,0,1,555
807,2,1,167,32,1,1,1,483
808,2,1,168,5,1,1,1,652
809,2,1,169,2,0,0,1,792
810,2,1,170,20,0,0,1,613
811,2,1,171,20,1,1,1,567
812,2,1,172,5,1,1,1,511
813,2,1,173,2,1,1,1,579
814,2,1,174,20,1,1,1,592
815,2,1,175,2,1,1,1,510
816,2,1,176,32,0,0,1,467
817,2,1,177,20,0,0,1,531
818,2,1,178,32,0,0,1,527
819,2,1,179,2,1,1,1,441
820,2,1,180,32,1,1,1,544
821,2,1,181,5,1,1,1,1128
822,2,1,182,2,0,0,1,426
823,2,1,183,32,1,1,1,481
824,2,1,184,10,0,0,1,515
825,2,1,185,1,0,0,1,464
826,2,1,186,32,1,1,1,515
827,2,1,187,5,1,1,1,1101
828,2,1,188,20,1,1,1,649
829,2,1,189,5,0,0,1,584
830,2,1,190,2,1,1,1,618
831,2,1,191,5,1,1,1,487
832,2,1,192,10,0,0,1,496
833,2,1,193,32,0,0,1,485
834,2,1,194,10,1,1,1,522
835,2,1,195,2,0,0,1,564
836,2,1,196,1,1,1,1,491
837,2,1,197,20,0,0,1,592
838,2,1,198,5,0,0,1,650
839,2,1,199,10,1,1,1,1145
840,2,1,200,10,0,0,1,612
841,2,1,201,2,1,1,1,595
842,2,1,202,32,0,0,1,588
843,2,1,203,32,0,0,1,487
844,2,1,204,20,0,0,1,525
845,2,1,205,2,1,1,1,904
846,2,1,206,20,0,0,1,625
847,2,1,207,20,0,0,1,592
848,2,1,208,2,0,0,1,504
849,2,1,209,2,1,1,1,721
850,2,1,210,10,0,0,1,696
851,2,1,211,5,0,0,1,465
852,2,1,212,10,0,0,1,509
853,2,1,213,32,1,1,1,1210
854,2,1,214,2,1,1,1,1113
855,2,1,215,20,1,1,1,543
856,2,1,216,32,0,0,1,898
857,2,1,217,10,1,1,1,693
858,2,1,218,10,0,0,1,671
859,2,1,219,10,0,0,1,426
860,2,1,220,20,1,1,1,959
861,2,1,221,5,0,0,1,588
862,2,1,222,1,0,0,1,526
863,2,1,223,20,0,0,1,542
864,2,1,224,32,1,1,1,477
865,2,1,225,5,0,0,1,496
866,2,1,226,32,1,1,1,484
867,2,1,227,32,0,0,1,438
868,2,1,228,32,1,1,1,517
869,2,1,229,10,0,0,1,481
870,2,1,230,2,0,0,1,406
871,2,1,231,20,0,0,1,569
872,2,1,232,32,0,0,1,949
873,2,1,233,20,1,1,1,957
874,2,1,234,32,0,0,1,662
875,2,1,235,10,1,1,1,1093
876,2,1,236,5,1,1,1,959
877,2,1,237,10,0,0,1,602
878,2,1,238,2,0,0,1,568
879,2,1,239,10,1,1,1,1171
880,2,1,240,20,0,0,1,617
881,2,1,241,20,1,1,1,738
882,2,1,242,2,1,1,1,506
883,2,1,243,10,0,0,1,439
884,2,1,244,10,1,1,1,652
885,2,1,245,5,1,1,0,868
886,2,1,246,10,1,1,1,530
887,2,1,247,5,0,0,1,564
888,2,1,248,5,0,0,1,526
889,2,1,249,20,1,1,1,509
890,2,1,250,2,1,1,1,594
891,2,1,251,10,1,1,1,475
892,2,1,252,20,0,0,1,509
893,2,1,253,1,1,1,1,459
894,2,1,254,1,1,1,1,613
895,2,1,255,10,1,1,1,604
896,2,1,256,5,1,1,1,482
897,2,1,257,5,0,0,1,543
898,2,1,258,20,0,0,1,501
899,2,1,259,5,1,1,1,904
900,2,1,260,1,1,1,1,551
901,2,1,261,1,1,1,1,552
902,2,1,262,2,0,0,1,532
903,2,1,263,20,1,1,1,690
904,2,1,264,5,0,0,1,511
905,2,1,265,10,1,1,1,557
906,2,1,266,20,0,0,1,421
907,2,1,267,20,1,1,1,513
908,2,1,268,20,0,0,1,532
909,2,1,269,20,1,1,1,478
910,2,1,270,10,1,1,1,722
911,2,1,271,10,1,1,1,568
912,2,1,272,10,0,0,1,449
913,2,1,273,32,0,0,1,1568
914,2,1,274,32,0,0,1,585
915,2,1,275,20,1,1,1,472
916,2,1,276,1,0,0,1,503
917,2,1,277,5,1,1,1,400
918,2,1,278,5,1,1,1,399
919,2,1,279,10,0,0,1,396
920,2,1,280,10,0,0,1,442
921,2,1,281,20,1,1,1,683
922,2,1,282,20,0,0,1,775
923,2,1,283,10,0,0,1,446
924,2,1,284,2,0,0,1,445
925,2,1,285,10,1,1,1,538
926,2,1,286,20,0,0,1,455
927,2,1,287,2,0,0,1,509
928,2,1,288,32,1,1,1,569
929,2,1,289,5,1,1,1,470
930,2,1,290,2,0,0,1,515
931,2,1,291,5,1,1,1,451
932,2,1,292,32,0,0,1,582
933,2,1,293,2,1,1,0,545
934,2,1,294,2,1,1,1,475
935,2,1,295,32,0,0,1,489
936,2,1,296,5,1,1,1,631
937,2,1,297,2,1,1,1,482
938,2,1,298,1,0,0,1,448
939,2,1,299,20,0,0,1,637
940,2,1,300,1,0,0,1,370
941,2,1,301,2,0,0,1,434
942,2,1,302,2,1,1,1,869
943,2,1,303,32,1,1,1,450
944,2,1,304,2,0,0,1,340
945,2,1,305,10,1,1,1,578
946,2,1,306,2,1,1,1,406
947,2,1,307,2,0,0,1,479
948,2,1,308,32,1,1,1,586
949,2,1,309,5,1,1,1,704
950,2,1,310,1,0,0,1,433
951,2,1,311,2,1,1,1,704
952,2,1,312,10,0,0,1,756
953,2,1,313,2,0,0,1,498
954,2,1,314,10,1,1,1,470
955,2,1,315,32,0,0,1,402
956,2,1,316,32,1,1,1,546
957,2,1,317,2,1,1,1,598
958,2,1,318,32,0,0,1,871
959,2,1,319,1,0,0,1,413
960,2,1,320,2,1,1,1,431
961,2,1,321,5,0,0,1,662
962,2,1,322,20,1,1,1,926
963,2,1,323,20,0,0,1,509
964,2,1,324,32,1,1,1,539
965,2,1,325,10,1,1,1,403
966,2,1,326,2,0,0,1,351
967,2,1,327,5,1,1,1,409
968,2,1,328,10,1,1,1,490
969,2,1,329,10,1,1,1,545
970,2,1,330,5,1,1,1,504
971,2,1,331,2,0,0,1,507
972,2,1,332,2,1,1,1,473
973,2,1,333,20,0,0,1,817
974,2,1,334,2,1,1,1,405
975,2,1,335,1,0,0,1,496
976,2,1,336,1,1,1,1,387
977,2,1,337,32,1,1,1,544
978,2,1,338,10,1,1,1,383
979,2,1,339,1,1,1,1,430
980,2,1,340,10,0,0,1,385
981,2,1,341,1,0,0,1,470
982,2,1,342,10,0,0,1,374
983,2,1,343,32,0,0,1,396
984,2,1,344,20,0,0,1,357
985,2,1,345,10,1,1,1,595
986,2,1,346,5,1,1,1,422
987,2,1,347,5,1,1,1,402
988,2,1,348,5,1,1,1,559
989,2,1,349,32,1,1,1,380
990,2,1,350,10,1,1,1,393
991,2,1,351,2,1,1,1,489
992,2,1,352,32,0,0,1,553
993,2,1,353,32,1,1,1,683
994,2,1,354,10,0,0,1,491
995,2,1,355,32,1,1,1,442
996,2,1,356,5,1,1,1,408
997,2,1,357,2,0,0,1,458
998,2,1,358,5,1,1,1,363
999,2,1,359,1,1,1,1,633
1000,2,1,360,32,1,1,1,739
1001,2,1,361,10,1,1,1,557
1002,2,1,362,5,1,1,1,524
1003,2,1,363,5,0,0,1,445
1004,2,1,364,32,0,0,1,510
1005,2,1,365,10,0,0,1,514
1006,2,1,366,32,1,1,1,436
1007,2,1,367,2,1,1,1,440
1008,2,1,368,5,1,1,1,614
1009,2,1,369,2,0,0,1,495
1010,2,1,370,5,0,0,1,524
1011,2,1,371,32,0,0,1,686
1012,2,1,372,10,1,1,1,540
1013,2,1,373,5,0,0,1,467
1014,2,1,374,5,1,1,1,508
1015,2,1,375,10,1,1,1,472
1016,2,1,376,32,1,1,1,475
1017,2,1,377,32,1,1,1,447
1018,2,1,378,5,0,0,1,421
1019,2,1,379,5,1,1,1,426
1020,2,1,380,2,0,0,1,423
1021,2,1,381,32,1,1,1,538
1022,2,1,382,32,0,0,1,470
1023,2,1,383,32,0,0,1,479
1024,2,1,384,2,1,1,1,442
1025,2,1,385,2,1,1,1,486
1026,2,1,386,5,1,1,1,472
1027,2,1,387,5,0,0,1,486
1028,2,1,388,32,1,1,1,541
1029,2,1,389,2,1,1,1,453
1030,2,1,390,20,1,1,1,561
1031,2,1,391,2,1,1,1,455
1032,2,1,392,5,0,0,1,548
1033,2,1,393,10,0,0,1,500
1034,2,1,394,20,0,0,1,943
1035,2,1,395,2,1,1,1,1173
1036,2,1,396,2,1,1,1,542
1037,2,1,397,10,1,1,1,491
1038,2,1,398,32,1,1,1,586
1039,2,1,399,32,0,0,1,556
1040,2,1,400,32,1,1,1,490
1041,2,1,401,10,0,0,1,606
1042,2,1,402,10,0,0,1,581
1043,2,1,403,10,1,1,1,620
1044,2,1,404,5,0,0,1,612
1045,2,1,405,32,0,0,1,533
1046,2,1,406,10,1,1,1,568
1047,2,1,407,20,1,1,1,559
1048,2,1,408,10,1,1,1,483
1049,2,1,409,2,0,0,1,416
1050,2,1,410,20,0,0,1,526
1051,2,1,411,32,1,1,1,760
1052,2,1,412,1,1,1,1,590
1053,2,1,413,2,0,0,1,554
1054,2,1,414,20,0,0,1,576
1055,2,1,415,10,1,1,1,440
1056,2,1,416,10,0,0,1,533
1057,2,1,417,2,0,0,1,432
1058,2,1,418,5,0,0,1,448
1059,2,1,419,32,0,0,1,499
1060,2,1,420,32,1,1,1,506
1061,2,1,421,5,1,1,1,530
1062,2,1,422,20,1,3,0,498
1063,2,1,423,20,0,0,1,590
1064,2,1,424,5,1,1,1,1255
1065,2,1,425,32,0,0,0,355
1066,2,1,426,1,1,1,1,385
1067,2,1,427,5,0,0,1,342
1068,2,1,428,10,1,1,1,501
1069,2,1,429,20,1,1,1,419
1070,2,1,430,5,1,1,1,450
1071,2,1,431,32,1,1,1,445
1072,2,1,432,2,1,1,1,345
1073,2,1,433,32,0,0,1,524
1074,2,1,434,20,0,0,1,399
1075,2,1,435,20,1,1,1,385
1076,2,1,436,5,1,1,1,470
1077,2,1,437,20,0,0,1,473
1078,2,1,438,5,0,0,1,787
1079,2,1,439,10,0,0,1,382
1080,2,1,440,5,0,0,1,378
1081,2,1,441,1,1,1,1,594
1082,2,1,442,2,1,1,1,360
1083,2,1,443,2,1,1,1,528
1084,2,1,444,32,1,1,1,558
1085,2,1,445,32,1,1,1,835
1086,2,1,446,2,0,0,1,697
1087,2,1,447,5,1,1,1,636
1088,2,1,448,32,1,1,1,732
1089,2,1,449,2,1,1,1,572
1090,2,1,450,20,1,1,1,572
1091,2,1,451,5,0,0,1,608
1092,2,1,452,1,0,0,1,586
1093,2,1,453,20,0,0,1,589
1094,2,1,454,32,0,0,1,627
1095,2,1,455,32,1,1,1,566
1096,2,1,456,20,0,0,1,548
1097,2,1,457,5,0,0,1,695
1098,2,1,458,5,0,0,1,605
1099,2,1,459,32,0,0,1,409
1100,2,1,460,32,0,0,1,398
1101,2,1,461,2,1,1,1,646
1102,2,1,462,20,1,1,1,514
1103,2,1,463,10,0,0,1,422
1104,2,1,464,10,1,1,1,421
1105,2,1,465,20,0,0,1,379
1106,2,1,466,10,0,0,1,413
1107,2,1,467,2,1,1,1,463
1108,2,1,468,5,1,1,1,420
1109,2,1,469,1,0,0,0,351
1110,2,1,470,2,1,1,1,523
1111,2,1,471,10,0,0,1,467
1112,2,1,472,20,1,1,1,584
1113,2,1,473,20,1,1,1,536
1114,2,1,474,10,0,0,1,542
1115,2,1,475,20,1,1,1,626
1116,2,1,476,5,0,0,1,566
1117,2,1,477,10,0,0,1,568
1118,2,1,478,10,0,0,1,523
1119,2,1,479,10,1,1,1,581
1120,2,1,480,2,0,0,1,569
1121,2,1,481,5,0,0,1,556
1122,2,1,482,10,0,0,1,475
1123,2,1,483,20,0,0,1,465
1124,2,1,484,2,0,0,1,420
1125,2,1,485,2,0,0,1,495
1126,2,1,486,5,0,0,1,605
1127,2,1,487,20,0,0,1,608
1128,2,1,488,5,1,1,1,509
1129,2,1,489,5,0,0,1,496
1130,2,1,490,2,0,0,1,386
1131,2,1,491,2,0,0,1,365
1132,2,1,492,10,1,1,1,519
1133,2,1,493,32,1,1,1,578
1134,2,1,494,32,1,1,1,1430
1135,2,1,495,20,1,1,1,465
1136,2,1,496,20,0,0,1,551
1137,2,1,497,32,0,0,1,552
1138,2,1,498,32,0,0,1,470
1139,2,1,499,2,1,1,1,494
1140,2,1,500,20,0,0,1,670
1141,2,1,501,5,1,1,1,402
1142,2,1,502,20,1,1,1,431
1143,2,1,503,5,0,0,1,420
1144,2,1,504,2,1,1,1,484
1145,2,1,505,2,0,0,1,457
1146,2,1,506,10,0,0,1,527
1147,2,1,507,32,1,1,1,514
1148,2,1,508,2,1,1,1,526
1149,2,1,509,5,1,1,1,541
1150,2,1,510,10,0,0,1,546
1151,2,1,511,2,0,0,1,554
1152,2,1,512,10,0,0,1,565
1153,2,1,513,2,0,0,1,598
1154,2,1,514,5,1,1,1,520
1155,2,1,515,10,0,0,1,573
1156,2,1,516,32,0,0,1,604
1157,2,1,517,32,1,1,1,584
1158,2,1,518,20,1,1,1,488
1159,2,1,519,1,1,1,1,578
1160,2,1,520,32,1,1,1,496
1161,2,1,521,10,1,1,1,673
1162,2,1,522,20,1,1,1,397
1163,2,1,523,2,0,0,0,410
1164,2,1,524,5,0,0,1,361
1165,2,1,525,32,0,0,0,410
1166,2,1,526,20,0,0,1,475
1167,2,1,527,2,0,0,1,374
1168,2,1,528,20,0,0,1,510
1169,2,1,529,20,1,1,1,525
1170,2,1,530,2,1,1,1,710
1171,2,1,531,5,0,0,1,536
1172,2,1,532,2,1,1,1,616
1173,2,1,533,32,1,1,1,557
1174,2,1,534,32,0,0,1,578
1175,2,1,535,5,1,1,1,660
1176,2,1,536,32,1,1,1,583
1177,2,1,537,5,1,1,1,631
1178,2,1,538,10,0,0,1,601
1179,2,1,539,10,0,0,1,1012
1180,2,1,540,10,0,0,1,692
1181,2,1,541,2,1,1,1,883
1182,2,1,542,32,1,1,1,581
1183,2,1,543,32,1,1,1,509
1184,2,1,544,5,0,0,1,517
1185,2,1,545,10,1,1,1,510
1186,2,1,546,32,1,1,1,557
1187,2,1,547,1,1,1,1,1313
1188,2,1,548,5,1,1,1,614
1189,2,1,549,1,0,0,1,498
1190,2,1,550,20,1,1,1,597
1191,2,1,551,32,1,1,1,493
1192,2,1,552,10,1,1,1,533
1193,2,1,553,5,0,0,1,493
1194,2,1,554,2,1,1,1,486
1195,2,1,555,32,1,1,1,486
1196,2,1,556,5,1,1,1,471
1197,2,1,557,32,0,0,1,569
1198,2,1,558,32,0,0,1,531
1199,2,1,559,20,1,1,1,726
1200,2,1,560,2,0,0,1,514
1201,2,1,561,5,1,1,1,883
1202,2,1,562,20,0,0,1,530
1203,2,1,563,10,1,1,1,586
1204,2,1,564,5,1,1,1,607
1205,2,1,565,10,1,1,1,620
1206,2,1,566,32,0,0,1,632
1207,2,1,567,5,0,0,1,532
1208,2,1,568,10,1,1,1,542
1209,2,1,569,2,0,0,1,587
1210,2,1,570,32,1,1,1,548
1211,2,1,571,10,1,1,1,618
1212,2,1,572,5,0,0,1,616
1213,2,1,573,5,1,1,1,449
1214,2,1,574,20,1,1,1,540
1215,2,1,575,10,0,0,1,455
1216,2,1,576,10,1,1,1,572
1217,2,1,577,2,0,0,1,530
1218,2,1,578,5,0,0,1,522
1219,2,1,579,2,0,0,1,628
1220,2,1,580,20,0,0,1,744
1221,2,1,581,10,1,1,1,707
1222,2,1,582,20,1,1,1,477
1223,2,1,583,2,0,0,1,531
1224,2,1,584,5,1,1,1,487
1225,2,1,585,5,0,0,1,390
1226,2,1,586,5,1,1,1,511
1227,2,1,587,32,0,0,1,376
1228,2,1,588,20,1,1,1,465
1229,2,1,589,1,0,0,1,393
1230,2,1,590,20,1,1,1,642
1231,2,1,591,20,1,1,1,491
1232,2,1,592,20,1,1,1,475
1233,2,1,593,5,1,1,1,430
1234,2,1,594,2,1,1,1,617
1235,2,1,595,2,0,0,1,442
1236,2,1,596,32,1,1,1,525
1237,2,1,597,5,0,0,1,503
1238,2,1,598,10,0,0,1,408
1239,2,1,599,20,1,1,1,626
1240,2,1,600,5,0,0,1,477
1241,2,1,601,32,1,1,1,670
1242,2,1,602,10,0,0,1,740
1243,2,1,603,10,1,1,1,485
1244,2,1,604,1,1,1,1,551
1245,2,1,605,5,0,0,1,490
1246,2,1,606,20,1,1,1,523
1247,2,1,607,10,0,0,1,444
1248,2,1,608,32,0,0,1,406
1249,2,1,609,10,1,1,1,475
1250,2,1,610,1,1,1,1,437
1251,2,1,611,5,0,0,1,504
1252,2,1,612,20,1,1,1,469
1253,2,1,613,2,0,0,1,525
1254,2,1,614,2,0,0,1,445
1255,2,1,615,10,0,0,1,515
1256,2,1,616,32,0,0,1,420
1257,2,1,617,5,0,0,1,528
1258,2,1,618,1,0,0,1,553
1259,2,1,619,10,1,1,1,623
1260,2,1,620,32,0,0,1,555
1261,2,1,621,32,0,0,1,507
1262,2,1,622,2,0,0,1,528
1263,2,1,623,20,0,0,1,513
1264,2,1,624,2,0,0,1,479
1265,2,1,625,32,0,0,1,529
1266,2,1,626,5,1,1,1,600
1267,2,1,627,5,1,1,1,556
1268,2,1,628,1,0,0,1,556
1269,2,1,629,32,0,0,1,630
1270,2,1,630,2,1,1,1,631
1271,2,1,631,32,0,0,1,520
1272,2,1,632,32,0,0,1,458
1273,2,1,633,5,1,1,1,511
1274,2,1,634,32,0,0,1,554
1275,2,1,635,2,1,1,1,550
1276,2,1,636,5,0,0,1,415
1277,2,1,637,2,1,1,1,614
1278,2,1,638,20,0,0,1,459
1279,2,1,639,20,0,0,1,364
1280,2,1,640,10,1,1,1,1377
1281,3,1,1,2,1,1,1,827
1282,3,1,2,2,1,1,1,469
1283,3,1,3,10,0,0,1,632
1284,3,1,4,5,1,1,1,508
1285,3,1,5,20,0,0,1,448
1286,3,1,6,10,1,1,1,469
1287,3,1,7,20,1,1,1,533
1288,3,1,8,5,0,0,1,493
1289,3,1,9,20,1,1,1,453
1290,3,1,10,2,1,1,1,515
1291,3,1,11,5,1,1,1,459
1292,3,1,12,32,1,1,1,620
1293,3,1,13,5,1,1,1,516
1294,3,1,14,20,0,0,1,542
1295,3,1,15,32,0,0,1,449
1296,3,1,16,32,1,1,1,520
1297,3,1,17,10,0,0,1,608
1298,3,1,18,32,1,1,1,575
1299,3,1,19,5,0,0,1,645
1300,3,1,20,5,0,0,1,670
1301,3,1,21,2,0,0,1,1070
1302,3,1,22,10,0,0,1,491
1303,3,1,23,10,1,1,1,564
1304,3,1,24,32,0,0,1,662
1305,3,1,25,5,1,1,1,568
1306,3,1,26,10,0,0,1,562
1307,3,1,27,32,0,0,1,527
1308,3,1,28,1,0,0,1,383
1309,3,1,29,32,0,0,1,491
1310,3,1,30,5,1,1,1,566
1311,3,1,31,5,0,0,1,684
1312,3,1,32,20,0,0,1,555
1313,3,1,33,32,1,1,1,491
1314,3,1,34,5,0,0,1,483
1315,3,1,35,2,0,0,1,424
1316,3,1,36,10,0,0,1,546
1317,3,1,37,20,0,0,1,434
1318,3,1,38,2,0,0,1,403
1319,3,1,39,20,1,1,1,606
1320,3,1,40,20,0,0,1,463
1321,3,1,41,10,0,0,1,436
1322,3,1,42,5,1,1,1,559
1323,3,1,43,2,0,0,1,422
1324,3,1,44,2,0,0,1,573
1325,3,1,45,32,1,1,1,653
1326,3,1,46,20,1,1,1,504
1327,3,1,47,1,1,1,1,451
1328,3,1,48,10,0,0,1,538
1329,3,1,49,5,1,1,1,589
1330,3,1,50,20,0,0,1,661
1331,3,1,51,32,1,1,1,665
1332,3,1,52,10,1,1,1,645
1333,3,1,53,32,1,1,1,446
1334,3,1,54,20,0,0,1,607
1335,3,1,55,2,0,0,1,525
1336,3,1,56,5,1,1,1,517
1337,3,1,57,10,1,1,1,518
1338,3,1,58,5,1,1,1,646
1339,3,1,59,10,1,1,1,518
1340,3,1,60,10,1,1,1,431
1341,3,1,61,32,1,1,1,538
1342,3,1,62,20,0,0,1,489
1343,3,1,63,1,0,0,1,600
1344,3,1,64,5,1,1,1,492
1345,3,1,65,2,0,0,1,480
1346,3,1,66,32,0,0,1,494
1347,3,1,67,32,1,1,1,559
1348,3,1,68,32,1,1,1,477
1349,3,1,69,1,1,1,1,483
1350,3,1,70,32,1,1,1,472
1351,3,1,71,5,0,0,1,437
1352,3,1,72,2,0,0,1,639
1353,3,1,73,32,0,0,1,474
1354,3,1,74,5,0,0,1,457
1355,3,1,75,32,0,0,1,421
1356,3,1,76,1,0,0,1,402
1357,3,1,77,10,1,1,1,473
1358,3,1,78,5,0,0,1,738
1359,3,1,79,2,0,0,1,534
1360,3,1,80,10,0,0,1,444
1361,3,1,81,10,1,1,1,576
1362,3,1,82,1,1,1,1,427
1363,3,1,83,5,0,0,1,631
1364,3,1,84,20,0,0,1,543
1365,3,1,85,20,0,0,1,473
1366,3,1,86,1,1,1,1,404
1367,3,1,87,20,0,0,1,499
1368,3,1,88,5,0,0,1,542
1369,3,1,89,20,0,0,1,431
1370,3,1,90,2,0,0,1,512
1371,3,1,91,5,0,0,1,340
1372,3,1,92,10,1,1,1,513
1373,3,1,93,5,0,0,1,417
1374,3,1,94,2,0,0,1,413
1375,3,1,95,2,0,0,1,321
1376,3,1,96,2,1,1,1,477
1377,3,1,97,5,0,0,1,504
1378,3,1,98,32,1,1,1,659
1379,3,1,99,5,0,0,1,481
1380,3,1,100,10,0,0,1,436
1381,3,1,101,20,0,0,1,530
1382,3,1,102,1,0,0,1,747
1383,3,1,103,2,0,0,1,593
1384,3,1,104,5,1,1,1,587
1385,3,1,105,1,0,0,1,371
1386,3,1,106,5,1,1,1,475
1387,3,1,107,32,1,1,1,733
1388,3,1,108,2,0,0,1,397
1389,3,1,109,32,1,1,1,608
1390,3,1,110,2,0,0,1,599
1391,3,1,111,20,0,0,1,499
1392,3,1,112,5,0,0,1,381
1393,3,1,113,10,1,1,1,435
1394,3,1,114,20,0,0,1,580
1395,3,1,115,2,0,0,1,455
1396,3,1,116,32,1,1,1,549
1397,3,1,117,2,1,1,1,466
1398,3,1,118,32,0,0,1,487
1399,3,1,119,20,1,1,1,621
1400,3,1,120,10,1,1,1,438
1401,3,1,121,5,1,1,1,734
1402,3,1,122,20,1,1,1,465
1403,3,1,123,20,0,0,1,470
1404,3,1,124,10,0,0,1,632
1405,3,1,125,20,0,0,1,636
1406,3,1,126,2,1,1,1,418
1407,3,1,127,2,1,1,1,444
1408,3,1,128,5,0,0,1,591
1409,3,1,129,32,1,1,1,662
1410,3,1,130,2,0,0,1,450
1411,3,1,131,10,1,1,1,745
1412,3,1,132,1,1,1,1,378
1413,3,1,133,2,0,0,1,473
1414,3,1,134,10,1,1,1,540
1415,3,1,135,2,0,0,1,442
1416,3,1,136,2,1,1,1,498
1417,3,1,137,5,1,1,1,401
1418,3,1,138,20,0,0,1,596
1419,3,1,139,32,0,0,1,653
1420,3,1,140,5,1,1,1,527
1421,3,1,141,2,0,0,1,393
1422,3,1,142,1,0,0,1,393
1423,3,1,143,1,0,0,1,425
1424,3,1,144,10,1,1,1,493
1425,3,1,145,32,1,1,1,490
1426,3,1,146,2,1,1,1,470
1427,3,1,147,10,0,0,1,580
1428,3,1,148,5,1,1,1,439
1429,3,1,149,2,1,1,1,391
1430,3,1,150,10,0,0,1,442
1431,3,1,151,20,0,0,1,468
1432,3,1,152,2,1,1,1,457
1433,3,1,153,20,1,1,1,514
1434,3,1,154,2,0,0,1,462
1435,3,1,155,32,1,1,1,632
1436,3,1,156,5,1,1,1,588
1437,3,1,157,32,1,1,1,499
1438,3,1,158,20,0,0,1,493
1439,3,1,159,10,0,0,1,452
1440,3,1,160,32,0,0,1,434
1441,3,1,161,10,1,1,1,797
1442,3,1,162,32,0,0,1,473
1443,3,1,163,5,1,1,1,786
1444,3,1,164,32,0,0,1,398
1445,3,1,165,32,1,1,1,525
1446,3,1,166,20,0,0,1,469
1447,3,1,167,32,1,1,1,431
1448,3,1,168,20,1,1,1,399
1449,3,1,169,10,0,0,1,507
1450,3,1,170,32,0,0,1,505
1451,3,1,171,1,0,0,1,662
1452,3,1,172,2,1,1,1,435
1453,3,1,173,10,0,0,1,489
1454,3,1,174,20,0,0,1,357
1455,3,1,175,32,1,1,1,399
1456,3,1,176,10,0,0,1,357
1457,3,1,177,2,0,0,1,344
1458,3,1,178,10,0,0,1,359
1459,3,1,179,20,0,0,1,476
1460,3,1,180,10,1,1,1,589
1461,3,1,181,5,0,0,1,464
1462,3,1,182,32,0,0,1,376
1463,3,1,183,2,0,0,1,422
1464,3,1,184,32,1,1,1,447
1465,3,1,185,20,1,1,1,489
1466,3,1,186,2,1,1,1,505
1467,3,1,187,20,0,0,1,491
1468,3,1,188,2,1,1,1,738
1469,3,1,189,20,0,0,1,489
1470,3,1,190,5,0,0,1,438
1471,3,1,191,2,1,1,1,383
1472,3,1,192,10,0,0,1,463
1473,3,1,193,10,1,1,1,590
1474,3,1,194,2,1,1,1,383
1475,3,1,195,20,0,0,1,482
1476,3,1,196,32,0,0,1,503
1477,3,1,197,20,1,1,1,487
1478,3,1,198,20,1,1,1,568
1479,3,1,199,5,0,0,1,493
1480,3,1,200,2,1,1,1,389
1481,3,1,201,10,0,0,1,416
1482,3,1,202,5,1,1,1,401
1483,3,1,203,1,0,0,1,343
1484,3,1,204,32,0,0,1,481
1485,3,1,205,10,1,1,1,517
1486,3,1,206,5,1,1,1,407
1487,3,1,207,20,1,1,1,505
1488,3,1,208,20,1,1,1,417
1489,3,1,209,20,1,1,1,431
1490,3,1,210,10,1,1,1,562
1491,3,1,211,10,0,0,1,469
1492,3,1,212,20,1,1,1,602
1493,3,1,213,32,1,1,1,419
1494,3,1,214,5,1,1,1,368
1495,3,1,215,5,0,0,1,443
1496,3,1,216,5,1,1,1,504
1497,3,1,217,1,1,1,1,345
1498,3,1,218,5,0,0,1,543
1499,3,1,219,32,1,1,1,366
1500,3,1,220,32,0,0,1,409
1501,3,1,221,32,0,0,1,383
1502,3,1,222,20,1,1,1,430
1503,3,1,223,32,0,0,1,642
1504,3,1,224,10,1,1,1,594
1505,3,1,225,1,1,1,1,459
1506,3,1,226,5,1,1,1,396
1507,3,1,227,32,0,0,1,461
1508,3,1,228,5,1,1,1,399
1509,3,1,229,32,0,0,1,405
1510,3,1,230,5,1,1,1,486
1511,3,1,231,10,0,0,1,522
1512,3,1,232,20,1,1,1,636
1513,3,1,233,2,0,0,1,334
1514,3,1,234,10,0,0,1,458
1515,3,1,235,20,0,0,1,344
1516,3,1,236,5,0,0,1,473
1517,3,1,237,20,0,0,1,367
1518,3,1,238,32,0,0,1,453
1519,3,1,239,32,1,1,1,461
1520,3,1,240,32,1,1,1,640
1521,3,1,241,10,1,1,1,588
1522,3,1,242,20,1,1,1,533
1523,3,1,243,5,1,1,1,410
1524,3,1,244,2,1,1,1,372
1525,3,1,245,5,0,0,1,365
1526,3,1,246,32,0,0,1,511
1527,3,1,247,10,1,1,1,786
1528,3,1,248,32,0,0,1,472
1529,3,1,249,10,1,1,1,689
1530,3,1,250,5,1,1,1,476
1531,3,1,251,2,0,0,1,566
1532,3,1,252,10,1,1,1,641
1533,3,1,253,20,1,1,1,470
1534,3,1,254,10,0,0,1,422
1535,3,1,255,20,0,0,1,485
1536,3,1,256,5,0,0,1,541
1537,3,1,257,10,1,1,1,597
1538,3,1,258,20,1,1,1,394
1539,3,1,259,20,1,1,1,496
1540,3,1,260,5,0,0,1,885
1541,3,1,261,2,0,0,1,427
1542,3,1,262,32,0,0,1,987
1543,3,1,263,5,0,0,1,445
1544,3,1,264,2,0,0,1,392
1545,3,1,265,1,0,0,1,348
1546,3,1,266,2,0,0,1,367
1547,3,1,267,2,1,1,1,565
1548,3,1,268,1,1,1,1,389
1549,3,1,269,20,0,0,1,769
1550,3,1,270,32,0,0,1,525
1551,3,1,271,32,1,1,1,404
1552,3,1,272,5,0,0,1,574
1553,3,1,273,10,0,0,1,438
1554,3,1,274,5,0,0,1,518
1555,3,1,275,10,0,0,1,371
1556,3,1,276,32,0,0,1,540
1557,3,1,277,2,0,0,1,368
1558,3,1,278,32,1,1,1,537
1559,3,1,279,20,1,1,1,423
1560,3,1,280,2,0,0,1,492
1561,3,1,281,5,1,1,1,866
1562,3,1,282,1,1,1,1,372
1563,3,1,283,5,0,0,1,424
1564,3,1,284,32,0,0,1,438
1565,3,1,285,32,0,0,1,380
1566,3,1,286,2,1,1,1,392
1567,3,1,287,10,0,0,1,352
1568,3,1,288,20,0,0,1,447
1569,3,1,289,5,1,1,1,333
1570,3,1,290,1,0,0,1,376
1571,3,1,291,20,1,1,1,368
1572,3,1,292,20,0,0,1,553
1573,3,1,293,10,0,0,1,450
1574,3,1,294,5,0,0,1,384
1575,3,1,295,5,1,1,1,390
1576,3,1,296,32,0,0,1,466
1577,3,1,297,10,0,0,1,515
1578,3,1,298,32,1,1,1,424
1579,3,1,299,5,1,1,1,487
1580,3,1,300,2,1,1,1,517
1581,3,1,301,5,1,1,1,404
1582,3,1,302,32,1,1,1,497
1583,3,1,303,20,1,1,1,452
1584,3,1,304,10,0,0,1,701
1585,3,1,305,10,1,1,1,494
1586,3,1,306,2,0,0,1,420
1587,3,1,307,32,0,0,1,524
1588,3,1,308,10,1,1,1,386
1589,3,1,309,5,0,0,1,400
1590,3,1,310,2,0,0,1,447
1591,3,1,311,10,0,0,1,375
1592,3,1,312,2,1,1,1,368
1593,3,1,313,20,0,0,1,372
1594,3,1,314,2,1,1,1,464
1595,3,1,315,2,0,0,1,468
1596,3,1,316,2,1,1,1,568
1597,3,1,317,2,1,1,1,444
1598,3,1,318,5,0,0,1,332
1599,3,1,319,32,0,0,1,396
1600,3,1,320,10,0,0,1,483
1601,3,1,321,2,1,1,1,944
1602,3,1,322,32,0,0,1,406
1603,3,1,323,2,0,0,1,338
1604,3,1,324,32,1,1,1,339
1605,3,1,325,2,1,1,1,337
1606,3,1,326,2,1,1,1,329
1607,3,1,327,32,0,0,1,465
1608,3,1,328,2,0,0,1,352
1609,3,1,329,20,1,1,1,480
1610,3,1,330,2,0,0,1,509
1611,3,1,331,1,0,0,1,363
1612,3,1,332,1,1,1,1,337
1613,3,1,333,10,0,0,1,372
1614,3,1,334,20,0,0,1,364
1615,3,1,335,5,0,0,1,430
1616,3,1,336,32,0,0,1,348
1617,3,1,337,10,1,1,1,369
1618,3,1,338,2,1,1,1,373
1619,3,1,339,5,1,1,1,381
1620,3,1,340,20,0,0,1,398
1621,3,1,341,5,1,1,1,475
1622,3,1,342,20,1,1,1,456
1623,3,1,343,20,1,1,1,414
1624,3,1,344,20,1,1,1,380
1625,3,1,345,32,1,1,1,349
1626,3,1,346,20,1,1,1,605
1627,3,1,347,2,0,0,1,400
1628,3,1,348,10,0,0,1,499
1629,3,1,349,32,0,0,1,431
1630,3,1,350,2,1,1,1,500
1631,3,1,351,5,0,0,1,837
1632,3,1,352,20,0,0,1,661
1633,3,1,353,10,0,0,1,445
1634,3,1,354,1,0,0,1,439
1635,3,1,355,5,0,0,1,485
1636,3,1,356,10,0,0,1,499
1637,3,1,357,20,1,1,1,368
1638,3,1,358,2,1,1,1,516
1639,3,1,359,20,0,0,1,409
1640,3,1,360,5,0,0,1,437
1641,3,1,361,32,0,0,1,466
1642,3,1,362,20,1,1,1,368
1643,3,1,363,10,1,1,1,366
1644,3,1,364,10,0,0,1,376
1645,3,1,365,10,1,1,1,539
1646,3,1,366,1,0,0,1,361
1647,3,1,367,10,0,0,1,404
1648,3,1,368,20,0,0,1,438
1649,3,1,369,1,1,1,1,390
1650,3,1,370,5,0,0,1,479
1651,3,1,371,2,0,0,1,359
1652,3,1,372,32,1,1,1,487
1653,3,1,373,1,0,0,1,317
1654,3,1,374,2,0,0,1,396
1655,3,1,375,2,1,1,1,377
1656,3,1,376,2,0,0,1,479
1657,3,1,377,2,1,1,1,441
1658,3,1,378,5,0,0,1,396
1659,3,1,379,5,1,1,1,378
1660,3,1,380,20,0,0,1,402
1661,3,1,381,5,1,1,1,403
1662,3,1,382,5,1,1,1,345
1663,3,1,383,20,1,1,1,499
1664,3,1,384,10,0,0,1,407
1665,3,1,385,20,0,0,1,442
1666,3,1,386,1,1,1,1,483
1667,3,1,387,32,1,1,1,365
1668,3,1,388,2,1,1,1,356
1669,3,1,389,5,0,0,1,492
1670,3,1,390,2,0,0,1,337
1671,3,1,391,20,1,1,1,668
1672,3,1,392,32,1,1,1,406
1673,3,1,393,32,0,0,1,553
1674,3,1,394,2,1,1,1,376
1675,3,1,395,2,1,1,1,403
1676,3,1,396,10,1,1,1,402
1677,3,1,397,5,0,0,1,494
1678,3,1,398,32,1,1,1,488
1679,3,1,399,32,0,0,1,380
1680,3,1,400,32,1,1,1,555
1681,3,1,401,32,1,1,1,346
1682,3,1,402,1,0,0,1,460
1683,3,1,403,2,1,1,1,346
1684,3,1,404,1,0,0,1,401
1685,3,1,405,2,0,0,1,332
1686,3,1,406,20,1,1,1,394
1687,3,1,407,10,0,0,1,345
1688,3,1,408,32,1,1,1,520
1689,3,1,409,20,0,0,1,450
1690,3,1,410,2,1,1,1,374
1691,3,1,411,10,0,0,1,397
1692,3,1,412,32,1,1,1,482
1693,3,1,413,32,1,1,1,396
1694,3,1,414,10,0,0,1,424
1695,3,1,415,20,1,1,1,390
1696,3,1,416,20,1,1,1,495
1697,3,1,417,5,1,1,1,364
1698,3,1,418,32,1,1,1,391
1699,3,1,419,20,0,0,1,397
1700,3,1,420,2,0,0,1,449
1701,3,1,421,20,0,0,1,522
1702,3,1,422,5,0,0,1,517
1703,3,1,423,20,1,1,1,468
1704,3,1,424,32,0,0,1,405
1705,3,1,425,1,1,1,1,394
1706,3,1,426,5,0,0,1,713
1707,3,1,427,32,0,0,1,395
1708,3,1,428,5,0,0,1,486
1709,3,1,429,10,1,1,1,393
1710,3,1,430,5,0,0,1,365
1711,3,1,431,5,1,1,1,358
1712,3,1,432,20,1,1,1,446
1713,3,1,433,2,1,1,1,375
1714,3,1,434,32,1,1,1,443
1715,3,1,435,20,0,0,1,366
1716,3,1,436,32,1,1,1,340
1717,3,1,437,32,1,1,1,364
1718,3,1,438,5,1,1,1,369
1719,3,1,439,2,1,1,1,423
1720,3,1,440,1,1,1,1,383
1721,3,1,441,5,0,0,1,400
1722,3,1,442,10,1,1,1,375
1723,3,1,443,20,1,1,1,351
1724,3,1,444,10,1,1,1,320
1725,3,1,445,5,1,1,1,355
1726,3,1,446,5,1,1,1,303
1727,3,1,447,20,0,0,1,515
1728,3,1,448,20,0,0,1,337
1729,3,1,449,1,0,0,1,448
1730,3,1,450,5,0,0,1,311
1731,3,1,451,5,1,1,0,317
1732,3,1,452,10,1,1,1,335
1733,3,1,453,5,1,1,1,379
1734,3,1,454,10,0,0,1,500
1735,3,1,455,32,1,1,1,404
1736,3,1,456,10,0,0,1,484
1737,3,1,457,20,1,1,1,371
1738,3,1,458,5,1,1,1,639
1739,3,1,459,10,1,1,1,349
1740,3,1,460,20,0,0,1,483
1741,3,1,461,5,0,0,1,421
1742,3,1,462,32,0,0,1,462
1743,3,1,463,32,1,1,1,452
1744,3,1,464,5,0,0,1,471
1745,3,1,465,5,1,1,1,414
1746,3,1,466,2,0,0,1,582
1747,3,1,467,32,0,0,1,425
1748,3,1,468,32,1,1,1,433
1749,3,1,469,2,1,1,1,398
1750,3,1,470,32,0,0,1,421
1751,3,1,471,5,0,0,1,397
1752,3,1,472,20,0,0,1,396
1753,3,1,473,5,1,1,1,442
1754,3,1,474,10,1,1,1,343
1755,3,1,475,2,0,0,1,410
1756,3,1,476,5,0,0,1,463
1757,3,1,477,2,1,1,1,390
1758,3,1,478,10,1,1,1,457
1759,3,1,479,10,0,0,1,402
1760,3,1,480,5,0,0,1,376
1761,3,1,481,32,1,1,1,458
1762,3,1,482,5,0,0,1,369
1763,3,1,483,2,0,0,1,358
1764,3,1,484,2,1,1,1,445
1765,3,1,485,20,1,1,1,409
1766,3,1,486,20,0,0,1,364
1767,3,1,487,20,1,1,1,422
1768,3,1,488,10,0,0,1,496
1769,3,1,489,32,0,0,1,421
1770,3,1,490,1,1,1,1,367
1771,3,1,491,10,0,0,1,367
1772,3,1,492,10,1,1,1,396
1773,3,1,493,32,1,1,1,405
1774,3,1,494,20,0,0,1,440
1775,3,1,495,20,1,1,1,384
1776,3,1,496,20,0,0,1,432
1777,3,1,497,10,0,0,1,395
1778,3,1,498,20,0,0,1,409
1779,3,1,499,10,1,1,1,703
1780,3,1,500,10,0,0,1,445
1781,3,1,501,5,0,0,1,610
1782,3,1,502,5,0,0,1,364
1783,3,1,503,5,0,0,1,386
1784,3,1,504,20,1,1,1,486
1785,3,1,505,5,1,1,1,419
1786,3,1,506,32,1,1,1,534
1787,3,1,507,20,1,1,1,625
1788,3,1,508,2,1,1,1,419
1789,3,1,509,2,1,1,1,389
1790,3,1,510,32,0,0,1,412
1791,3,1,511,2,0,0,1,429
1792,3,1,512,20,0,0,1,444
1793,3,1,513,20,0,0,1,429
1794,3,1,514,2,0,0,1,602
1795,3,1,515,1,1,1,1,346
1796,3,1,516,10,1,1,1,433
1797,3,1,517,10,1,1,1,500
1798,3,1,518,20,1,1,1,509
1799,3,1,519,20,1,1,1,516
1800,3,1,520,32,0,0,1,403
1801,3,1,521,32,0,0,1,447
1802,3,1,522,2,0,0,1,336
1803,3,1,523,2,0,0,1,353
1804,3,1,524,32,0,0,1,376
1805,3,1,525,2,1,1,1,355
1806,3,1,526,2,1,1,1,372
1807,3,1,527,10,0,0,1,754
1808,3,1,528,10,1,1,1,458
1809,3,1,529,2,1,1,1,559
1810,3,1,530,32,1,1,1,519
1811,3,1,531,2,1,1,1,410
1812,3,1,532,20,1,1,1,513
1813,3,1,533,10,1,1,1,380
1814,3,1,534,20,0,0,1,476
1815,3,1,535,10,0,0,1,348
1816,3,1,536,5,1,1,1,368
1817,3,1,537,1,1,1,1,341
1818,3,1,538,32,0,0,1,350
1819,3,1,539,20,1,1,1,562
1820,3,1,540,10,0,0,1,498
1821,3,1,541,20,1,1,1,437
1822,3,1,542,32,0,0,1,394
1823,3,1,543,20,1,1,1,427
1824,3,1,544,10,1,1,1,446
1825,3,1,545,10,1,1,1,415
1826,3,1,546,32,0,0,1,423
1827,3,1,547,5,1,1,1,430
1828,3,1,548,2,0,0,1,349
1829,3,1,549,5,1,1,1,410
1830,3,1,550,2,1,1,1,437
1831,3,1,551,1,1,1,1,407
1832,3,1,552,10,1,1,1,481
1833,3,1,553,5,1,1,1,367
1834,3,1,554,10,1,1,1,380
1835,3,1,555,5,1,1,1,397
1836,3,1,556,2,1,1,1,440
1837,3,1,557,32,1,1,1,406
1838,3,1,558,10,0,0,0,371
1839,3,1,559,1,0,0,1,379
1840,3,1,560,10,1,1,1,663
1841,3,1,561,2,1,1,1,565
1842,3,1,562,32,1,1,1,411
1843,3,1,563,2,0,0,1,431
1844,3,1,564,5,0,0,1,574
1845,3,1,565,10,0,0,1,534
1846,3,1,566,2,1,1,1,661
1847,3,1,567,10,1,1,1,401
1848,3,1,568,2,0,0,1,580
1849,3,1,569,2,0,0,1,559
1850,3,1,570,32,1,1,1,580
1851,3,1,571,5,1,1,1,420
1852,3,1,572,20,1,1,1,416
1853,3,1,573,32,0,0,1,463
1854,3,1,574,2,1,1,1,624
1855,3,1,575,20,0,0,1,516
1856,3,1,576,10,1,1,1,417
1857,3,1,577,1,0,0,1,485
1858,3,1,578,2,0,0,1,516
1859,3,1,579,5,0,0,1,383
1860,3,1,580,20,0,0,1,410
1861,3,1,581,2,1,1,1,420
1862,3,1,582,10,0,0,1,357
1863,3,1,583,2,0,0,1,465
1864,3,1,584,32,0,0,1,544
1865,3,1,585,10,0,0,1,385
1866,3,1,586,10,1,1,1,514
1867,3,1,587,32,0,0,1,598
1868,3,1,588,5,0,0,1,369
1869,3,1,589,10,0,0,1,466
1870,3,1,590,2,0,0,1,580
1871,3,1,591,20,1,1,1,477
1872,3,1,592,5,0,0,1,503
1873,3,1,593,20,1,1,1,540
1874,3,1,594,5,1,1,1,459
1875,3,1,595,10,1,1,1,456
1876,3,1,596,32,0,0,1,516
1877,3,1,597,20,1,1,1,449
1878,3,1,598,10,1,1,1,408
1879,3,1,599,1,1,1,1,382
1880,3,1,600,10,1,1,1,456
1881,3,1,601,32,1,1,1,507
1882,3,1,602,2,0,0,1,513
1883,3,1,603,10,0,0,1,370
1884,3,1,604,10,1,1,1,464
1885,3,1,605,10,0,0,1,491
1886,3,1,606,10,0,0,1,363
1887,3,1,607,20,1,1,1,427
1888,3,1,608,5,1,1,1,407
1889,3,1,609,2,0,0,1,555
1890,3,1,610,32,1,1,1,661
1891,3,1,611,10,1,1,1,471
1892,3,1,612,20,1,1,1,483
1893,3,1,613,20,1,1,1,411
1894,3,1,614,10,1,1,1,415
1895,3,1,615,10,1,1,1,397
1896,3,1,616,10,0,0,1,392
1897,3,1,617,10,1,1,1,809
1898,3,1,618,5,1,1,1,412
1899,3,1,619,32,0,0,1,513
1900,3,1,620,32,0,0,1,410
1901,3,1,621,2,0,0,1,368
1902,3,1,622,2,1,1,1,442
1903,3,1,623,20,0,0,1,446
1904,3,1,624,20,0,0,1,413
1905,3,1,625,5,1,1,1,500
1906,3,1,626,2,1,1,1,372
1907,3,1,627,20,1,1,1,394
1908,3,1,628,2,1,1,1,383
1909,3,1,629,5,0,0,1,449
1910,3,1,630,5,1,1,1,413
1911,3,1,631,32,1,1,1,402
1912,3,1,632,1,1,1,1,372
1913,3,1,633,20,0,0,1,481
1914,3,1,634,5,1,1,1,403
1915,3,1,635,32,0,0,1,439
1916,3,1,636,32,1,1,1,643
1917,3,1,637,20,1,1,1,417
1918,3,1,638,2,1,1,1,375
1919,3,1,639,32,0,0,1,407
1920,3,1,640,2,1,1,1,365
1921,4,1,1,10,1,1,1,615
1922,4,1,2,5,0,0,1,485
1923,4,1,3,2,0,0,1,441
1924,4,1,4,10,1,1,1,386
1925,4,1,5,32,1,1,1,539
1926,4,1,6,10,0,0,1,352
1927,4,1,7,5,1,1,1,649
1928,4,1,8,32,1,1,1,673
1929,4,1,9,2,0,0,1,413
1930,4,1,10,2,1,1,1,713
1931,4,1,11,2,0,0,1,572
1932,4,1,12,32,1,1,1,1190
1933,4,1,13,5,1,1,1,554
1934,4,1,14,20,0,0,1,515
1935,4,1,15,5,1,1,1,631
1936,4,1,16,5,0,0,1,1357
1937,4,1,17,20,1,1,1,379
1938,4,1,18,5,0,0,1,815
1939,4,1,19,2,0,0,1,964
1940,4,1,20,5,1,1,1,635
1941,4,1,21,32,1,1,1,499
1942,4,1,22,10,1,1,1,514
1943,4,1,23,2,1,1,1,813
1944,4,1,24,10,0,0,1,576
1945,4,1,25,5,0,0,1,750
1946,4,1,26,2,1,1,1,670
1947,4,1,27,5,1,1,1,613
1948,4,1,28,10,0,0,1,736
1949,4,1,29,10,1,1,1,626
1950,4,1,30,32,0,0,1,891
1951,4,1,31,32,1,1,1,458
1952,4,1,32,10,1,1,1,1182
1953,4,1,33,1,1,1,1,509
1954,4,1,34,2,1,1,1,544
1955,4,1,35,2,1,1,1,375
1956,4,1,36,2,0,0,1,753
1957,4,1,37,10,1,1,1,460
1958,4,1,38,20,0,0,1,502
1959,4,1,39,20,1,1,1,501
1960,4,1,40,10,1,1,1,582
1961,4,1,41,10,1,1,1,773
1962,4,1,42,10,1,1,1,535
1963,4,1,43,10,0,0,1,628
1964,4,1,44,5,0,0,1,564
1965,4,1,45,32,1,1,1,607
1966,4,1,46,10,0,0,1,460
1967,4,1,47,32,1,1,1,517
1968,4,1,48,5,0,0,1,444
1969,4,1,49,20,1,1,1,514
1970,4,1,50,2,1,1,1,553
1971,4,1,51,5,1,1,1,535
1972,4,1,52,2,0,0,1,552
1973,4,1,53,10,1,1,1,396
1974,4,1,54,5,1,1,1,686
1975,4,1,55,20,0,0,1,1065
1976,4,1,56,2,1,1,1,478
1977,4,1,57,10,0,0,1,540
1978,4,1,58,5,0,0,1,725
1979,4,1,59,5,1,1,1,573
1980,4,1,60,10,0,0,1,530
1981,4,1,61,20,1,1,1,400
1982,4,1,62,5,0,0,1,448
1983,4,1,63,2,1,1,1,487
1984,4,1,64,2,1,1,1,499
1985,4,1,65,20,0,0,1,601
1986,4,1,66,2,0,0,1,786
1987,4,1,67,32,1,1,1,650
1988,4,1,68,10,1,1,1,480
1989,4,1,69,1,1,1,1,609
1990,4,1,70,10,0,0,1,831
1991,4,1,71,32,0,0,1,531
1992,4,1,72,20,1,1,1,464
1993,4,1,73,5,0,0,1,470
1994,4,1,74,20,1,1,1,540
1995,4,1,75,20,0,0,1,521
1996,4,1,76,2,1,1,1,452
1997,4,1,77,5,0,0,1,502
1998,4,1,78,32,1,1,1,462
1999,4,1,79,20,1,1,1,477
2000,4,1,80,1,0,0,1,396
2001,4,1,81,2,0,0,1,662
2002,4,1,82,20,0,0,1,499
2003,4,1,83,2,1,1,1,533
2004,4,1,84,5,0,0,1,645
2005,4,1,85,32,1,1,1,685
2006,4,1,86,5,1,1,1,403
2007,4,1,87,2,1,1,1,391
2008,4,1,88,20,0,0,1,481
2009,4,1,89,5,0,0,1,595
2010,4,1,90,20,1,1,1,858
2011,4,1,91,2,1,1,1,481
2012,4,1,92,20,0,0,1,437
2013,4,1,93,10,1,1,1,379
2014,4,1,94,10,0,0,1,564
2015,4,1,95,2,1,1,1,774
2016,4,1,96,10,1,1,1,516
2017,4,1,97,20,0,0,1,389
2018,4,1,98,10,0,0,1,621
2019,4,1,99,10,0,0,1,522
2020,4,1,100,32,1,1,1,469
2021,4,1,101,2,1,1,1,443
2022,4,1,102,10,0,0,1,357
2023,4,1,103,5,1,1,1,408
2024,4,1,104,20,1,1,1,1035
2025,4,1,105,5,1,1,1,649
2026,4,1,106,2,1,1,1,502
2027,4,1,107,32,1,1,1,642
2028,4,1,108,20,0,0,1,614
2029,4,1,109,10,0,0,1,602
2030,4,1,110,2,1,1,1,468
2031,4,1,111,1,0,0,1,492
2032,4,1,112,32,1,1,1,486
2033,4,1,113,2,1,1,1,447
2034,4,1,114,20,0,0,1,683
2035,4,1,115,5,1,1,1,695
2036,4,1,116,32,0,0,1,428
2037,4,1,117,10,0,0,1,503
2038,4,1,118,20,1,1,1,498
2039,4,1,119,5,1,1,1,506
2040,4,1,120,10,1,1,1,670
2041,4,1,121,2,0,0,1,544
2042,4,1,122,2,1,1,1,551
2043,4,1,123,20,0,0,1,610
2044,4,1,124,5,0,0,1,486
2045,4,1,125,2,0,0,1,618
2046,4,1,126,32,1,1,1,813
2047,4,1,127,32,1,1,1,607
2048,4,1,128,10,0,0,1,646
2049,4,1,129,1,1,1,1,584
2050,4,1,130,32,0,0,1,669
2051,4,1,131,5,0,0,1,725
2052,4,1,132,20,0,0,1,513
2053,4,1,133,32,0,0,1,843
2054,4,1,134,10,1,1,1,647
2055,4,1,135,1,1,1,1,507
2056,4,1,136,2,1,1,1,537
2057,4,1,137,32,1,1,1,481
2058,4,1,138,20,1,1,1,616
2059,4,1,139,5,1,1,1,874
2060,4,1,140,32,1,1,1,703
2061,4,1,141,32,1,1,1,559
2062,4,1,142,10,1,1,1,686
2063,4,1,143,2,1,1,1,974
2064,4,1,144,32,0,0,1,557
2065,4,1,145,32,0,0,1,687
2066,4,1,146,5,1,1,1,621
2067,4,1,147,5,1,1,1,782
2068,4,1,148,5,0,0,1,589
2069,4,1,149,20,1,1,1,1562
2070,4,1,150,32,1,1,1,586
2071,4,1,151,20,1,1,1,491
2072,4,1,152,5,0,0,1,547
2073,4,1,153,32,1,1,1,885
2074,4,1,154,10,0,0,1,599
2075,4,1,155,5,1,1,1,974
2076,4,1,156,2,1,1,1,821
2077,4,1,157,5,0,0,1,459
2078,4,1,158,20,1,1,1,688
2079,4,1,159,1,0,0,1,509
2080,4,1,160,20,1,1,1,563
2081,4,1,161,5,0,0,1,792
2082,4,1,162,32,0,0,1,789
2083,4,1,163,5,1,1,1,580
2084,4,1,164,32,0,0,1,620
2085,4,1,165,5,0,0,1,1017
2086,4,1,166,2,0,0,1,2205
2087,4,1,167,2,0,0,1,486
2088,4,1,168,32,1,1,1,483
2089,4,1,169,20,0,0,1,510
2090,4,1,170,20,1,1,1,440
2091,4,1,171,1,0,0,0,450
2092,4,1,172,10,0,0,1,760
2093,4,1,173,10,0,0,1,525
2094,4,1,174,1,0,0,1,585
2095,4,1,175,32,1,1,1,594
2096,4,1,176,20,1,1,1,1087
2097,4,1,177,20,0,0,1,816
2098,4,1,178,2,1,1,1,377
2099,4,1,179,20,0,0,1,415
2100,4,1,180,20,0,0,1,422
2101,4,1,181,32,0,0,1,582
2102,4,1,182,20,1,1,1,513
2103,4,1,183,1,1,1,1,403
2104,4,1,184,10,0,0,1,374
2105,4,1,185,20,1,1,1,451
2106,4,1,186,2,1,1,1,526
2107,4,1,187,10,0,0,1,824
2108,4,1,188,32,0,0,1,748
2109,4,1,189,1,0,0,1,467
2110,4,1,190,32,0,0,1,526
2111,4,1,191,10,1,1,1,403
2112,4,1,192,10,0,0,1,437
2113,4,1,193,10,1,1,1,415
2114,4,1,194,32,0,0,1,388
2115,4,1,195,1,1,1,1,459
2116,4,1,196,5,1,1,1,540
2117,4,1,197,32,0,0,1,498
2118,4,1,198,5,0,0,1,456
2119,4,1,199,2,0,0,1,637
2120,4,1,200,32,0,0,1,521
2121,4,1,201,20,0,0,1,743
2122,4,1,202,2,0,0,1,392
2123,4,1,203,32,0,0,1,512
2124,4,1,204,10,1,1,1,444
2125,4,1,205,20,0,0,1,601
2126,4,1,206,5,1,1,1,894
2127,4,1,207,5,0,0,1,439
2128,4,1,208,32,1,1,1,2044
2129,4,1,209,2,1,1,1,448
2130,4,1,210,32,1,1,1,592
2131,4,1,211,2,0,0,1,763
2132,4,1,212,20,0,0,1,521
2133,4,1,213,2,0,0,1,384
2134,4,1,214,20,0,0,1,466
2135,4,1,215,20,1,1,1,506
2136,4,1,216,5,1,1,1,619
2137,4,1,217,10,0,0,1,557
2138,4,1,218,5,0,0,1,613
2139,4,1,219,2,0,0,1,454
2140,4,1,220,5,1,1,1,542
2141,4,1,221,10,0,0,1,471
2142,4,1,222,20,1,1,1,522
2143,4,1,223,32,1,1,1,1217
2144,4,1,224,1,1,1,1,549
2145,4,1,225,10,1,1,1,360
2146,4,1,226,32,1,1,1,687
2147,4,1,227,5,0,0,1,601
2148,4,1,228,10,1,1,1,377
2149,4,1,229,32,1,1,1,454
2150,4,1,230,10,1,1,1,645
2151,4,1,231,32,0,0,1,636
2152,4,1,232,32,0,0,1,579
2153,4,1,233,5,0,0,1,830
2154,4,1,234,1,1,1,1,541
2155,4,1,235,2,0,0,1,651
2156,4,1,236,5,1,1,1,611
2157,4,1,237,32,0,0,1,426
2158,4,1,238,32,0,0,1,832
2159,4,1,239,32,1,1,1,725
2160,4,1,240,10,1,1,1,606
2161,4,1,241,5,0,0,1,491
2162,4,1,242,20,0,0,1,502
2163,4,1,243,1,0,0,1,457
2164,4,1,244,20,1,1,1,404
2165,4,1,245,1,0,0,1,775
2166,4,1,246,32,0,0,1,512
2167,4,1,247,2,1,1,1,871
2168,4,1,248,2,0,0,1,542
2169,4,1,249,20,1,1,1,563
2170,4,1,250,10,0,0,1,728
2171,4,1,251,2,1,1,1,667
2172,4,1,252,10,1,1,1,607
2173,4,1,253,32,1,1,1,668
2174,4,1,254,5,1,1,1,537
2175,4,1,255,32,1,1,1,671
2176,4,1,256,20,0,0,1,584
2177,4,1,257,20,1,1,1,1043
2178,4,1,258,10,1,1,1,754
2179,4,1,259,32,1,1,1,843
2180,4,1,260,32,1,1,1,435
2181,4,1,261,5,1,1,1,661
2182,4,1,262,2,1,1,1,487
2183,4,1,263,10,0,0,1,619
2184,4,1,264,2,0,0,1,687
2185,4,1,265,2,0,0,1,581
2186,4,1,266,20,1,1,1,668
2187,4,1,267,20,1,1,1,549
2188,4,1,268,20,0,0,1,459
2189,4,1,269,10,0,0,1,434
2190,4,1,270,10,0,0,1,463
2191,4,1,271,10,1,1,1,400
2192,4,1,272,20,1,1,1,456
2193,4,1,273,20,1,1,1,607
2194,4,1,274,2,0,0,1,868
2195,4,1,275,5,1,1,1,760
2196,4,1,276,5,0,0,1,1252
2197,4,1,277,5,0,0,1,792
2198,4,1,278,10,1,1,1,677
2199,4,1,279,20,1,1,1,617
2200,4,1,280,1,1,1,1,352
2201,4,1,281,32,1,1,1,863
2202,4,1,282,32,1,1,1,559
2203,4,1,283,10,1,1,1,798
2204,4,1,284,10,0,0,1,384
2205,4,1,285,10,0,0,1,498
2206,4,1,286,10,0,0,1,508
2207,4,1,287,32,0,0,1,602
2208,4,1,288,32,1,1,1,400
2209,4,1,289,32,1,1,1,1369
2210,4,1,290,2,1,1,1,4986
2211,4,1,291,2,0,0,1,587
2212,4,1,292,2,1,1,1,546
2213,4,1,293,5,0,0,1,487
2214,4,1,294,5,1,1,1,775
2215,4,1,295,2,0,0,1,442
2216,4,1,296,10,0,0,1,567
2217,4,1,297,20,1,1,1,421
2218,4,1,298,20,0,0,1,514
2219,4,1,299,32,1,1,1,430
2220,4,1,300,5,0,0,1,499
2221,4,1,301,5,1,1,1,520
2222,4,1,302,10,1,1,1,555
2223,4,1,303,10,1,1,1,616
2224,4,1,304,5,0,0,1,482
2225,4,1,305,5,1,1,1,591
2226,4,1,306,5,0,0,1,562
2227,4,1,307,2,0,0,1,433
2228,4,1,308,5,1,1,1,372
2229,4,1,309,2,0,0,1,491
2230,4,1,310,32,1,1,1,634
2231,4,1,311,5,1,1,1,714
2232,4,1,312,32,1,1,1,793
2233,4,1,313,2,1,1,1,515
2234,4,1,314,2,1,1,1,441
2235,4,1,315,2,1,1,1,488
2236,4,1,316,5,0,0,1,431
2237,4,1,317,20,1,1,1,435
2238,4,1,318,5,1,1,1,510
2239,4,1,319,5,1,1,1,547
2240,4,1,320,1,1,1,1,413
2241,4,1,321,32,0,0,1,499
2242,4,1,322,1,0,0,1,480
2243,4,1,323,32,0,0,1,666
2244,4,1,324,1,0,0,1,403
2245,4,1,325,5,1,1,1,385
2246,4,1,326,5,1,1,1,345
2247,4,1,327,10,1,1,1,517
2248,4,1,328,2,0,0,1,392
2249,4,1,329,20,0,0,1,399
2250,4,1,330,2,0,0,1,403
2251,4,1,331,20,0,0,1,781
2252,4,1,332,20,1,1,1,384
2253,4,1,333,32,0,0,1,425
2254,4,1,334,32,0,0,1,586
2255,4,1,335,2,1,1,1,407
2256,4,1,336,5,1,1,1,398
2257,4,1,337,2,1,1,1,513
2258,4,1,338,20,0,0,1,496
2259,4,1,339,10,1,1,1,432
2260,4,1,340,20,0,0,1,364
2261,4,1,341,10,1,1,1,479
2262,4,1,342,20,0,0,1,507
2263,4,1,343,32,0,0,1,537
2264,4,1,344,1,1,1,1,432
2265,4,1,345,20,1,1,1,586
2266,4,1,346,20,1,1,1,742
2267,4,1,347,32,0,0,1,581
2268,4,1,348,2,0,0,1,446
2269,4,1,349,2,0,0,1,763
2270,4,1,350,32,0,0,1,734
2271,4,1,351,10,0,0,1,510
2272,4,1,352,20,0,0,1,560
2273,4,1,353,2,1,1,1,506
2274,4,1,354,32,0,0,1,522
2275,4,1,355,20,1,1,1,888
2276,4,1,356,10,1,1,1,621
2277,4,1,357,5,1,1,1,1391
2278,4,1,358,20,0,0,1,866
2279,4,1,359,10,0,0,1,483
2280,4,1,360,32,0,0,1,960
2281,4,1,361,20,1,1,1,528
2282,4,1,362,32,0,0,1,462
2283,4,1,363,20,1,1,1,469
2284,4,1,364,10,0,0,1,405
2285,4,1,365,10,1,1,1,514
2286,4,1,366,10,1,1,1,429
2287,4,1,367,32,1,1,1,661
2288,4,1,368,2,1,1,1,438
2289,4,1,369,2,1,1,1,506
2290,4,1,370,10,0,0,1,693
2291,4,1,371,10,0,0,1,419
2292,4,1,372,10,0,0,1,468
2293,4,1,373,5,1,1,1,425
2294,4,1,374,20,0,0,1,407
2295,4,1,375,20,1,1,1,493
2296,4,1,376,10,0,0,1,513
2297,4,1,377,10,1,1,1,631
2298,4,1,378,32,1,1,1,1137
2299,4,1,379,2,0,0,1,502
2300,4,1,380,5,0,0,1,462
2301,4,1,381,20,1,1,1,440
2302,4,1,382,20,1,1,1,382
2303,4,1,383,10,1,1,1,455
2304,4,1,384,2,0,0,1,604
2305,4,1,385,2,0,0,1,483
2306,4,1,386,10,1,1,1,538
2307,4,1,387,5,0,0,1,470
2308,4,1,388,20,1,1,1,526
2309,4,1,389,2,0,0,1,405
2310,4,1,390,10,1,1,1,564
2311,4,1,391,5,1,1,1,550
2312,4,1,392,2,0,0,1,471
2313,4,1,393,1,0,0,1,419
2314,4,1,394,20,1,1,1,1039
2315,4,1,395,20,0,0,1,469
2316,4,1,396,20,0,0,1,469
2317,4,1,397,32,1,1,1,501
2318,4,1,398,32,0,0,1,500
2319,4,1,399,5,0,0,1,482
2320,4,1,400,32,1,1,1,513
2321,4,1,401,10,0,0,1,872
2322,4,1,402,10,1,1,1,560
2323,4,1,403,5,1,1,1,437
2324,4,1,404,2,1,1,1,345
2325,4,1,405,20,1,1,0,362
2326,4,1,406,32,1,1,1,512
2327,4,1,407,5,1,1,1,457
2328,4,1,408,2,1,1,1,366
2329,4,1,409,2,1,1,1,493
2330,4,1,410,32,0,0,1,511
2331,4,1,411,10,1,1,1,509
2332,4,1,412,32,0,0,1,500
2333,4,1,413,2,1,1,1,480
2334,4,1,414,5,0,0,1,385
2335,4,1,415,5,1,1,1,504
2336,4,1,416,20,0,0,1,754
2337,4,1,417,32,1,1,1,405
2338,4,1,418,5,0,0,1,560
2339,4,1,419,5,0,0,1,747
2340,4,1,420,20,0,0,1,406
2341,4,1,421,10,0,0,1,440
2342,4,1,422,2,0,0,1,488
2343,4,1,423,10,1,1,1,426
2344,4,1,424,10,1,1,1,456
2345,4,1,425,32,0,0,1,436
2346,4,1,426,2,0,0,1,435
2347,4,1,427,10,0,0,1,336
2348,4,1,428,2,1,1,1,442
2349,4,1,429,20,0,0,1,455
2350,4,1,430,1,1,1,1,401
2351,4,1,431,20,1,1,1,508
2352,4,1,432,20,0,0,1,570
2353,4,1,433,5,1,1,1,793
2354,4,1,434,20,1,1,1,808
2355,4,1,435,20,0,0,1,495
2356,4,1,436,5,0,0,1,431
2357,4,1,437,2,1,1,1,362
2358,4,1,438,10,0,0,1,410
2359,4,1,439,10,1,1,1,517
2360,4,1,440,32,0,0,1,617
2361,4,1,441,20,0,0,1,638
2362,4,1,442,20,1,1,1,375
2363,4,1,443,20,0,0,1,448
2364,4,1,444,5,0,0,1,411
2365,4,1,445,20,0,0,1,695
2366,4,1,446,32,1,1,1,535
2367,4,1,447,2,0,0,1,562
2368,4,1,448,1,0,0,1,436
2369,4,1,449,1,1,1,1,465
2370,4,1,450,32,0,0,1,405
2371,4,1,451,1,0,0,1,541
2372,4,1,452,1,1,1,1,388
2373,4,1,453,32,0,0,1,435
2374,4,1,454,10,0,0,1,564
2375,4,1,455,5,1,1,1,589
2376,4,1,456,20,0,0,1,678
2377,4,1,457,20,0,0,1,427
2378,4,1,458,32,0,0,1,670
2379,4,1,459,10,0,0,1,554
2380,4,1,460,20,1,1,1,430
2381,4,1,461,5,0,0,1,388
2382,4,1,462,10,0,0,1,530
2383,4,1,463,5,1,1,1,676
2384,4,1,464,32,0,0,1,478
2385,4,1,465,5,0,0,1,421
2386,4,1,466,10,0,0,1,456
2387,4,1,467,20,1,1,1,584
2388,4,1,468,5,1,1,1,514
2389,4,1,469,1,1,1,1,966
2390,4,1,470,2,0,0,1,511
2391,4,1,471,20,0,0,1,579
2392,4,1,472,10,0,0,1,508
2393,4,1,473,2,0,0,1,396
2394,4,1,474,5,0,0,1,968
2395,4,1,475,32,0,0,1,577
2396,4,1,476,20,0,0,1,413
2397,4,1,477,2,1,1,1,620
2398,4,1,478,2,0,0,1,383
2399,4,1,479,20,0,0,1,443
2400,4,1,480,10,1,1,1,427
2401,4,1,481,32,1,1,1,1413
2402,4,1,482,2,0,0,1,434
2403,4,1,483,2,0,0,1,419
2404,4,1,484,32,1,1,1,552
2405,4,1,485,20,0,0,1,416
2406,4,1,486,10,0,0,1,548
2407,4,1,487,10,1,1,1,367
2408,4,1,488,2,0,0,1,415
2409,4,1,489,2,1,1,1,363
2410,4,1,490,2,1,1,1,1232
2411,4,1,491,10,0,0,1,483
2412,4,1,492,2,1,1,1,360
2413,4,1,493,32,1,1,1,513
2414,4,1,494,2,1,1,1,545
2415,4,1,495,2,1,1,1,455
2416,4,1,496,1,0,0,1,398
2417,4,1,497,10,1,1,1,529
2418,4,1,498,2,0,0,1,676
2419,4,1,499,10,0,0,1,542
2420,4,1,500,32,0,0,1,758
2421,4,1,501,2,0,0,1,540
2422,4,1,502,32,0,0,1,466
2423,4,1,503,2,0,0,1,361
2424,4,1,504,32,0,0,1,434
2425,4,1,505,5,0,0,1,545
2426,4,1,506,32,0,0,1,400
2427,4,1,507,2,1,1,1,404
2428,4,1,508,10,0,0,1,554
2429,4,1,509,5,1,1,1,391
2430,4,1,510,2,0,0,1,421
2431,4,1,511,20,1,1,1,1067
2432,4,1,512,10,0,0,1,481
2433,4,1,513,20,1,1,1,754
2434,4,1,514,5,0,0,1,490
2435,4,1,515,20,1,1,1,1213
2436,4,1,516,32,0,0,1,384
2437,4,1,517,1,1,1,1,447
2438,4,1,518,32,1,1,1,473
2439,4,1,519,20,1,1,1,457
2440,4,1,520,32,0,0,1,441
2441,4,1,521,5,0,0,1,645
2442,4,1,522,32,1,1,1,447
2443,4,1,523,10,0,0,1,438
2444,4,1,524,2,1,1,1,486
2445,4,1,525,20,0,0,1,400
2446,4,1,526,2,1,1,1,355
2447,4,1,527,2,0,0,1,1123
2448,4,1,528,20,1,1,1,488
2449,4,1,529,5,0,0,1,402
2450,4,1,530,10,0,0,1,428
2451,4,1,531,32,1,1,1,341
2452,4,1,532,10,1,1,1,644
2453,4,1,533,5,1,1,1,438
2454,4,1,534,20,0,0,1,392
2455,4,1,535,20,0,0,1,437
2456,4,1,536,5,1,1,1,497
2457,4,1,537,20,0,0,1,437
2458,4,1,538,10,0,0,1,429
2459,4,1,539,32,0,0,1,397
2460,4,1,540,20,0,0,1,435
2461,4,1,541,10,0,0,1,490
2462,4,1,542,10,0,0,1,344
2463,4,1,543,20,0,0,1,379
2464,4,1,544,10,1,1,1,806
2465,4,1,545,20,1,1,1,536
2466,4,1,546,1,0,0,1,421
2467,4,1,547,2,0,0,1,623
2468,4,1,548,5,0,0,1,445
2469,4,1,549,2,0,0,1,391
2470,4,1,550,32,0,0,1,479
2471,4,1,551,32,1,1,1,648
2472,4,1,552,1,0,0,1,342
2473,4,1,553,20,1,1,1,461
2474,4,1,554,2,1,1,0,357
2475,4,1,555,32,0,0,1,507
2476,4,1,556,10,1,1,1,573
2477,4,1,557,1,0,0,1,477
2478,4,1,558,32,1,1,1,835
2479,4,1,559,32,0,0,1,506
2480,4,1,560,1,1,1,1,478
2481,4,1,561,5,1,1,1,655
2482,4,1,562,32,1,1,1,443
2483,4,1,563,10,1,1,1,450
2484,4,1,564,2,1,1,1,667
2485,4,1,565,5,1,1,1,382
2486,4,1,566,5,1,1,1,604
2487,4,1,567,1,0,0,1,481
2488,4,1,568,10,1,1,1,555
2489,4,1,569,5,0,0,1,418
2490,4,1,570,32,0,0,1,414
2491,4,1,571,2,1,1,1,450
2492,4,1,572,32,0,0,1,544
2493,4,1,573,1,0,0,1,453
2494,4,1,574,20,1,1,1,393
2495,4,1,575,2,0,0,1,565
2496,4,1,576,2,1,1,1,1121
2497,4,1,577,32,1,1,1,428
2498,4,1,578,5,0,0,1,385
2499,4,1,579,2,0,0,1,453
2500,4,1,580,20,1,1,1,379
2501,4,1,581,5,0,0,1,450
2502,4,1,582,32,0,0,1,387
2503,4,1,583,10,1,1,1,426
2504,4,1,584,2,1,1,1,391
2505,4,1,585,5,0,0,1,426
2506,4,1,586,10,0,0,1,740
2507,4,1,587,5,1,1,1,447
2508,4,1,588,5,0,0,1,380
2509,4,1,589,20,1,1,1,701
2510,4,1,590,2,0,0,1,430
2511,4,1,591,5,0,0,1,573
2512,4,1,592,1,0,0,1,338
2513,4,1,593,2,0,0,1,445
2514,4,1,594,10,1,1,1,493
2515,4,1,595,20,1,1,1,575
2516,4,1,596,2,0,0,1,569
2517,4,1,597,32,1,1,1,738
2518,4,1,598,5,0,0,1,511
2519,4,1,599,5,0,0,1,488
2520,4,1,600,32,1,1,1,505
2521,4,1,601,2,0,0,1,575
2522,4,1,602,10,0,0,1,552
2523,4,1,603,20,0,0,1,560
2524,4,1,604,20,0,0,1,441
2525,4,1,605,5,0,0,1,405
2526,4,1,606,5,1,1,1,629
2527,4,1,607,2,0,0,1,694
2528,4,1,608,32,0,0,1,412
2529,4,1,609,2,0,0,1,392
2530,4,1,610,5,1,1,0,411
2531,4,1,611,2,1,1,1,582
2532,4,1,612,1,1,1,1,546
2533,4,1,613,32,0,0,1,634
2534,4,1,614,10,1,1,1,695
2535,4,1,615,32,1,1,1,403
2536,4,1,616,10,1,1,1,474
2537,4,1,617,10,1,1,1,494
2538,4,1,618,20,0,0,1,512
2539,4,1,619,10,1,1,1,653
2540,4,1,620,2,0,0,1,435
2541,4,1,621,5,0,0,1,522
2542,4,1,622,32,0,0,1,491
2543,4,1,623,5,1,1,1,630
2544,4,1,624,5,1,1,1,519
2545,4,1,625,1,1,1,1,404
2546,4,1,626,5,1,1,1,397
2547,4,1,627,10,1,1,1,428
2548,4,1,628,20,0,0,1,396
2549,4,1,629,5,1,1,1,476
2550,4,1,630,32,0,0,1,442
2551,4,1,631,20,1,1,1,567
2552,4,1,632,5,0,0,1,544
2553,4,1,633,2,1,1,1,476
2554,4,1,634,1,1,1,1,551
2555,4,1,635,20,0,0,1,644
2556,4,1,636,10,0,0,1,520
2557,4,1,637,5,1,1,1,367
2558,4,1,638,5,0,0,1,581
2559,4,1,639,32,1,1,1,425
2560,4,1,640,32,0,0,1,949
2561,5,1,1,10,0,0,1,393
2562,5,1,2,20,1,1,1,437
2563,5,1,3,10,1,1,1,391
2564,5,1,4,5,0,0,1,385
2565,5,1,5,5,1,1,1,373
2566,5,1,6,1,1,1,1,358
2567,5,1,7,5,0,0,1,479
2568,5,1,8,5,1,1,1,399
2569,5,1,9,5,0,0,1,323
2570,5,1,10,5,0,0,0,333
2571,5,1,11,2,1,1,1,392
2572,5,1,12,10,1,1,1,494
2573,5,1,13,20,0,0,1,410
2574,5,1,14,32,1,1,1,348
2575,5,1,15,5,1,1,1,333
2576,5,1,16,20,0,0,1,331
2577,5,1,17,10,1,1,1,314
2578,5,1,18,10,0,0,1,305
2579,5,1,19,10,0,0,1,314
2580,5,1,20,1,1,1,1,329
2581,5,1,21,1,1,1,1,319
2582,5,1,22,32,0,0,1,400
2583,5,1,23,10,0,0,1,366
2584,5,1,24,10,1,1,1,495
2585,5,1,25,5,1,1,0,323
2586,5,1,26,10,0,0,1,342
2587,5,1,27,1,0,0,1,335
2588,5,1,28,32,0,0,1,404
2589,5,1,29,32,0,0,0,360
2590,5,1,30,2,1,1,1,407
2591,5,1,31,32,0,0,1,425
2592,5,1,32,5,0,0,1,407
2593,5,1,33,10,1,1,1,385
2594,5,1,34,20,0,0,1,404
2595,5,1,35,5,1,1,1,348
2596,5,1,36,20,0,0,1,501
2597,5,1,37,10,1,1,1,425
2598,5,1,38,1,1,1,1,322
2599,5,1,39,20,0,0,1,396
2600,5,1,40,1,1,1,1,410
2601,5,1,41,2,0,0,1,489
2602,5,1,42,5,0,0,1,399
2603,5,1,43,5,0,0,1,350
2604,5,1,44,20,0,0,1,363
2605,5,1,45,10,0,0,1,395
2606,5,1,46,32,1,1,1,488
2607,5,1,47,32,1,1,1,377
2608,5,1,48,20,1,1,1,389
2609,5,1,49,32,0,0,1,500
2610,5,1,50,2,0,0,1,427
2611,5,1,51,10,1,1,1,357
2612,5,1,52,32,1,1,1,342
2613,5,1,53,2,0,0,1,366
2614,5,1,54,10,1,1,1,386
2615,5,1,55,10,0,0,1,338
2616,5,1,56,32,1,1,1,339
2617,5,1,57,2,0,0,1,455
2618,5,1,58,1,0,0,1,352
2619,5,1,59,10,0,0,0,389
2620,5,1,60,10,1,1,1,555
2621,5,1,61,5,0,0,1,342
2622,5,1,62,2,1,1,1,327
2623,5,1,63,5,0,0,1,468
2624,5,1,64,20,1,1,1,389
2625,5,1,65,20,0,0,1,397
2626,5,1,66,10,1,1,1,390
2627,5,1,67,10,0,0,1,398
2628,5,1,68,10,1,1,1,476
2629,5,1,69,10,0,0,1,431
2630,5,1,70,5,1,1,1,479
2631,5,1,71,32,0,0,1,405
2632,5,1,72,5,1,1,1,387
2633,5,1,73,10,0,0,1,389
2634,5,1,74,20,1,1,1,608
2635,5,1,75,20,1,1,1,409
2636,5,1,76,5,0,0,1,409
2637,5,1,77,20,0,0,1,475
2638,5,1,78,2,0,0,1,363
2639,5,1,79,20,0,0,1,543
2640,5,1,80,10,0,0,1,359
2641,5,1,81,1,1,1,1,435
2642,5,1,82,10,0,0,1,381
2643,5,1,83,20,1,1,1,450
2644,5,1,84,32,0,0,1,400
2645,5,1,85,20,1,1,1,471
2646,5,1,86,32,1,1,1,438
2647,5,1,87,10,0,0,1,414
2648,5,1,88,10,1,1,1,327
2649,5,1,89,32,1,1,1,411
2650,5,1,90,1,0,0,1,418
2651,5,1,91,20,1,1,1,379
2652,5,1,92,2,1,1,1,570
2653,5,1,93,10,1,1,1,357
2654,5,1,94,10,0,0,1,383
2655,5,1,95,10,1,1,1,401
2656,5,1,96,10,0,0,1,374
2657,5,1,97,2,1,1,1,382
2658,5,1,98,2,1,1,1,353
2659,5,1,99,2,0,0,1,368
2660,5,1,100,2,1,1,1,385
2661,5,1,101,2,0,0,1,353
2662,5,1,102,1,0,0,1,404
2663,5,1,103,1,1,1,1,356
2664,5,1,104,20,1,1,1,498
2665,5,1,105,2,1,1,1,410
2666,5,1,106,10,0,0,1,349
2667,5,1,107,32,0,0,1,498
2668,5,1,108,1,1,1,1,351
2669,5,1,109,32,1,1,0,338
2670,5,1,110,2,1,1,1,404
2671,5,1,111,2,1,1,1,404
2672,5,1,112,10,1,1,1,437
2673,5,1,113,2,1,1,1,401
2674,5,1,114,5,0,0,1,415
2675,5,1,115,20,0,0,1,783
2676,5,1,116,32,0,0,1,582
2677,5,1,117,20,1,1,1,575
2678,5,1,118,5,0,0,1,581
2679,5,1,119,32,0,0,1,456
2680,5,1,120,1,0,0,1,418
2681,5,1,121,2,0,0,1,374
2682,5,1,122,2,0,0,1,394
2683,5,1,123,2,1,1,1,510
2684,5,1,124,2,0,0,1,471
2685,5,1,125,2,1,1,1,370
2686,5,1,126,5,1,1,1,488
2687,5,1,127,32,1,1,0,412
2688,5,1,128,5,1,1,1,364
2689,5,1,129,32,1,1,1,330
2690,5,1,130,20,1,1,1,414
2691,5,1,131,10,1,1,0,437
2692,5,1,132,5,0,0,1,441
2693,5,1,133,32,0,0,1,434
2694,5,1,134,5,1,1,1,704
2695,5,1,135,10,0,0,1,473
2696,5,1,136,5,1,1,1,451
2697,5,1,137,5,1,1,1,372
2698,5,1,138,2,1,1,1,388
2699,5,1,139,10,1,1,1,372
2700,5,1,140,5,0,0,1,473
2701,5,1,141,2,1,1,1,520
2702,5,1,142,5,1,1,1,379
2703,5,1,143,10,1,1,1,563
2704,5,1,144,5,1,1,1,412
2705,5,1,145,1,0,0,1,416
2706,5,1,146,20,1,1,1,401
2707,5,1,147,20,1,1,1,491
2708,5,1,148,5,1,1,1,372
2709,5,1,149,32,1,1,1,550
2710,5,1,150,20,1,1,1,395
2711,5,1,151,5,1,1,1,391
2712,5,1,152,2,1,1,1,430
2713,5,1,153,10,0,0,1,414
2714,5,1,154,10,0,0,1,515
2715,5,1,155,10,1,1,1,522
2716,5,1,156,5,0,0,1,386
2717,5,1,157,20,0,0,1,776
2718,5,1,158,2,0,0,1,401
2719,5,1,159,2,1,1,1,368
2720,5,1,160,1,0,0,1,353
2721,5,1,161,10,1,1,1,462
2722,5,1,162,10,1,1,1,399
2723,5,1,163,20,1,1,1,539
2724,5,1,164,2,1,1,1,536
2725,5,1,165,20,0,0,1,460
2726,5,1,166,2,1,1,1,376
2727,5,1,167,2,1,1,1,351
2728,5,1,168,32,1,1,1,408
2729,5,1,169,1,0,0,1,398
2730,5,1,170,10,1,1,1,540
2731,5,1,171,5,0,0,1,460
2732,5,1,172,2,0,0,1,448
2733,5,1,173,32,1,1,1,423
2734,5,1,174,10,0,0,1,470
2735,5,1,175,20,0,0,1,643
2736,5,1,176,20,1,1,1,470
2737,5,1,177,10,1,1,1,413
2738,5,1,178,32,0,0,1,468
2739,5,1,179,1,1,1,1,443
2740,5,1,180,5,0,0,1,414
2741,5,1,181,20,1,1,1,608
2742,5,1,182,32,1,1,1,402
2743,5,1,183,32,1,1,1,381
2744,5,1,184,10,1,1,1,359
2745,5,1,185,10,0,0,1,413
2746,5,1,186,5,1,1,1,357
2747,5,1,187,20,0,0,1,451
2748,5,1,188,20,1,1,1,338
2749,5,1,189,20,1,1,1,363
2750,5,1,190,2,0,0,1,367
2751,5,1,191,10,1,1,1,311
2752,5,1,192,2,1,1,1,353
2753,5,1,193,20,1,1,1,602
2754,5,1,194,32,0,0,1,476
2755,5,1,195,1,1,1,1,405
2756,5,1,196,32,0,0,1,403
2757,5,1,197,10,1,1,1,363
2758,5,1,198,2,0,0,1,437
2759,5,1,199,2,0,0,1,389
2760,5,1,200,5,1,1,1,463
2761,5,1,201,20,1,1,1,436
2762,5,1,202,20,1,1,0,453
2763,5,1,203,10,0,0,1,473
2764,5,1,204,5,0,0,1,538
2765,5,1,205,20,1,1,1,431
2766,5,1,206,20,1,1,1,688
2767,5,1,207,20,1,1,1,548
2768,5,1,208,2,1,1,1,381
2769,5,1,209,2,0,0,1,572
2770,5,1,210,5,0,0,1,485
2771,5,1,211,10,0,0,1,421
2772,5,1,212,2,1,1,1,379
2773,5,1,213,20,1,1,1,474
2774,5,1,214,1,1,1,1,414
2775,5,1,215,5,1,1,1,369
2776,5,1,216,5,0,0,1,470
2777,5,1,217,20,0,0,1,509
2778,5,1,218,20,0,0,1,801
2779,5,1,219,2,0,0,1,576
2780,5,1,220,2,0,0,1,549
2781,5,1,221,20,1,1,1,485
2782,5,1,222,5,0,0,1,485
2783,5,1,223,32,1,1,1,477
2784,5,1,224,5,1,1,1,426
2785,5,1,225,10,1,1,1,476
2786,5,1,226,20,0,0,1,608
2787,5,1,227,5,0,0,1,429
2788,5,1,228,10,0,0,1,454
2789,5,1,229,1,1,1,1,380
2790,5,1,230,32,1,1,1,793
2791,5,1,231,32,0,0,1,485
2792,5,1,232,2,1,1,1,382
2793,5,1,233,10,1,1,1,415
2794,5,1,234,5,0,0,1,358
2795,5,1,235,32,0,0,1,417
2796,5,1,236,10,1,1,1,345
2797,5,1,237,32,1,1,1,441
2798,5,1,238,2,0,0,1,464
2799,5,1,239,5,1,1,1,436
2800,5,1,240,10,1,1,1,394
2801,5,1,241,20,0,0,1,435
2802,5,1,242,2,0,0,1,389
2803,5,1,243,2,0,0,1,369
2804,5,1,244,10,0,0,1,360
2805,5,1,245,5,0,0,1,385
2806,5,1,246,5,0,0,1,372
2807,5,1,247,1,0,0,1,337
2808,5,1,248,20,1,1,1,482
2809,5,1,249,10,0,0,1,326
2810,5,1,250,10,0,0,1,373
2811,5,1,251,32,0,0,1,400
2812,5,1,252,1,1,1,1,319
2813,5,1,253,5,1,1,0,378
2814,5,1,254,20,0,0,1,337
2815,5,1,255,2,0,0,1,369
2816,5,1,256,5,0,0,1,458
2817,5,1,257,32,0,0,1,574
2818,5,1,258,5,0,0,1,451
2819,5,1,259,20,0,0,1,468
2820,5,1,260,2,0,0,1,465
2821,5,1,261,10,0,0,1,403
2822,5,1,262,5,1,1,1,414
2823,5,1,263,32,1,1,1,740
2824,5,1,264,2,0,0,1,418
2825,5,1,265,10,1,1,1,464
2826,5,1,266,32,1,1,1,365
2827,5,1,267,10,0,0,1,445
2828,5,1,268,2,0,0,1,345
2829,5,1,269,32,0,0,1,578
2830,5,1,270,32,0,0,1,482
2831,5,1,271,2,1,1,1,467
2832,5,1,272,2,1,1,1,380
2833,5,1,273,5,1,1,1,414
2834,5,1,274,5,0,0,1,483
2835,5,1,275,5,1,1,1,387
2836,5,1,276,32,0,0,1,400
2837,5,1,277,10,1,1,1,341
2838,5,1,278,20,1,1,1,411
2839,5,1,279,20,1,1,1,357
2840,5,1,280,2,1,1,1,381
2841,5,1,281,32,0,0,1,466
2842,5,1,282,32,1,1,1,433
2843,5,1,283,2,1,1,1,359
2844,5,1,284,20,0,0,1,377
2845,5,1,285,32,0,0,1,424
2846,5,1,286,2,0,0,1,352
2847,5,1,287,5,0,0,1,361
2848,5,1,288,5,1,1,1,408
2849,5,1,289,32,1,1,1,377
2850,5,1,290,32,0,0,1,329
2851,5,1,291,2,1,1,1,335
2852,5,1,292,20,0,0,1,352
2853,5,1,293,20,1,1,1,402
2854,5,1,294,20,1,1,1,486
2855,5,1,295,10,1,1,1,352
2856,5,1,296,1,1,1,1,498
2857,5,1,297,20,1,1,1,338
2858,5,1,298,10,1,1,1,354
2859,5,1,299,1,1,1,1,321
2860,5,1,300,5,1,1,1,577
2861,5,1,301,10,1,1,1,392
2862,5,1,302,20,0,0,1,427
2863,5,1,303,20,0,0,1,384
2864,5,1,304,2,1,1,1,345
2865,5,1,305,20,1,1,1,547
2866,5,1,306,32,1,1,1,449
2867,5,1,307,32,1,1,1,576
2868,5,1,308,5,1,1,1,414
2869,5,1,309,1,0,0,1,363
2870,5,1,310,20,0,0,1,416
2871,5,1,311,20,0,0,1,431
2872,5,1,312,10,0,0,1,472
2873,5,1,313,10,1,1,1,363
2874,5,1,314,1,0,0,1,361
2875,5,1,315,5,0,0,0,403
2876,5,1,316,5,1,1,1,402
2877,5,1,317,20,0,0,1,490
2878,5,1,318,2,1,1,1,339
2879,5,1,319,10,1,1,1,501
2880,5,1,320,10,1,1,1,426
2881,5,1,321,20,1,1,1,395
2882,5,1,322,10,0,0,1,399
2883,5,1,323,5,1,1,1,419
2884,5,1,324,5,0,0,1,461
2885,5,1,325,10,1,1,1,427
2886,5,1,326,2,0,0,1,368
2887,5,1,327,32,0,0,1,501
2888,5,1,328,5,1,1,1,388
2889,5,1,329,32,0,0,1,442
2890,5,1,330,5,1,1,1,388
2891,5,1,331,1,1,1,1,347
2892,5,1,332,20,1,1,1,512
2893,5,1,333,5,0,0,1,394
2894,5,1,334,1,0,0,1,384
2895,5,1,335,1,0,0,1,410
2896,5,1,336,5,0,0,1,403
2897,5,1,337,20,1,1,1,373
2898,5,1,338,20,0,0,1,382
2899,5,1,339,2,1,1,1,330
2900,5,1,340,10,0,0,1,345
2901,5,1,341,2,0,0,1,355
2902,5,1,342,20,0,0,1,408
2903,5,1,343,10,1,1,1,647
2904,5,1,344,32,0,0,1,436
2905,5,1,345,32,1,1,1,390
2906,5,1,346,10,1,1,1,399
2907,5,1,347,5,0,0,1,349
2908,5,1,348,5,1,1,1,309
2909,5,1,349,32,1,1,1,388
2910,5,1,350,20,0,0,1,385
2911,5,1,351,20,1,1,1,648
2912,5,1,352,20,0,0,1,405
2913,5,1,353,32,1,1,1,330
2914,5,1,354,5,1,1,1,335
2915,5,1,355,1,0,0,1,403
2916,5,1,356,5,1,1,1,286
2917,5,1,357,5,0,0,1,366
2918,5,1,358,32,1,1,1,368
2919,5,1,359,10,1,1,1,434
2920,5,1,360,20,1,1,1,333
2921,5,1,361,10,0,0,1,419
2922,5,1,362,5,1,1,1,411
2923,5,1,363,32,1,1,1,351
2924,5,1,364,20,1,1,1,349
2925,5,1,365,10,1,1,1,632
2926,5,1,366,10,0,0,1,478
2927,5,1,367,20,1,1,1,389
2928,5,1,368,32,1,1,1,473
2929,5,1,369,2,1,1,1,408
2930,5,1,370,5,0,0,1,433
2931,5,1,371,10,0,0,1,420
2932,5,1,372,20,1,1,1,333
2933,5,1,373,2,0,0,1,405
2934,5,1,374,10,1,1,1,419
2935,5,1,375,5,0,0,1,597
2936,5,1,376,2,0,0,1,476
2937,5,1,377,2,1,1,1,350
2938,5,1,378,5,1,1,1,396
2939,5,1,379,5,0,0,1,478
2940,5,1,380,32,0,0,1,448
2941,5,1,381,1,1,1,1,464
2942,5,1,382,32,1,1,1,445
2943,5,1,383,5,0,0,1,410
2944,5,1,384,20,0,0,1,374
2945,5,1,385,20,0,0,1,362
2946,5,1,386,32,1,1,1,533
2947,5,1,387,1,0,0,1,386
2948,5,1,388,32,0,0,1,417
2949,5,1,389,2,1,1,1,358
2950,5,1,390,1,0,0,1,402
2951,5,1,391,20,1,1,1,543
2952,5,1,392,20,0,0,1,548
2953,5,1,393,32,0,0,1,667
2954,5,1,394,2,0,0,1,441
2955,5,1,395,32,0,0,1,653
2956,5,1,396,32,0,0,1,419
2957,5,1,397,5,1,1,1,365
2958,5,1,398,1,0,0,1,369
2959,5,1,399,32,0,0,1,487
2960,5,1,400,5,0,0,1,471
2961,5,1,401,2,0,0,1,437
2962,5,1,402,5,0,0,1,393
2963,5,1,403,10,0,0,1,375
2964,5,1,404,5,0,0,1,451
2965,5,1,405,32,0,0,1,554
2966,5,1,406,10,1,1,1,494
2967,5,1,407,20,0,0,1,384
2968,5,1,408,20,0,0,1,451
2969,5,1,409,10,0,0,1,431
2970,5,1,410,5,1,1,1,438
2971,5,1,411,2,0,0,1,398
2972,5,1,412,2,1,1,1,371
2973,5,1,413,32,1,1,1,432
2974,5,1,414,10,1,1,1,378
2975,5,1,415,20,0,0,1,446
2976,5,1,416,32,1,1,1,460
2977,5,1,417,5,1,1,1,413
2978,5,1,418,10,0,0,1,508
2979,5,1,419,32,1,1,1,384
2980,5,1,420,10,1,1,1,442
2981,5,1,421,10,1,1,1,383
2982,5,1,422,32,1,1,1,437
2983,5,1,423,32,0,0,1,439
2984,5,1,424,10,1,1,1,460
2985,5,1,425,2,0,0,1,375
2986,5,1,426,32,1,1,1,404
2987,5,1,427,20,1,1,1,423
2988,5,1,428,32,1,1,1,391
2989,5,1,429,1,1,1,1,357
2990,5,1,430,32,0,0,1,482
2991,5,1,431,20,0,0,1,517
2992,5,1,432,32,1,1,1,376
2993,5,1,433,5,1,1,1,699
2994,5,1,434,2,1,1,1,525
2995,5,1,435,32,0,0,1,454
2996,5,1,436,2,0,0,1,359
2997,5,1,437,32,0,0,1,502
2998,5,1,438,10,0,0,1,425
2999,5,1,439,5,0,0,1,509
3000,5,1,440,2,1,1,1,390
3001,5,1,441,2,0,0,1,430
3002,5,1,442,2,0,0,1,351
3003,5,1,443,5,0,0,1,414
3004,5,1,444,1,1,1,1,336
3005,5,1,445,32,0,0,1,402
3006,5,1,446,32,1,1,1,406
3007,5,1,447,32,1,1,1,520
3008,5,1,448,32,0,0,1,509
3009,5,1,449,5,1,1,1,339
3010,5,1,450,20,1,1,0,353
3011,5,1,451,2,1,1,1,343
3012,5,1,452,32,1,1,1,516
3013,5,1,453,32,0,0,1,437
3014,5,1,454,20,0,0,1,894
3015,5,1,455,32,1,1,1,437
3016,5,1,456,5,0,0,1,378
3017,5,1,457,20,1,1,1,436
3018,5,1,458,10,0,0,1,408
3019,5,1,459,20,0,0,1,505
3020,5,1,460,20,0,0,1,449
3021,5,1,461,2,0,0,1,339
3022,5,1,462,32,0,0,1,490
3023,5,1,463,2,1,1,1,313
3024,5,1,464,32,1,1,1,545
3025,5,1,465,5,1,1,1,339
3026,5,1,466,1,0,0,1,409
3027,5,1,467,2,0,0,1,362
3028,5,1,468,2,0,0,1,340
3029,5,1,469,20,1,1,1,591
3030,5,1,470,20,0,0,1,468
3031,5,1,471,10,1,1,1,451
3032,5,1,472,2,1,1,1,359
3033,5,1,473,10,0,0,1,377
3034,5,1,474,5,0,0,0,364
3035,5,1,475,2,1,1,1,399
3036,5,1,476,2,1,1,1,359
3037,5,1,477,5,1,1,1,375
3038,5,1,478,32,0,0,1,551
3039,5,1,479,5,0,0,1,409
3040,5,1,480,10,0,0,1,445
3041,5,1,481,2,1,1,1,523
3042,5,1,482,20,1,1,0,426
3043,5,1,483,20,1,1,1,367
3044,5,1,484,10,0,0,1,464
3045,5,1,485,32,1,1,1,373
3046,5,1,486,5,0,0,1,347
3047,5,1,487,2,1,1,1,335
3048,5,1,488,20,1,1,0,370
3049,5,1,489,32,1,1,1,317
3050,5,1,490,2,0,0,1,373
3051,5,1,491,2,0,0,1,340
3052,5,1,492,2,0,0,1,366
3053,5,1,493,2,1,1,1,351
3054,5,1,494,10,1,1,1,428
3055,5,1,495,10,0,0,1,383
3056,5,1,496,10,0,0,1,543
3057,5,1,497,10,0,0,1,368
3058,5,1,498,2,1,1,1,350
3059,5,1,499,10,1,1,1,602
3060,5,1,500,20,0,0,1,466
3061,5,1,501,5,1,1,1,368
3062,5,1,502,20,0,0,1,416
3063,5,1,503,20,0,0,1,488
3064,5,1,504,32,0,0,1,444
3065,5,1,505,10,1,1,1,391
3066,5,1,506,32,0,0,1,443
3067,5,1,507,20,0,0,1,408
3068,5,1,508,10,0,0,1,660
3069,5,1,509,20,0,0,1,448
3070,5,1,510,20,0,0,1,492
3071,5,1,511,2,1,1,1,367
3072,5,1,512,32,1,1,1,532
3073,5,1,513,5,1,1,1,408
3074,5,1,514,2,0,0,1,439
3075,5,1,515,2,1,1,1,378
3076,5,1,516,32,0,0,1,415
3077,5,1,517,2,1,1,1,384
3078,5,1,518,20,0,0,1,396
3079,5,1,519,32,1,1,1,405
3080,5,1,520,1,0,0,1,447
3081,5,1,521,5,1,1,1,472
3082,5,1,522,5,0,0,1,357
3083,5,1,523,2,0,0,1,398
3084,5,1,524,10,1,1,1,426
3085,5,1,525,10,1,1,1,409
3086,5,1,526,2,0,0,1,373
3087,5,1,527,32,1,1,1,407
3088,5,1,528,2,1,1,1,349
3089,5,1,529,2,0,0,1,406
3090,5,1,530,2,0,0,0,410
3091,5,1,531,10,0,0,1,362
3092,5,1,532,2,1,1,1,397
3093,5,1,533,32,1,1,1,385
3094,5,1,534,5,1,1,1,432
3095,5,1,535,5,1,1,1,359
3096,5,1,536,2,0,0,1,371
3097,5,1,537,32,0,0,1,444
3098,5,1,538,10,1,1,1,419
3099,5,1,539,5,1,1,1,374
3100,5,1,540,20,0,0,1,430
3101,5,1,541,2,1,1,1,346
3102,5,1,542,2,0,0,1,368
3103,5,1,543,32,0,0,1,423
3104,5,1,544,32,1,1,1,755
3105,5,1,545,32,0,0,1,502
3106,5,1,546,5,1,1,1,486
3107,5,1,547,5,0,0,1,458
3108,5,1,548,2,0,0,1,375
3109,5,1,549,5,0,0,1,344
3110,5,1,550,32,1,1,1,576
3111,5,1,551,32,1,1,1,343
3112,5,1,552,5,1,1,1,447
3113,5,1,553,10,0,0,1,408
3114,5,1,554,5,0,0,1,338
3115,5,1,555,2,0,0,1,355
3116,5,1,556,5,1,1,1,449
3117,5,1,557,5,0,0,1,274
3118,5,1,558,20,0,3,0,1
3119,5,1,559,10,1,1,1,388
3120,5,1,560,5,0,0,1,383
3121,5,1,561,20,0,0,1,429
3122,5,1,562,10,0,0,1,359
3123,5,1,563,20,0,0,1,464
3124,5,1,564,5,1,1,1,341
3125,5,1,565,2,1,1,1,329
3126,5,1,566,2,0,0,1,358
3127,5,1,567,10,0,0,1,491
3128,5,1,568,10,0,0,1,395
3129,5,1,569,10,1,1,1,416
3130,5,1,570,20,1,1,1,374
3131,5,1,571,2,1,1,1,392
3132,5,1,572,20,1,1,1,374
3133,5,1,573,20,1,1,1,448
3134,5,1,574,20,0,0,1,427
3135,5,1,575,2,0,0,1,365
3136,5,1,576,10,0,0,1,524
3137,5,1,577,2,0,0,1,416
3138,5,1,578,2,0,0,1,343
3139,5,1,579,10,0,0,1,384
3140,5,1,580,2,1,1,1,395
3141,5,1,581,5,1,1,1,444
3142,5,1,582,5,1,1,1,412
3143,5,1,583,32,0,0,1,682
3144,5,1,584,2,1,1,1,328
3145,5,1,585,2,1,1,1,353
3146,5,1,586,5,0,0,1,483
3147,5,1,587,2,0,0,1,359
3148,5,1,588,5,0,0,1,367
3149,5,1,589,32,0,0,1,382
3150,5,1,590,20,0,0,1,389
3151,5,1,591,5,1,1,1,630
3152,5,1,592,32,1,1,1,442
3153,5,1,593,32,0,0,1,435
3154,5,1,594,5,1,1,1,333
3155,5,1,595,2,0,0,1,498
3156,5,1,596,2,0,0,1,457
3157,5,1,597,20,0,0,1,376
3158,5,1,598,1,0,0,1,370
3159,5,1,599,2,1,1,1,345
3160,5,1,600,20,0,0,1,424
3161,5,1,601,20,0,0,1,642
3162,5,1,602,10,1,1,1,497
3163,5,1,603,32,1,1,1,396
3164,5,1,604,20,1,1,1,450
3165,5,1,605,32,0,0,1,381
3166,5,1,606,10,0,0,1,352
3167,5,1,607,20,1,1,1,431
3168,5,1,608,32,1,1,1,360
3169,5,1,609,2,0,0,1,333
3170,5,1,610,5,1,1,1,461
3171,5,1,611,32,1,1,1,390
3172,5,1,612,1,1,1,1,351
3173,5,1,613,10,0,0,1,367
3174,5,1,614,32,0,0,1,369
3175,5,1,615,5,1,1,1,260
3176,5,1,616,32,1,1,0,376
3177,5,1,617,5,0,0,0,377
3178,5,1,618,32,0,0,1,328
3179,5,1,619,10,0,0,1,539
3180,5,1,620,32,0,0,1,340
3181,5,1,621,20,0,0,1,398
3182,5,1,622,32,0,0,1,567
3183,5,1,623,20,1,1,1,308
3184,5,1,624,5,0,0,1,370
3185,5,1,625,5,0,0,1,382
3186,5,1,626,10,0,0,1,434
3187,5,1,627,32,0,0,1,410
3188,5,1,628,10,0,0,1,376
3189,5,1,629,5,0,0,1,333
3190,5,1,630,20,0,0,1,390
3191,5,1,631,32,1,1,1,722
3192,5,1,632,32,0,0,1,355
3193,5,1,633,10,1,1,0,395
3194,5,1,634,20,1,1,1,498
3195,5,1,635,20,1,1,1,632
3196,5,1,636,32,1,1,1,481
3197,5,1,637,20,1,1,1,443
3198,5,1,638,20,1,1,1,385
3199,5,1,639,32,0,0,1,522
3200,5,1,640,2,1,1,1,360
3201,6,1,1,10,1,1,1,585
3202,6,1,2,5,1,1,1,805
3203,6,1,3,1,1,1,1,574
3204,6,1,4,32,0,0,1,1177
3205,6,1,5,20,0,0,1,827
3206,6,1,6,32,1,1,1,574
3207,6,1,7,5,0,0,1,608
3208,6,1,8,1,1,1,1,717
3209,6,1,9,10,1,1,1,793
3210,6,1,10,2,0,0,1,500
3211,6,1,11,20,1,1,1,562
3212,6,1,12,20,0,0,1,546
3213,6,1,13,32,0,0,1,500
3214,6,1,14,2,1,1,1,793
3215,6,1,15,20,1,1,1,755
3216,6,1,16,10,0,0,1,627
3217,6,1,17,10,1,1,1,661
3218,6,1,18,32,1,1,1,695
3219,6,1,19,32,0,0,1,731
3220,6,1,20,5,1,1,1,662
3221,6,1,21,32,0,0,1,820
3222,6,1,22,20,1,1,1,615
3223,6,1,23,32,1,1,1,876
3224,6,1,24,20,1,1,1,699
3225,6,1,25,2,0,0,1,597
3226,6,1,26,2,0,0,1,534
3227,6,1,27,10,0,0,1,581
3228,6,1,28,5,0,0,1,815
3229,6,1,29,2,1,1,1,528
3230,6,1,30,20,0,0,1,536
3231,6,1,31,20,1,1,1,686
3232,6,1,32,20,1,1,1,559
3233,6,1,33,2,1,1,1,557
3234,6,1,34,10,1,1,1,684
3235,6,1,35,32,0,0,1,800
3236,6,1,36,2,1,1,1,707
3237,6,1,37,20,1,1,1,626
3238,6,1,38,10,0,0,1,728
3239,6,1,39,5,0,0,1,600
3240,6,1,40,32,1,1,1,507
3241,6,1,41,10,1,1,1,606
3242,6,1,42,10,0,0,1,499
3243,6,1,43,10,1,1,1,465
3244,6,1,44,32,1,1,1,558
3245,6,1,45,10,0,0,1,495
3246,6,1,46,32,0,0,1,507
3247,6,1,47,10,0,0,1,563
3248,6,1,48,2,0,0,1,416
3249,6,1,49,20,0,0,1,764
3250,6,1,50,10,0,0,1,505
3251,6,1,51,32,1,1,1,670
3252,6,1,52,20,1,1,1,786
3253,6,1,53,20,1,1,1,564
3254,6,1,54,5,0,0,1,775
3255,6,1,55,5,1,1,1,550
3256,6,1,56,20,1,1,1,974
3257,6,1,57,2,0,0,1,624
3258,6,1,58,32,0,0,1,782
3259,6,1,59,2,1,1,1,669
3260,6,1,60,2,1,1,1,897
3261,6,1,61,10,0,0,1,540
3262,6,1,62,20,1,1,1,876
3263,6,1,63,20,0,0,1,593
3264,6,1,64,1,1,1,1,827
3265,6,1,65,10,1,1,1,508
3266,6,1,66,10,1,1,1,522
3267,6,1,67,10,0,0,1,586
3268,6,1,68,20,1,1,1,585
3269,6,1,69,5,1,1,1,647
3270,6,1,70,20,0,0,1,621
3271,6,1,71,5,1,1,1,589
3272,6,1,72,32,1,1,1,1233
3273,6,1,73,5,1,1,1,1067
3274,6,1,74,2,0,0,1,556
3275,6,1,75,1,1,1,1,572
3276,6,1,76,2,0,0,1,753
3277,6,1,77,5,1,1,1,432
3278,6,1,78,20,0,0,1,784
3279,6,1,79,5,0,0,1,684
3280,6,1,80,10,0,0,1,548
3281,6,1,81,5,0,0,1,521
3282,6,1,82,1,0,0,1,556
3283,6,1,83,20,1,1,1,615
3284,6,1,84,32,0,0,1,659
3285,6,1,85,10,1,1,1,496
3286,6,1,86,20,1,1,1,565
3287,6,1,87,5,0,0,1,509
3288,6,1,88,20,1,1,1,608
3289,6,1,89,1,0,0,1,590
3290,6,1,90,5,0,0,1,529
3291,6,1,91,2,1,1,1,511
3292,6,1,92,32,0,0,1,573
3293,6,1,93,32,1,1,1,629
3294,6,1,94,2,0,0,1,751
3295,6,1,95,2,0,0,1,883
3296,6,1,96,20,0,0,1,544
3297,6,1,97,10,0,0,1,597
3298,6,1,98,5,0,0,1,738
3299,6,1,99,32,0,0,1,583
3300,6,1,100,1,0,0,1,697
3301,6,1,101,32,1,1,1,718
3302,6,1,102,20,0,0,1,577
3303,6,1,103,2,1,1,1,546
3304,6,1,104,20,0,0,1,1213
3305,6,1,105,10,1,1,1,641
3306,6,1,106,32,0,0,1,468
3307,6,1,107,10,0,0,1,499
3308,6,1,108,32,0,0,1,676
3309,6,1,109,20,1,1,1,954
3310,6,1,110,5,0,0,1,527
3311,6,1,111,2,1,1,1,785
3312,6,1,112,5,0,0,1,613
3313,6,1,113,2,0,0,1,594
3314,6,1,114,20,0,0,1,607
3315,6,1,115,2,1,1,1,584
3316,6,1,116,5,0,0,1,562
3317,6,1,117,32,1,1,1,518
3318,6,1,118,32,0,0,1,800
3319,6,1,119,2,1,1,1,629
3320,6,1,120,20,0,0,1,523
3321,6,1,121,2,0,0,1,590
3322,6,1,122,2,0,0,1,613
3323,6,1,123,5,0,0,1,551
3324,6,1,124,2,1,1,1,769
3325,6,1,125,2,1,1,1,535
3326,6,1,126,10,0,0,1,460
3327,6,1,127,20,0,0,1,586
3328,6,1,128,20,0,0,1,658
3329,6,1,129,32,0,0,1,644
3330,6,1,130,20,0,0,1,766
3331,6,1,131,20,1,1,1,593
3332,6,1,132,20,1,1,1,620
3333,6,1,133,2,1,1,1,825
3334,6,1,134,2,0,0,1,513
3335,6,1,135,2,1,1,1,552
3336,6,1,136,10,1,1,1,686
3337,6,1,137,10,1,1,1,566
3338,6,1,138,32,1,1,1,652
3339,6,1,139,5,1,1,1,1161
3340,6,1,140,10,1,1,1,868
3341,6,1,141,2,0,0,1,587
3342,6,1,142,32,0,0,1,628
3343,6,1,143,10,1,1,1,875
3344,6,1,144,10,0,0,1,650
3345,6,1,145,2,1,1,1,615
3346,6,1,146,2,0,0,1,599
3347,6,1,147,5,1,1,1,626
3348,6,1,148,10,1,1,1,591
3349,6,1,149,2,1,1,1,572
3350,6,1,150,10,0,0,1,589
3351,6,1,151,10,0,0,1,1064
3352,6,1,152,32,1,1,1,570
3353,6,1,153,5,0,0,1,622
3354,6,1,154,5,0,0,1,692
3355,6,1,155,20,0,0,1,553
3356,6,1,156,2,0,0,1,612
3357,6,1,157,10,1,1,1,659
3358,6,1,158,2,0,0,1,802
3359,6,1,159,32,1,1,1,701
3360,6,1,160,10,1,1,1,611
3361,6,1,161,32,1,1,1,561
3362,6,1,162,5,0,0,1,559
3363,6,1,163,2,1,1,1,526
3364,6,1,164,1,1,1,1,541
3365,6,1,165,20,0,0,1,658
3366,6,1,166,32,1,1,1,595
3367,6,1,167,10,0,0,1,684
3368,6,1,168,10,1,1,1,485
3369,6,1,169,32,0,0,1,597
3370,6,1,170,5,1,1,1,672
3371,6,1,171,32,1,1,1,597
3372,6,1,172,1,1,1,1,648
3373,6,1,173,32,1,1,1,483
3374,6,1,174,2,1,1,1,685
3375,6,1,175,10,1,1,1,606
3376,6,1,176,32,1,1,1,687
3377,6,1,177,10,1,1,1,513
3378,6,1,178,10,0,0,1,490
3379,6,1,179,20,1,1,1,518
3380,6,1,180,32,0,0,1,711
3381,6,1,181,20,1,1,1,928
3382,6,1,182,1,0,0,1,720
3383,6,1,183,32,0,0,1,1014
3384,6,1,184,32,0,0,1,668
3385,6,1,185,2,0,0,1,538
3386,6,1,186,2,0,0,1,674
3387,6,1,187,20,1,1,1,798
3388,6,1,188,32,1,1,1,600
3389,6,1,189,20,1,1,1,854
3390,6,1,190,2,1,1,1,873
3391,6,1,191,5,0,0,1,654
3392,6,1,192,5,0,0,1,674
3393,6,1,193,2,0,0,1,790
3394,6,1,194,2,1,1,1,500
3395,6,1,195,10,1,1,1,683
3396,6,1,196,20,1,1,1,571
3397,6,1,197,20,1,1,1,601
3398,6,1,198,32,0,0,1,596
3399,6,1,199,10,0,0,1,576
3400,6,1,200,5,0,0,1,606
3401,6,1,201,32,0,0,1,656
3402,6,1,202,5,0,0,1,519
3403,6,1,203,5,0,0,1,656
3404,6,1,204,32,1,1,1,577
3405,6,1,205,10,1,1,1,935
3406,6,1,206,5,0,0,1,711
3407,6,1,207,5,1,1,1,807
3408,6,1,208,10,0,0,1,483
3409,6,1,209,2,0,0,1,665
3410,6,1,210,20,1,1,1,526
3411,6,1,211,20,1,1,1,635
3412,6,1,212,10,0,0,1,950
3413,6,1,213,2,1,1,1,474
3414,6,1,214,10,1,1,1,701
3415,6,1,215,2,1,1,1,534
3416,6,1,216,2,1,1,1,661
3417,6,1,217,5,1,1,1,563
3418,6,1,218,32,0,0,1,769
3419,6,1,219,2,1,1,1,584
3420,6,1,220,2,0,0,1,657
3421,6,1,221,2,0,0,1,599
3422,6,1,222,32,0,0,1,639
3423,6,1,223,2,1,1,1,851
3424,6,1,224,2,0,0,1,816
3425,6,1,225,5,0,0,1,607
3426,6,1,226,5,1,1,1,1009
3427,6,1,227,20,0,0,1,633
3428,6,1,228,32,1,1,1,730
3429,6,1,229,10,0,0,1,708
3430,6,1,230,5,1,1,1,477
3431,6,1,231,2,1,1,1,611
3432,6,1,232,20,0,0,1,599
3433,6,1,233,32,0,0,1,732
3434,6,1,234,10,1,1,1,638
3435,6,1,235,20,0,0,1,530
3436,6,1,236,2,0,0,1,944
3437,6,1,237,20,1,1,1,768
3438,6,1,238,2,1,1,1,561
3439,6,1,239,10,1,1,1,783
3440,6,1,240,1,0,0,1,516
3441,6,1,241,1,0,0,1,442
3442,6,1,242,32,0,0,1,562
3443,6,1,243,5,1,1,1,468
3444,6,1,244,1,0,0,1,497
3445,6,1,245,32,1,1,1,808
3446,6,1,246,1,1,1,1,518
3447,6,1,247,5,1,1,1,515
3448,6,1,248,10,0,0,1,581
3449,6,1,249,5,0,0,1,669
3450,6,1,250,10,1,1,1,568
3451,6,1,251,2,0,0,1,686
3452,6,1,252,2,1,1,1,714
3453,6,1,253,20,1,1,1,536
3454,6,1,254,5,1,1,1,652
3455,6,1,255,32,1,1,1,1043
3456,6,1,256,5,0,0,1,551
3457,6,1,257,5,1,1,1,936
3458,6,1,258,10,0,0,1,477
3459,6,1,259,2,1,1,1,633
3460,6,1,260,32,1,1,1,542
3461,6,1,261,20,1,1,1,762
3462,6,1,262,10,0,0,1,863
3463,6,1,263,2,0,0,1,646
3464,6,1,264,32,1,1,1,639
3465,6,1,265,10,0,0,1,924
3466,6,1,266,2,1,1,1,895
3467,6,1,267,1,0,0,1,436
3468,6,1,268,20,1,1,1,483
3469,6,1,269,5,1,1,1,655
3470,6,1,270,20,0,0,1,692
3471,6,1,271,10,1,1,1,528
3472,6,1,272,10,0,0,1,727
3473,6,1,273,20,1,1,1,690
3474,6,1,274,20,0,0,1,518
3475,6,1,275,5,0,0,1,614
3476,6,1,276,20,0,0,1,550
3477,6,1,277,32,1,1,1,666
3478,6,1,278,32,1,1,1,618
3479,6,1,279,5,1,1,1,512
3480,6,1,280,2,0,0,1,868
3481,6,1,281,32,1,1,1,937
3482,6,1,282,32,0,0,1,820
3483,6,1,283,32,0,0,1,615
3484,6,1,284,1,1,1,1,598
3485,6,1,285,2,1,1,1,899
3486,6,1,286,2,1,1,1,653
3487,6,1,287,32,1,1,1,622
3488,6,1,288,5,0,0,1,541
3489,6,1,289,20,1,1,1,677
3490,6,1,290,5,0,0,1,554
3491,6,1,291,5,1,1,1,463
3492,6,1,292,20,0,0,1,472
3493,6,1,293,1,1,1,1,530
3494,6,1,294,10,1,1,1,553
3495,6,1,295,10,1,1,1,863
3496,6,1,296,32,0,0,1,775
3497,6,1,297,32,0,0,1,704
3498,6,1,298,20,0,0,1,676
3499,6,1,299,2,0,0,1,1145
3500,6,1,300,5,0,0,1,522
3501,6,1,301,20,1,1,1,602
3502,6,1,302,1,1,1,1,569
3503,6,1,303,32,0,0,1,551
3504,6,1,304,10,1,1,1,479
3505,6,1,305,5,0,0,1,619
3506,6,1,306,32,0,0,1,694
3507,6,1,307,5,0,0,1,624
3508,6,1,308,10,1,1,1,487
3509,6,1,309,20,1,1,1,757
3510,6,1,310,1,0,0,1,958
3511,6,1,311,1,0,0,0,768
3512,6,1,312,32,0,0,1,558
3513,6,1,313,10,1,1,1,501
3514,6,1,314,1,1,1,1,438
3515,6,1,315,1,1,1,1,478
3516,6,1,316,32,1,1,1,629
3517,6,1,317,32,1,1,1,518
3518,6,1,318,5,1,1,1,487
3519,6,1,319,5,0,0,1,486
3520,6,1,320,20,0,0,1,648
3521,6,1,321,5,1,1,1,608
3522,6,1,322,20,1,1,1,634
3523,6,1,323,32,0,0,1,525
3524,6,1,324,32,1,1,1,595
3525,6,1,325,32,1,1,1,437
3526,6,1,326,32,1,1,1,524
3527,6,1,327,20,0,0,1,517
3528,6,1,328,5,0,0,1,660
3529,6,1,329,2,0,0,1,511
3530,6,1,330,5,1,1,1,600
3531,6,1,331,2,0,0,1,411
3532,6,1,332,2,0,0,1,555
3533,6,1,333,10,0,0,1,720
3534,6,1,334,32,0,0,1,528
3535,6,1,335,10,1,1,1,609
3536,6,1,336,5,1,1,1,516
3537,6,1,337,5,0,0,1,863
3538,6,1,338,2,0,0,1,464
3539,6,1,339,32,1,1,1,497
3540,6,1,340,2,1,1,1,588
3541,6,1,341,10,0,0,1,648
3542,6,1,342,2,0,0,1,701
3543,6,1,343,5,1,1,1,643
3544,6,1,344,32,0,0,1,683
3545,6,1,345,20,1,1,1,1034
3546,6,1,346,5,0,0,1,806
3547,6,1,347,32,1,1,1,1192
3548,6,1,348,32,0,0,1,1318
3549,6,1,349,20,0,0,1,744
3550,6,1,350,20,0,0,1,527
3551,6,1,351,32,0,0,1,386
3552,6,1,352,2,1,1,1,1103
3553,6,1,353,5,1,1,1,676
3554,6,1,354,2,1,1,1,707
3555,6,1,355,5,1,1,1,676
3556,6,1,356,20,1,1,1,522
3557,6,1,357,5,1,1,1,646
3558,6,1,358,5,1,1,1,674
3559,6,1,359,10,1,1,1,534
3560,6,1,360,20,0,0,1,702
3561,6,1,361,10,0,0,1,536
3562,6,1,362,5,0,0,1,606
3563,6,1,363,2,0,0,1,514
3564,6,1,364,10,1,1,1,468
3565,6,1,365,32,0,0,1,602
3566,6,1,366,32,0,0,1,531
3567,6,1,367,5,0,0,1,996
3568,6,1,368,10,1,1,1,635
3569,6,1,369,10,1,1,1,525
3570,6,1,370,5,0,0,1,356
3571,6,1,371,5,1,1,1,582
3572,6,1,372,5,0,0,1,493
3573,6,1,373,1,0,0,1,714
3574,6,1,374,2,1,1,1,551
3575,6,1,375,2,1,1,1,645
3576,6,1,376,10,0,0,1,666
3577,6,1,377,2,0,0,1,685
3578,6,1,378,5,1,1,1,487
3579,6,1,379,32,1,1,1,504
3580,6,1,380,32,1,1,1,524
3581,6,1,381,5,1,1,1,477
3582,6,1,382,10,0,0,1,693
3583,6,1,383,32,0,0,1,635
3584,6,1,384,32,1,1,1,596
3585,6,1,385,32,0,0,1,601
3586,6,1,386,20,0,0,1,762
3587,6,1,387,32,0,0,1,537
3588,6,1,388,10,0,0,1,654
3589,6,1,389,32,1,1,1,727
3590,6,1,390,5,1,1,1,592
3591,6,1,391,2,1,1,1,697
3592,6,1,392,32,1,1,1,528
3593,6,1,393,32,0,0,1,669
3594,6,1,394,2,0,0,1,545
3595,6,1,395,5,1,1,1,662
3596,6,1,396,20,0,0,1,573
3597,6,1,397,20,1,1,1,643
3598,6,1,398,2,1,1,1,534
3599,6,1,399,20,0,0,1,465
3600,6,1,400,5,1,1,1,508
3601,6,1,401,5,1,1,1,457
3602,6,1,402,20,1,1,1,612
3603,6,1,403,5,0,0,1,564
3604,6,1,404,32,0,0,1,526
3605,6,1,405,5,1,1,1,516
3606,6,1,406,32,1,1,1,649
3607,6,1,407,5,1,1,1,697
3608,6,1,408,5,1,1,1,394
3609,6,1,409,2,1,1,1,459
3610,6,1,410,2,0,0,1,635
3611,6,1,411,5,0,0,1,501
3612,6,1,412,32,1,1,1,1070
3613,6,1,413,2,1,1,1,572
3614,6,1,414,5,1,1,1,683
3615,6,1,415,32,1,1,1,1117
3616,6,1,416,5,1,1,1,410
3617,6,1,417,10,0,0,1,561
3618,6,1,418,10,0,0,1,520
3619,6,1,419,20,0,0,1,669
3620,6,1,420,5,0,0,1,620
3621,6,1,421,5,1,1,1,906
3622,6,1,422,5,1,1,1,673
3623,6,1,423,32,1,1,1,516
3624,6,1,424,10,1,1,1,576
3625,6,1,425,5,1,1,1,659
3626,6,1,426,10,1,1,1,737
3627,6,1,427,5,0,0,1,522
3628,6,1,428,5,0,0,1,873
3629,6,1,429,10,1,1,1,680
3630,6,1,430,10,0,0,1,497
3631,6,1,431,2,0,0,1,571
3632,6,1,432,2,0,0,1,696
3633,6,1,433,32,1,1,1,634
3634,6,1,434,2,1,1,1,675
3635,6,1,435,10,0,0,1,659
3636,6,1,436,2,0,0,1,1229
3637,6,1,437,32,1,1,1,617
3638,6,1,438,20,0,0,1,1089
3639,6,1,439,1,0,0,1,424
3640,6,1,440,20,0,0,1,447
3641,6,1,441,32,0,0,1,531
3642,6,1,442,10,0,0,1,503
3643,6,1,443,32,1,1,1,614
3644,6,1,444,32,0,0,1,526
3645,6,1,445,1,0,0,1,404
3646,6,1,446,32,1,1,1,751
3647,6,1,447,5,0,0,1,621
3648,6,1,448,10,1,1,1,451
3649,6,1,449,5,0,0,1,430
3650,6,1,450,20,0,0,1,505
3651,6,1,451,10,0,0,1,862
3652,6,1,452,1,0,0,1,524
3653,6,1,453,10,0,0,1,585
3654,6,1,454,5,1,1,1,522
3655,6,1,455,2,0,0,1,498
3656,6,1,456,5,1,1,1,585
3657,6,1,457,10,0,0,1,547
3658,6,1,458,5,0,0,1,812
3659,6,1,459,2,1,1,1,649
3660,6,1,460,5,0,0,1,641
3661,6,1,461,1,0,0,1,561
3662,6,1,462,10,1,1,1,504
3663,6,1,463,20,0,0,1,642
3664,6,1,464,32,1,1,1,555
3665,6,1,465,20,0,0,1,837
3666,6,1,466,32,0,0,1,913
3667,6,1,467,5,1,1,1,1195
3668,6,1,468,20,0,0,1,1226
3669,6,1,469,20,1,1,1,1192
3670,6,1,470,5,0,0,1,619
3671,6,1,471,20,0,0,1,587
3672,6,1,472,10,0,0,1,593
3673,6,1,473,5,1,1,1,637
3674,6,1,474,10,0,0,1,407
3675,6,1,475,10,0,0,1,561
3676,6,1,476,10,1,1,1,935
3677,6,1,477,10,0,0,1,507
3678,6,1,478,2,0,0,1,475
3679,6,1,479,32,0,0,1,471
3680,6,1,480,20,1,1,1,1073
3681,6,1,481,10,0,0,1,499
3682,6,1,482,5,0,0,1,683
3683,6,1,483,32,1,1,1,647
3684,6,1,484,5,1,1,1,674
3685,6,1,485,2,1,1,1,551
3686,6,1,486,32,0,0,1,475
3687,6,1,487,20,0,0,1,701
3688,6,1,488,1,0,0,1,556
3689,6,1,489,10,1,1,1,612
3690,6,1,490,2,1,1,1,707
3691,6,1,491,20,0,0,1,617
3692,6,1,492,20,1,1,1,844
3693,6,1,493,2,0,0,1,918
3694,6,1,494,2,0,0,1,480
3695,6,1,495,1,1,1,1,498
3696,6,1,496,10,1,1,1,598
3697,6,1,497,20,0,0,1,1002
3698,6,1,498,20,1,1,1,1013
3699,6,1,499,2,0,0,1,487
3700,6,1,500,10,1,1,1,620
3701,6,1,501,10,1,1,1,720
3702,6,1,502,10,0,0,1,680
3703,6,1,503,10,0,3,0,122
3704,6,1,504,5,1,1,1,570
3705,6,1,505,32,1,1,1,593
3706,6,1,506,2,0,0,1,493
3707,6,1,507,20,1,1,1,509
3708,6,1,508,10,0,0,1,640
3709,6,1,509,20,0,0,1,641
3710,6,1,510,2,1,1,1,699
3711,6,1,511,5,0,0,1,685
3712,6,1,512,5,1,1,1,829
3713,6,1,513,10,1,1,1,683
3714,6,1,514,2,0,0,1,505
3715,6,1,515,32,1,1,1,590
3716,6,1,516,32,0,0,1,633
3717,6,1,517,10,0,0,1,590
3718,6,1,518,10,0,0,1,831
3719,6,1,519,20,0,0,1,597
3720,6,1,520,1,1,1,1,644
3721,6,1,521,10,1,1,1,605
3722,6,1,522,5,1,1,1,635
3723,6,1,523,2,0,0,1,529
3724,6,1,524,32,1,1,1,702
3725,6,1,525,2,1,1,1,538
3726,6,1,526,20,1,1,1,578
3727,6,1,527,32,0,0,1,677
3728,6,1,528,20,0,0,1,749
3729,6,1,529,10,0,0,1,651
3730,6,1,530,5,1,1,1,566
3731,6,1,531,32,0,0,1,659
3732,6,1,532,2,0,0,1,739
3733,6,1,533,10,1,1,1,501
3734,6,1,534,10,0,0,1,543
3735,6,1,535,20,1,1,1,623
3736,6,1,536,2,0,0,1,501
3737,6,1,537,20,1,1,1,501
3738,6,1,538,32,0,0,1,569
3739,6,1,539,32,0,0,1,505
3740,6,1,540,5,0,0,1,589
3741,6,1,541,1,1,1,1,499
3742,6,1,542,20,0,0,1,601
3743,6,1,543,2,0,0,1,597
3744,6,1,544,32,1,1,1,535
3745,6,1,545,5,1,1,1,645
3746,6,1,546,5,1,1,1,563
3747,6,1,547,20,1,1,1,542
3748,6,1,548,5,0,0,1,925
3749,6,1,549,10,0,0,1,705
3750,6,1,550,20,0,0,1,806
3751,6,1,551,32,1,1,1,1016
3752,6,1,552,10,0,0,1,569
3753,6,1,553,10,1,1,1,570
3754,6,1,554,2,0,0,1,492
3755,6,1,555,5,0,0,1,1036
3756,6,1,556,20,0,0,1,709
3757,6,1,557,5,1,1,1,1256
3758,6,1,558,32,0,0,1,611
3759,6,1,559,20,0,0,1,613
3760,6,1,560,20,1,1,1,607
3761,6,1,561,5,1,1,1,605
3762,6,1,562,10,1,1,1,631
3763,6,1,563,1,0,0,1,554
3764,6,1,564,2,0,0,1,489
3765,6,1,565,2,0,0,0,396
3766,6,1,566,1,1,1,1,634
3767,6,1,567,2,1,1,1,647
3768,6,1,568,2,1,1,1,562
3769,6,1,569,20,0,0,1,624
3770,6,1,570,2,0,0,1,502
3771,6,1,571,2,0,0,0,488
3772,6,1,572,10,0,0,1,37
3773,6,1,573,1,0,0,1,665
3774,6,1,574,20,1,1,1,575
3775,6,1,575,20,1,1,1,718
3776,6,1,576,32,0,0,1,560
3777,6,1,577,2,1,1,1,537
3778,6,1,578,5,0,0,1,614
3779,6,1,579,20,1,1,1,611
3780,6,1,580,10,1,1,1,507
3781,6,1,581,20,1,1,1,612
3782,6,1,582,20,0,0,1,614
3783,6,1,583,32,1,1,1,922
3784,6,1,584,20,1,1,1,574
3785,6,1,585,1,1,1,1,563
3786,6,1,586,32,1,1,1,616
3787,6,1,587,2,1,1,1,527
3788,6,1,588,20,0,0,1,836
3789,6,1,589,2,1,1,1,968
3790,6,1,590,2,1,1,1,466
3791,6,1,591,10,0,0,1,546
3792,6,1,592,20,0,0,1,597
3793,6,1,593,10,1,1,1,571
3794,6,1,594,10,0,0,1,483
3795,6,1,595,10,1,1,1,479
3796,6,1,596,32,1,1,1,542
3797,6,1,597,5,0,0,1,1571
3798,6,1,598,32,0,0,1,517
3799,6,1,599,2,1,1,1,451
3800,6,1,600,10,0,0,1,526
3801,6,1,601,5,1,1,1,1945
3802,6,1,602,32,0,0,1,756
3803,6,1,603,2,0,0,1,585
3804,6,1,604,20,0,0,1,385
3805,6,1,605,20,1,1,1,500
3806,6,1,606,10,1,1,1,481
3807,6,1,607,1,1,1,1,601
3808,6,1,608,20,0,0,1,532
3809,6,1,609,1,0,0,1,508
3810,6,1,610,10,1,1,1,849
3811,6,1,611,1,1,1,1,357
3812,6,1,612,2,1,1,1,515
3813,6,1,613,5,0,0,1,453
3814,6,1,614,20,0,0,1,466
3815,6,1,615,10,1,1,1,572
3816,6,1,616,10,1,1,1,510
3817,6,1,617,32,0,0,1,500
3818,6,1,618,32,0,0,1,634
3819,6,1,619,5,0,0,1,1060
3820,6,1,620,5,1,1,1,1798
3821,6,1,621,20,1,1,1,636
3822,6,1,622,2,0,0,1,1423
3823,6,1,623,2,0,0,1,912
3824,6,1,624,20,1,1,1,470
3825,6,1,625,20,1,1,1,508
3826,6,1,626,5,0,0,1,446
3827,6,1,627,2,1,1,1,605
3828,6,1,628,5,0,0,1,652
3829,6,1,629,2,1,1,1,576
3830,6,1,630,1,1,1,1,528
3831,6,1,631,10,1,1,1,518
3832,6,1,632,1,0,0,1,508
3833,6,1,633,20,0,0,1,1063
3834,6,1,634,2,1,1,1,624
3835,6,1,635,10,0,3,0,4991
3836,6,1,636,20,1,1,1,645
3837,6,1,637,20,0,0,1,1292
3838,6,1,638,20,1,1,1,1166
3839,6,1,639,2,1,1,1,998
3840,6,1,640,32,1,1,1,1461
3841,7,1,1,32,1,1,1,732
3842,7,1,2,1,1,1,1,503
3843,7,1,3,1,1,1,1,325
3844,7,1,4,10,1,1,1,498
3845,7,1,5,5,1,1,1,397
3846,7,1,6,32,1,1,1,397
3847,7,1,7,1,1,1,1,351
3848,7,1,8,10,0,0,1,346
3849,7,1,9,5,1,1,1,652
3850,7,1,10,5,1,1,1,503
3851,7,1,11,5,1,1,1,406
3852,7,1,12,20,0,0,1,500
3853,7,1,13,10,1,1,1,562
3854,7,1,14,20,0,0,1,447
3855,7,1,15,2,1,1,1,488
3856,7,1,16,2,1,1,1,649
3857,7,1,17,5,1,1,1,396
3858,7,1,18,32,0,0,1,475
3859,7,1,19,1,1,1,1,418
3860,7,1,20,20,1,1,1,655
3861,7,1,21,2,1,1,1,377
3862,7,1,22,2,0,0,1,438
3863,7,1,23,20,0,0,1,452
3864,7,1,24,5,1,1,1,395
3865,7,1,25,5,1,1,1,568
3866,7,1,26,5,1,1,1,766
3867,7,1,27,2,0,0,1,320
3868,7,1,28,2,0,0,1,570
3869,7,1,29,2,1,1,1,363
3870,7,1,30,32,1,1,1,394
3871,7,1,31,10,1,1,1,375
3872,7,1,32,2,1,1,1,431
3873,7,1,33,5,0,0,1,349
3874,7,1,34,10,1,1,1,341
3875,7,1,35,20,1,1,1,453
3876,7,1,36,1,0,0,1,331
3877,7,1,37,2,0,0,1,324
3878,7,1,38,32,0,0,1,363
3879,7,1,39,10,0,0,1,364
3880,7,1,40,20,1,1,1,372
3881,7,1,41,10,1,1,1,376
3882,7,1,42,1,1,1,1,432
3883,7,1,43,32,0,0,1,411
3884,7,1,44,2,1,1,1,466
3885,7,1,45,32,1,1,1,417
3886,7,1,46,5,1,1,1,379
3887,7,1,47,5,0,0,1,440
3888,7,1,48,32,1,1,1,416
3889,7,1,49,10,0,0,1,368
3890,7,1,50,5,0,0,1,522
3891,7,1,51,1,0,0,1,359
3892,7,1,52,5,0,0,1,335
3893,7,1,53,20,1,1,1,320
3894,7,1,54,20,0,0,1,374
3895,7,1,55,5,1,1,1,470
3896,7,1,56,20,1,1,1,549
3897,7,1,57,5,0,0,1,318
3898,7,1,58,20,1,1,1,341
3899,7,1,59,5,1,1,1,358
3900,7,1,60,5,1,1,1,392
3901,7,1,61,5,0,0,1,306
3902,7,1,62,10,1,1,1,333
3903,7,1,63,20,0,0,1,428
3904,7,1,64,20,1,1,1,393
3905,7,1,65,32,1,1,1,521
3906,7,1,66,2,1,1,1,334
3907,7,1,67,5,1,1,1,315
3908,7,1,68,10,0,0,1,347
3909,7,1,69,20,1,1,1,356
3910,7,1,70,1,0,0,1,450
3911,7,1,71,10,0,0,1,403
3912,7,1,72,1,1,1,1,319
3913,7,1,73,10,1,1,1,434
3914,7,1,74,10,1,1,1,492
3915,7,1,75,10,1,1,1,505
3916,7,1,76,10,1,1,1,342
3917,7,1,77,5,0,0,1,442
3918,7,1,78,32,1,1,1,383
3919,7,1,79,32,1,1,1,501
3920,7,1,80,10,1,1,1,381
3921,7,1,81,2,1,1,1,357
3922,7,1,82,32,0,0,1,379
3923,7,1,83,10,0,0,1,319
3924,7,1,84,2,0,0,1,470
3925,7,1,85,32,0,0,1,482
3926,7,1,86,32,0,0,1,391
3927,7,1,87,10,0,0,1,454
3928,7,1,88,10,1,1,1,516
3929,7,1,89,5,0,0,1,375
3930,7,1,90,10,0,0,1,321
3931,7,1,91,2,0,0,1,340
3932,7,1,92,20,0,0,1,451
3933,7,1,93,10,0,0,1,516
3934,7,1,94,5,0,0,1,511
3935,7,1,95,5,0,0,1,364
3936,7,1,96,2,1,1,1,365
3937,7,1,97,2,1,1,1,326
3938,7,1,98,20,0,0,1,430
3939,7,1,99,5,0,0,1,320
3940,7,1,100,5,0,0,1,363
3941,7,1,101,20,0,0,1,316
3942,7,1,102,20,1,1,1,402
3943,7,1,103,2,0,0,1,362
3944,7,1,104,10,0,0,1,375
3945,7,1,105,20,1,1,1,404
3946,7,1,106,2,0,0,1,368
3947,7,1,107,5,0,0,1,328
3948,7,1,108,2,0,0,1,367
3949,7,1,109,32,0,0,1,392
3950,7,1,110,5,1,1,1,308
3951,7,1,111,1,1,1,1,353
3952,7,1,112,20,1,1,1,348
3953,7,1,113,10,0,0,1,386
3954,7,1,114,2,1,1,1,393
3955,7,1,115,5,1,1,1,344
3956,7,1,116,32,1,1,1,471
3957,7,1,117,20,1,1,1,386
3958,7,1,118,5,0,0,1,420
3959,7,1,119,10,0,0,1,373
3960,7,1,120,5,0,0,0,364
3961,7,1,121,20,0,0,1,444
3962,7,1,122,32,0,0,1,528
3963,7,1,123,5,0,0,1,395
3964,7,1,124,5,1,1,1,597
3965,7,1,125,20,0,0,1,504
3966,7,1,126,20,0,0,1,640
3967,7,1,127,1,0,0,1,409
3968,7,1,128,1,0,0,1,432
3969,7,1,129,5,0,0,1,399
3970,7,1,130,5,0,0,1,408
3971,7,1,131,5,0,0,1,391
3972,7,1,132,32,1,1,1,375
3973,7,1,133,32,1,1,1,529
3974,7,1,134,32,0,0,1,379
3975,7,1,135,20,0,0,1,385
3976,7,1,136,32,0,0,1,506
3977,7,1,137,20,1,1,1,464
3978,7,1,138,10,1,1,1,469
3979,7,1,139,5,0,0,1,456
