trial_id,Subject,block_n,Trial,set_size,correctResponse,resp,acc,RT
1,1,1,1,5,0,0,1,447
2,1,1,2,1,0,0,0,273
3,1,1,3,5,0,0,1,383
4,1,1,4,10,0,0,1,326
5,1,1,5,20,1,1,1,382
6,1,1,6,10,0,0,1,301
7,1,1,7,32,1,1,0,300
8,1,1,8,20,1,1,1,660
9,1,1,9,32,0,0,1,488
10,1,1,10,20,1,1,1,432
11,1,1,11,2,1,1,1,630
12,1,1,12,10,1,1,1,727
13,1,1,13,10,0,0,1,449
14,1,1,14,20,0,0,1,484
15,1,1,15,2,0,0,1,442
16,1,1,16,32,1,1,1,510
17,1,1,17,32,1,1,1,495
18,1,1,18,20,0,0,1,550
19,1,1,19,10,1,1,1,463
20,1,1,20,20,0,0,1,485
21,1,1,21,32,1,1,1,471
22,1,1,22,2,1,1,1,396
23,1,1,23,20,1,1,1,410
24,1,1,24,2,1,1,1,428
25,1,1,25,1,0,0,1,454
26,1,1,26,10,1,1,1,496
27,1,1,27,32,0,0,1,455
28,1,1,28,20,0,0,1,511
29,1,1,29,20,0,0,1,456
30,1,1,30,5,1,1,1,554
31,1,1,31,20,0,0,1,592
32,1,1,32,2,1,1,1,693
33,1,1,33,10,1,1,1,809
34,1,1,34,1,0,0,1,672
35,1,1,35,10,1,1,1,582
36,1,1,36,32,1,1,1,587
37,1,1,37,10,1,1,1,505
38,1,1,38,2,1,1,1,562
39,1,1,39,20,0,0,1,673
40,1,1,40,2,0,0,1,469
41,1,1,41,32,0,0,1,1141
42,1,1,42,5,1,1,1,579
43,1,1,43,20,0,0,1,480
44,1,1,44,5,0,0,1,338
45,1,1,45,20,1,1,0,331
46,1,1,46,20,1,1,1,504
47,1,1,47,20,0,0,1,429
48,1,1,48,5,0,0,1,495
49,1,1,49,20,1,1,1,521
50,1,1,50,32,1,1,1,447
51,1,1,51,5,1,1,1,549
52,1,1,52,1,1,1,1,640
53,1,1,53,5,1,1,1,469
54,1,1,54,32,0,0,1,531
55,1,1,55,10,0,0,1,920
56,1,1,56,2,1,1,1,584
57,1,1,57,10,0,0,1,408
58,1,1,58,32,0,0,1,476
59,1,1,59,1,0,0,1,480
60,1,1,60,32,0,0,1,799
61,1,1,61,20,1,1,1,384
62,1,1,62,20,1,1,1,444
63,1,1,63,32,0,0,1,495
64,1,1,64,32,0,0,1,629
65,1,1,65,5,1,1,1,450
66,1,1,66,32,1,1,1,691
67,1,1,67,2,1,1,1,414
68,1,1,68,32,1,1,1,385
69,1,1,69,5,1,1,1,621
70,1,1,70,5,1,1,1,544
71,1,1,71,10,1,1,1,500
72,1,1,72,32,1,1,1,448
73,1,1,73,1,1,1,1,454
74,1,1,74,5,0,0,1,1108
75,1,1,75,2,0,0,1,463
76,1,1,76,20,1,1,1,343
77,1,1,77,32,1,1,1,434
78,1,1,78,2,1,1,1,531
79,1,1,79,20,1,1,1,459
80,1,1,80,5,0,0,1,407
81,1,1,81,10,0,0,1,584
82,1,1,82,5,0,0,1,394
83,1,1,83,20,1,1,1,491
84,1,1,84,20,0,0,1,524
85,1,1,85,1,0,0,1,521
86,1,1,86,2,0,0,1,503
87,1,1,87,20,0,0,1,459
88,1,1,88,32,0,0,1,580
89,1,1,89,2,0,0,1,431
90,1,1,90,1,0,0,1,387
91,1,1,91,2,1,1,1,399
92,1,1,92,20,0,0,1,486
93,1,1,93,20,1,1,1,459
94,1,1,94,1,0,0,1,790
95,1,1,95,20,0,0,1,644
96,1,1,96,5,0,0,1,571
97,1,1,97,32,0,0,1,478
98,1,1,98,32,1,1,1,524
99,1,1,99,10,0,0,1,459
100,1,1,100,10,0,0,1,593
101,1,1,101,20,0,0,1,508
102,1,1,102,20,1,1,1,801
103,1,1,103,5,1,1,1,485
104,1,1,104,20,1,1,1,532
105,1,1,105,5,1,1,1,469
106,1,1,106,5,1,1,1,538
107,1,1,107,5,0,0,1,565
108,1,1,108,32,0,0,1,518
109,1,1,109,5,0,0,1,688
110,1,1,110,10,0,0,1,504
111,1,1,111,10,1,1,1,422
112,1,1,112,20,1,1,1,405
113,1,1,113,32,0,0,1,468
114,1,1,114,5,1,1,1,470
115,1,1,115,10,1,1,1,424
116,1,1,116,20,0,0,1,875
117,1,1,117,2,0,0,1,444
118,1,1,118,5,0,0,1,448
119,1,1,119,32,1,1,1,511
120,1,1,120,20,0,0,1,370
121,1,1,121,32,0,0,1,745
122,1,1,122,20,0,0,1,360
123,1,1,123,5,1,1,1,390
124,1,1,124,5,1,1,1,471
125,1,1,125,5,0,0,1,488
126,1,1,126,32,1,1,1,510
127,1,1,127,10,0,0,1,349
128,1,1,128,2,0,0,1,519
129,1,1,129,10,1,1,1,541
130,1,1,130,32,0,0,1,555
131,1,1,131,5,1,1,1,429
132,1,1,132,1,1,1,1,485
133,1,1,133,10,1,1,1,525
134,1,1,134,10,1,1,1,551
135,1,1,135,32,0,0,1,457
136,1,1,136,32,1,1,1,585
137,1,1,137,20,1,1,1,527
138,1,1,138,32,1,1,1,438
139,1,1,139,2,1,1,1,514
140,1,1,140,10,0,0,1,515
141,1,1,141,32,0,0,1,667
142,1,1,142,5,0,0,1,598
143,1,1,143,10,0,0,1,688
144,1,1,144,32,1,1,1,482
145,1,1,145,20,0,0,1,530
146,1,1,146,20,0,0,1,405
147,1,1,147,20,0,0,1,400
148,1,1,148,20,1,1,1,619
149,1,1,149,10,1,1,1,711
150,1,1,150,10,1,1,1,577
151,1,1,151,32,0,0,1,535
152,1,1,152,32,0,0,1,370
153,1,1,153,10,1,1,1,449
154,1,1,154,2,1,1,1,442
155,1,1,155,32,0,0,1,362
156,1,1,156,1,0,0,1,337
157,1,1,157,20,1,1,1,442
158,1,1,158,32,1,1,1,445
159,1,1,159,32,1,1,0,332
160,1,1,160,2,0,0,1,616
161,1,1,161,32,1,1,1,890
162,1,1,162,20,0,0,1,432
163,1,1,163,5,1,1,1,376
164,1,1,164,1,1,1,1,329
165,1,1,165,2,1,1,1,476
166,1,1,166,5,0,0,1,480
167,1,1,167,2,0,0,1,384
168,1,1,168,10,1,1,1,367
169,1,1,169,5,1,1,1,369
170,1,1,170,5,0,0,1,383
171,1,1,171,2,0,0,1,590
172,1,1,172,5,0,0,1,518
173,1,1,173,10,0,0,1,385
174,1,1,174,2,1,1,1,557
175,1,1,175,2,1,1,1,422
176,1,1,176,10,0,0,1,882
177,1,1,177,5,0,0,1,476
178,1,1,178,32,1,1,1,660
179,1,1,179,2,0,0,1,394
180,1,1,180,5,0,0,1,519
181,1,1,181,10,1,1,0,409
182,1,1,182,5,0,0,1,612
183,1,1,183,5,0,0,1,492
184,1,1,184,32,1,1,1,612
185,1,1,185,20,0,0,1,722
186,1,1,186,5,0,0,1,582
187,1,1,187,32,0,0,1,635
188,1,1,188,5,0,0,1,376
189,1,1,189,20,1,1,1,536
190,1,1,190,5,1,1,1,926
191,1,1,191,5,0,0,1,547
192,1,1,192,20,1,1,1,823
193,1,1,193,10,1,1,1,733
194,1,1,194,32,1,1,1,539
195,1,1,195,2,0,0,1,548
196,1,1,196,5,1,1,1,487
197,1,1,197,32,1,1,1,695
198,1,1,198,10,1,1,1,565
199,1,1,199,2,0,0,1,474
200,1,1,200,2,0,0,1,487
201,1,1,201,5,0,0,1,631
202,1,1,202,5,0,0,1,832
203,1,1,203,2,0,0,1,370
204,1,1,204,2,1,1,1,467
205,1,1,205,20,1,1,1,544
206,1,1,206,32,0,0,1,507
207,1,1,207,32,1,1,1,460
208,1,1,208,20,0,0,1,521
209,1,1,209,10,0,0,1,692
210,1,1,210,20,0,0,1,429
211,1,1,211,1,0,0,1,371
212,1,1,212,20,0,0,1,517
213,1,1,213,20,1,1,1,553
214,1,1,214,5,1,1,1,554
215,1,1,215,10,0,0,1,590
216,1,1,216,1,1,1,1,389
217,1,1,217,10,0,0,1,454
218,1,1,218,2,0,0,1,503
219,1,1,219,2,0,0,1,365
220,1,1,220,32,0,0,1,599
221,1,1,221,20,1,1,1,495
222,1,1,222,5,0,0,1,520
223,1,1,223,2,1,1,1,1389
224,1,1,224,20,0,0,1,449
225,1,1,225,20,0,0,1,484
226,1,1,226,10,1,1,1,512
227,1,1,227,20,1,1,1,724
228,1,1,228,32,0,0,1,609
229,1,1,229,32,0,0,1,703
230,1,1,230,2,0,0,1,423
231,1,1,231,2,1,1,1,714
232,1,1,232,32,1,1,1,1066
233,1,1,233,20,0,0,1,673
234,1,1,234,5,1,1,1,601
235,1,1,235,2,1,1,1,592
236,1,1,236,10,0,0,1,471
237,1,1,237,32,1,1,1,437
238,1,1,238,10,0,0,1,440
239,1,1,239,20,0,0,1,446
240,1,1,240,2,0,0,1,402
241,1,1,241,10,0,0,1,650
242,1,1,242,5,0,0,1,369
243,1,1,243,1,1,1,1,523
244,1,1,244,20,1,1,1,493
245,1,1,245,1,0,0,1,531
246,1,1,246,5,0,0,1,461
247,1,1,247,32,0,0,1,486
248,1,1,248,10,1,1,1,649
249,1,1,249,10,0,0,1,586
250,1,1,250,1,1,1,1,446
251,1,1,251,20,1,1,1,575
252,1,1,252,10,1,1,1,533
253,1,1,253,5,0,0,1,644
254,1,1,254,32,0,0,1,418
255,1,1,255,32,0,0,1,374
256,1,1,256,20,0,0,1,535
257,1,1,257,10,1,1,1,462
258,1,1,258,10,1,1,1,552
259,1,1,259,2,1,1,1,454
260,1,1,260,32,0,0,1,685
261,1,1,261,2,0,0,1,483
262,1,1,262,5,0,0,1,508
263,1,1,263,10,1,1,1,598
264,1,1,264,32,0,0,1,405
265,1,1,265,10,0,0,1,420
266,1,1,266,10,0,0,1,478
267,1,1,267,5,0,0,1,438
268,1,1,268,32,0,0,1,1025
269,1,1,269,10,1,1,1,1030
270,1,1,270,5,0,0,1,446
271,1,1,271,20,0,0,1,471
272,1,1,272,10,1,1,1,601
273,1,1,273,20,1,1,1,554
274,1,1,274,10,1,1,1,495
275,1,1,275,1,0,0,1,435
276,1,1,276,1,0,0,1,379
277,1,1,277,10,0,0,1,433
278,1,1,278,20,0,0,1,377
279,1,1,279,20,0,0,1,440
280,1,1,280,2,1,1,1,479
281,1,1,281,32,1,1,1,429
282,1,1,282,32,0,0,1,476
283,1,1,283,2,0,0,1,350
284,1,1,284,5,1,1,1,372
285,1,1,285,20,1,1,1,403
286,1,1,286,1,1,1,1,361
287,1,1,287,1,1,1,1,516
288,1,1,288,2,1,1,1,512
289,1,1,289,20,1,1,1,355
290,1,1,290,10,0,0,1,458
291,1,1,291,2,1,1,1,495
292,1,1,292,5,1,1,1,751
293,1,1,293,10,0,0,1,489
294,1,1,294,2,0,0,1,522
295,1,1,295,32,0,0,1,424
296,1,1,296,2,1,1,1,744
297,1,1,297,32,1,1,1,494
298,1,1,298,10,0,0,1,776
299,1,1,299,10,0,0,1,728
300,1,1,300,1,1,1,1,561
301,1,1,301,20,0,0,1,615
302,1,1,302,2,1,1,1,475
303,1,1,303,5,1,1,1,479
304,1,1,304,20,0,0,1,466
305,1,1,305,32,1,1,0,377
306,1,1,306,2,0,0,1,529
307,1,1,307,32,1,1,1,649
308,1,1,308,2,1,1,1,370
309,1,1,309,5,1,1,1,637
310,1,1,310,20,0,0,1,873
311,1,1,311,20,1,1,1,778
312,1,1,312,2,0,0,1,581
313,1,1,313,1,0,0,1,534
314,1,1,314,5,1,1,1,530
315,1,1,315,20,1,1,1,509
316,1,1,316,10,1,1,1,628
317,1,1,317,2,1,1,1,567
318,1,1,318,5,1,1,1,449
319,1,1,319,20,0,0,1,451
320,1,1,320,10,1,1,1,493
321,1,1,321,5,1,1,1,799
322,1,1,322,2,0,0,1,377
323,1,1,323,5,1,1,1,431
324,1,1,324,5,0,0,1,607
325,1,1,325,10,1,1,1,538
326,1,1,326,20,1,1,0,526
327,1,1,327,32,1,1,1,512
328,1,1,328,2,0,0,1,488
329,1,1,329,10,1,1,1,374
330,1,1,330,32,0,0,1,513
331,1,1,331,10,1,1,1,869
332,1,1,332,10,1,1,1,510
333,1,1,333,1,0,0,1,507
334,1,1,334,32,1,1,1,466
335,1,1,335,20,1,1,1,486
336,1,1,336,10,0,0,1,353
337,1,1,337,2,1,1,1,430
338,1,1,338,5,0,0,1,558
339,1,1,339,2,1,1,1,481
340,1,1,340,5,1,1,1,587
341,1,1,341,2,1,1,1,526
342,1,1,342,2,0,0,1,663
343,1,1,343,10,0,0,1,547
344,1,1,344,10,0,0,1,565
345,1,1,345,10,1,1,1,618
346,1,1,346,2,0,0,1,376
347,1,1,347,5,1,1,1,677
348,1,1,348,5,1,1,1,446
349,1,1,349,10,1,1,1,732
350,1,1,350,5,1,1,1,744
351,1,1,351,10,0,0,1,521
352,1,1,352,32,0,0,1,646
353,1,1,353,10,0,0,1,1077
354,1,1,354,10,1,1,1,556
355,1,1,355,5,1,1,1,462
356,1,1,356,5,1,1,1,355
357,1,1,357,32,0,0,1,446
358,1,1,358,20,0,0,1,371
359,1,1,359,2,0,0,1,330
360,1,1,360,5,0,0,1,341
361,1,1,361,2,0,0,1,445
362,1,1,362,5,0,0,1,365
363,1,1,363,5,1,1,1,569
364,1,1,364,32,0,0,1,506
365,1,1,365,20,1,1,1,593
366,1,1,366,20,1,1,1,516
367,1,1,367,32,0,0,1,363
368,1,1,368,10,0,0,1,342
369,1,1,369,10,0,0,1,485
370,1,1,370,5,1,1,1,406
371,1,1,371,2,1,1,1,369
372,1,1,372,32,0,0,1,347
373,1,1,373,10,1,1,1,458
374,1,1,374,2,0,0,1,462
375,1,1,375,20,1,1,1,650
376,1,1,376,5,0,0,1,606
377,1,1,377,10,0,0,1,454
378,1,1,378,32,0,0,0,378
379,1,1,379,20,0,0,1,403
380,1,1,380,10,1,1,1,637
381,1,1,381,5,1,1,1,396
382,1,1,382,32,0,0,1,473
383,1,1,383,2,1,1,1,522
384,1,1,384,20,1,1,1,820
385,1,1,385,5,1,1,1,625
386,1,1,386,20,1,1,1,672
387,1,1,387,5,1,1,1,529
388,1,1,388,32,1,1,1,545
389,1,1,389,2,1,1,1,567
390,1,1,390,20,1,1,1,439
391,1,1,391,10,0,0,1,529
392,1,1,392,1,1,1,1,457
393,1,1,393,2,1,1,1,887
394,1,1,394,1,0,0,1,366
395,1,1,395,2,0,0,1,501
396,1,1,396,10,0,0,1,537
397,1,1,397,5,0,0,1,381
398,1,1,398,10,1,1,1,842
399,1,1,399,5,1,1,1,730
400,1,1,400,2,0,0,1,522
401,1,1,401,10,0,0,1,1051
402,1,1,402,2,1,1,1,482
403,1,1,403,1,1,1,1,391
404,1,1,404,5,0,0,1,527
405,1,1,405,32,1,1,1,491
406,1,1,406,20,1,1,1,451
407,1,1,407,5,0,0,1,463
408,1,1,408,2,1,1,1,598
409,1,1,409,32,1,1,1,576
410,1,1,410,10,1,1,1,645
411,1,1,411,2,0,0,1,567
412,1,1,412,5,0,0,1,686
413,1,1,413,2,0,0,1,612
414,1,1,414,5,0,0,1,397
415,1,1,415,32,1,1,1,589
416,1,1,416,10,1,1,1,493
417,1,1,417,2,0,0,1,463
418,1,1,418,10,1,1,1,559
419,1,1,419,20,1,1,1,395
420,1,1,420,10,1,1,1,450
421,1,1,421,20,0,0,1,380
422,1,1,422,32,0,0,1,378
423,1,1,423,1,1,1,1,418
424,1,1,424,10,0,0,1,615
425,1,1,425,32,0,0,1,446
426,1,1,426,5,0,0,1,808
427,1,1,427,10,0,0,1,642
428,1,1,428,10,1,1,1,419
429,1,1,429,10,1,1,1,539
430,1,1,430,2,0,0,1,447
431,1,1,431,32,0,0,1,422
432,1,1,432,2,1,1,1,524
433,1,1,433,32,0,0,1,530
434,1,1,434,5,0,0,1,435
435,1,1,435,32,0,0,1,419
436,1,1,436,32,0,0,1,465
437,1,1,437,5,1,1,1,509
438,1,1,438,10,0,0,1,450
439,1,1,439,32,1,1,1,373
440,1,1,440,5,1,1,1,620
441,1,1,441,1,1,1,1,459
442,1,1,442,32,1,1,1,459
443,1,1,443,5,0,0,1,444
444,1,1,444,2,0,0,1,410
445,1,1,445,10,0,0,1,374
446,1,1,446,10,0,0,1,368
447,1,1,447,5,1,1,1,489
448,1,1,448,10,0,0,1,510
449,1,1,449,2,1,1,1,498
450,1,1,450,20,0,0,1,513
451,1,1,451,32,1,1,1,835
452,1,1,452,5,0,0,1,383
453,1,1,453,5,0,0,1,358
454,1,1,454,2,0,0,1,464
455,1,1,455,2,0,0,1,386
456,1,1,456,32,0,0,1,436
457,1,1,457,32,1,1,1,452
458,1,1,458,5,0,0,1,440
459,1,1,459,10,0,0,1,586
460,1,1,460,5,1,1,1,503
461,1,1,461,10,1,1,1,554
462,1,1,462,2,1,1,1,517
463,1,1,463,2,1,1,1,545
464,1,1,464,2,0,0,1,451
465,1,1,465,5,0,0,1,464
466,1,1,466,10,0,0,1,380
467,1,1,467,2,1,1,1,485
468,1,1,468,2,1,1,1,618
469,1,1,469,20,1,1,1,452
470,1,1,470,10,1,1,1,458
471,1,1,471,32,0,0,1,472
472,1,1,472,1,0,0,1,406
473,1,1,473,32,1,1,1,534
474,1,1,474,2,1,1,1,526
475,1,1,475,2,0,0,1,389
476,1,1,476,20,1,1,1,465
477,1,1,477,20,0,0,1,344
478,1,1,478,32,1,1,1,577
479,1,1,479,10,0,0,1,455
480,1,1,480,2,0,0,1,475
481,1,1,481,5,0,0,1,523
482,1,1,482,10,0,0,1,504
483,1,1,483,32,1,1,1,489
484,1,1,484,5,0,0,1,539
485,1,1,485,2,1,1,1,440
486,1,1,486,32,0,0,1,493
487,1,1,487,5,0,0,1,460
488,1,1,488,2,0,0,1,401
489,1,1,489,2,0,0,1,386
490,1,1,490,2,1,1,1,460
491,1,1,491,5,0,0,1,468
492,1,1,492,5,0,0,1,507
493,1,1,493,20,0,0,1,438
494,1,1,494,10,0,0,1,360
495,1,1,495,32,1,1,1,477
496,1,1,496,5,1,1,1,496
497,1,1,497,10,1,1,1,532
498,1,1,498,2,1,1,1,565
499,1,1,499,32,1,1,1,618
500,1,1,500,1,0,0,1,864
501,1,1,501,5,1,1,1,502
502,1,1,502,20,0,0,1,762
503,1,1,503,2,1,1,1,629
504,1,1,504,32,1,1,1,575
505,1,1,505,1,1,1,1,452
506,1,1,506,5,1,1,1,487
507,1,1,507,2,0,0,1,594
508,1,1,508,20,1,1,1,772
509,1,1,509,1,1,1,1,545
510,1,1,510,5,1,1,1,495
511,1,1,511,20,0,0,1,569
512,1,1,512,2,1,1,1,488
513,1,1,513,32,0,0,1,589
514,1,1,514,20,1,1,1,444
515,1,1,515,2,0,0,1,489
516,1,1,516,10,1,1,1,478
517,1,1,517,5,0,0,1,442
518,1,1,518,1,0,0,1,466
519,1,1,519,2,1,1,1,491
520,1,1,520,2,1,1,1,449
521,1,1,521,10,1,1,1,504
522,1,1,522,1,1,1,1,506
523,1,1,523,10,0,0,1,369
524,1,1,524,5,1,1,1,529
525,1,1,525,2,0,0,1,501
526,1,1,526,1,1,1,1,494
527,1,1,527,2,1,1,1,640
528,1,1,528,5,1,1,1,454
529,1,1,529,10,1,1,1,610
530,1,1,530,2,0,0,1,419
531,1,1,531,10,0,0,1,366
532,1,1,532,10,1,1,1,445
533,1,1,533,2,1,1,1,354
534,1,1,534,20,1,1,1,410
535,1,1,535,32,1,1,1,425
536,1,1,536,10,0,0,1,519
537,1,1,537,2,1,1,1,422
538,1,1,538,2,0,0,1,434
539,1,1,539,32,0,0,1,493
540,1,1,540,1,1,1,1,612
541,1,1,541,5,1,1,1,501
542,1,1,542,10,1,1,1,726
543,1,1,543,32,1,1,1,665
544,1,1,544,20,1,1,1,458
545,1,1,545,32,0,0,1,629
546,1,1,546,2,0,0,1,486
547,1,1,547,32,1,1,1,457
548,1,1,548,20,1,1,1,477
549,1,1,549,20,0,0,0,348
550,1,1,550,5,0,0,1,447
551,1,1,551,32,0,0,1,415
552,1,1,552,1,1,1,1,409
553,1,1,553,32,1,1,1,573
554,1,1,554,5,1,1,1,463
555,1,1,555,1,0,0,1,468
556,1,1,556,20,0,0,1,488
557,1,1,557,5,0,0,1,574
558,1,1,558,20,0,0,1,472
559,1,1,559,32,1,1,1,847
560,1,1,560,5,1,1,1,772
561,1,1,561,2,1,1,1,1070
562,1,1,562,32,0,0,1,418
563,1,1,563,2,0,0,1,467
564,1,1,564,20,0,0,1,444
565,1,1,565,20,0,0,1,550
566,1,1,566,32,0,0,1,599
567,1,1,567,5,1,1,1,652
568,1,1,568,5,1,1,1,437
569,1,1,569,32,0,0,1,545
570,1,1,570,2,1,1,1,758
571,1,1,571,5,1,1,1,460
572,1,1,572,5,0,0,1,710
573,1,1,573,20,1,1,1,809
574,1,1,574,2,1,1,1,406
575,1,1,575,10,1,1,1,487
576,1,1,576,32,0,0,1,599
577,1,1,577,10,0,0,1,557
578,1,1,578,2,1,1,1,871
579,1,1,579,32,1,1,1,482
580,1,1,580,10,1,1,1,585
581,1,1,581,5,1,1,1,475
582,1,1,582,20,0,0,1,476
583,1,1,583,2,0,0,1,480
584,1,1,584,32,0,0,1,443
585,1,1,585,5,1,1,1,431
586,1,1,586,10,0,0,1,358
587,1,1,587,20,0,0,1,498
588,1,1,588,20,1,1,1,718
589,1,1,589,20,1,1,1,500
590,1,1,590,20,1,1,1,466
591,1,1,591,2,0,0,1,504
592,1,1,592,10,0,0,1,526
593,1,1,593,20,1,1,1,547
594,1,1,594,2,1,1,1,481
595,1,1,595,20,0,0,1,655
596,1,1,596,5,1,1,1,583
597,1,1,597,20,0,0,1,475
598,1,1,598,5,0,0,0,511
599,1,1,599,20,0,0,1,1016
600,1,1,600,32,1,1,1,456
601,1,1,601,20,0,0,1,617
602,1,1,602,5,0,0,1,657
603,1,1,603,2,0,0,1,483
604,1,1,604,2,1,1,1,533
605,1,1,605,10,1,1,1,624
606,1,1,606,32,1,1,1,787
607,1,1,607,10,1,1,1,511
608,1,1,608,2,0,0,1,454
609,1,1,609,20,1,1,1,439
610,1,1,610,2,1,1,1,464
611,1,1,611,2,0,0,1,505
612,1,1,612,2,0,0,1,407
613,1,1,613,2,1,1,1,459
614,1,1,614,10,0,0,1,381
615,1,1,615,20,1,1,1,471
616,1,1,616,10,0,0,1,427
617,1,1,617,32,1,1,1,480
618,1,1,618,20,1,1,1,714
619,1,1,619,20,1,1,1,423
620,1,1,620,10,0,0,1,428
621,1,1,621,10,0,0,1,475
622,1,1,622,32,1,1,1,555
623,1,1,623,1,0,0,1,512
624,1,1,624,20,1,1,1,670
625,1,1,625,32,1,1,1,666
626,1,1,626,32,1,1,1,577
627,1,1,627,20,0,0,1,540
628,1,1,628,10,1,1,1,486
629,1,1,629,32,0,0,1,808
630,1,1,630,5,1,1,0,831
631,1,1,631,2,0,0,1,502
632,1,1,632,20,0,0,1,549
633,1,1,633,10,1,1,1,406
634,1,1,634,20,0,0,1,494
635,1,1,635,2,0,0,1,729
636,1,1,636,32,0,0,1,778
637,1,1,637,20,1,1,1,751
638,1,1,638,32,1,1,1,1486
639,1,1,639,32,1,1,1,657
640,1,1,640,20,0,0,1,450
641,2,1,1,32,0,0,1,617
642,2,1,2,5,1,1,0,484
643,2,1,3,5,1,1,1,492
644,2,1,4,5,1,1,1,594
645,2,1,5,20,0,0,1,759
646,2,1,6,2,1,1,1,518
647,2,1,7,32,0,0,1,685
648,2,1,8,20,1,1,1,599
649,2,1,9,1,0,0,1,479
650,2,1,10,10,0,0,1,527
651,2,1,11,10,0,0,1,666
652,2,1,12,5,1,1,1,534
653,2,1,13,20,1,1,1,698
654,2,1,14,5,0,0,1,775
655,2,1,15,10,1,1,1,572
656,2,1,16,1,1,1,1,573
657,2,1,17,1,1,1,1,483
658,2,1,18,2,0,0,1,611
659,2,1,19,2,1,1,1,840
660,2,1,20,20,1,1,1,558
661,2,1,21,2,1,1,1,572
662,2,1,22,10,1,1,1,542
663,2,1,23,2,0,0,1,566
664,2,1,24,20,1,1,1,595
665,2,1,25,32,1,1,1,579
666,2,1,26,32,0,0,1,749
667,2,1,27,20,0,0,1,734
668,2,1,28,10,0,0,1,581
669,2,1,29,5,1,1,1,468
670,2,1,30,32,0,0,1,533
671,2,1,31,5,1,1,1,398
672,2,1,32,2,0,0,0,440
673,2,1,33,20,1,1,1,712
674,2,1,34,10,1,1,1,564
675,2,1,35,10,1,1,1,596
676,2,1,36,5,0,0,1,716
677,2,1,37,32,0,0,1,570
678,2,1,38,20,1,1,1,639
679,2,1,39,10,0,0,1,753
680,2,1,40,32,1,1,1,493
681,2,1,41,20,0,0,1,596
682,2,1,42,20,1,1,1,743
683,2,1,43,32,1,1,1,729
684,2,1,44,5,0,0,1,507
685,2,1,45,1,1,1,1,351
686,2,1,46,5,0,0,1,535
687,2,1,47,10,0,0,0,383
688,2,1,48,1,1,1,1,585
689,2,1,49,20,0,0,1,738
690,2,1,50,32,0,0,1,650
691,2,1,51,1,1,1,1,792
692,2,1,52,10,0,0,1,739
693,2,1,53,20,1,1,1,826
694,2,1,54,5,0,0,1,702
695,2,1,55,20,0,0,1,795
696,2,1,56,20,0,0,1,734
697,2,1,57,20,1,1,1,709
698,2,1,58,32,0,0,1,623
699,2,1,59,5,0,0,1,569
700,2,1,60,2,0,0,1,493
701,2,1,61,32,0,0,1,607
702,2,1,62,32,1,1,1,852
703,2,1,63,1,1,1,1,501
704,2,1,64,10,0,0,1,511
705,2,1,65,10,1,1,1,690
706,2,1,66,5,1,1,1,731
707,2,1,67,10,1,1,1,657
708,2,1,68,1,1,1,1,519
709,2,1,69,5,1,1,1,594
710,2,1,70,2,1,1,1,422
711,2,1,71,32,1,1,1,791
712,2,1,72,32,0,0,1,519
713,2,1,73,32,1,1,1,498
714,2,1,74,2,1,1,1,517
715,2,1,75,32,1,1,1,523
716,2,1,76,10,1,1,1,631
717,2,1,77,1,1,1,1,561
718,2,1,78,20,0,0,1,1030
719,2,1,79,10,1,1,1,424
720,2,1,80,10,0,0,1,692
721,2,1,81,2,1,1,1,883
722,2,1,82,10,0,0,1,640
723,2,1,83,10,1,1,1,513
724,2,1,84,32,1,1,1,627
725,2,1,85,10,0,0,1,584
726,2,1,86,32,1,1,1,662
727,2,1,87,2,1,1,1,506
728,2,1,88,20,1,1,1,525
729,2,1,89,10,1,1,1,434
730,2,1,90,20,0,0,1,806
731,2,1,91,20,1,1,1,660
732,2,1,92,1,1,1,1,476
733,2,1,93,2,0,0,1,612
734,2,1,94,10,1,1,1,741
735,2,1,95,5,0,0,1,607
736,2,1,96,20,0,0,1,751
737,2,1,97,32,1,1,1,470
738,2,1,98,2,0,0,1,511
739,2,1,99,20,1,1,1,772
740,2,1,100,32,1,1,1,466
741,2,1,101,20,0,0,1,452
742,2,1,102,20,0,0,1,570
743,2,1,103,2,0,0,1,493
744,2,1,104,20,0,0,1,514
745,2,1,105,20,0,0,1,504
746,2,1,106,32,1,1,1,531
747,2,1,107,2,1,1,1,588
748,2,1,108,2,1,1,1,461
749,2,1,109,10,1,1,1,823
750,2,1,110,32,1,1,1,538
751,2,1,111,5,1,1,1,560
752,2,1,112,10,0,0,0,395
753,2,1,113,32,1,1,1,879
754,2,1,114,20,0,0,1,731
755,2,1,115,2,1,1,1,576
756,2,1,116,5,0,0,1,561
757,2,1,117,20,0,0,1,946
758,2,1,118,20,1,1,1,502
759,2,1,119,32,0,0,1,619
760,2,1,120,2,0,0,1,709
761,2,1,121,2,1,1,1,634
762,2,1,122,10,0,0,1,565
763,2,1,123,32,0,0,1,491
764,2,1,124,10,1,1,1,569
765,2,1,125,20,0,0,1,591
766,2,1,126,10,0,0,1,516
767,2,1,127,32,0,0,1,586
768,2,1,128,20,1,1,0,490
769,2,1,129,2,1,1,1,580
770,2,1,130,32,0,0,1,603
771,2,1,131,5,0,0,1,564
772,2,1,132,2,1,1,1,587
773,2,1,133,2,1,1,1,556
774,2,1,134,20,0,0,1,643
775,2,1,135,20,1,1,1,681
776,2,1,136,2,0,0,1,532
777,2,1,137,20,1,1,1,562
778,2,1,138,5,1,1,1,519
779,2,1,139,5,0,0,1,820
780,2,1,140,10,1,1,1,608
781,2,1,141,10,0,0,1,560
782,2,1,142,20,0,0,1,691
783,2,1,143,10,1,1,1,622
784,2,1,144,32,1,1,1,633
785,2,1,145,10,1,1,1,683
786,2,1,146,10,1,1,1,707
787,2,1,147,5,1,1,1,558
788,2,1,148,5,0,0,1,807
789,2,1,149,5,1,1,1,543
790,2,1,150,2,0,0,1,1048
791,2,1,151,2,1,1,1,701
792,2,1,152,2,1,1,1,604
793,2,1,153,32,0,0,1,976
794,2,1,154,1,0,0,1,575
795,2,1,155,5,1,1,1,561
796,2,1,156,2,0,0,1,698
797,2,1,157,1,0,0,1,601
798,2,1,158,32,1,1,1,547
799,2,1,159,2,1,1,1,544
800,2,1,160,10,0,0,1,839
801,2,1,161,20,1,1,1,785
802,2,1,162,32,1,1,1,541
803,2,1,163,10,1,1,1,546
804,2,1,164,2,1,1,1,449
805,2,1,165,32,0,0,1,650
806,2,1,166,20,0,0,1,511
807,2,1,167,20,1,1,1,567
808,2,1,168,20,1,1,1,663
809,2,1,169,10,0,0,1,647
810,2,1,170,20,1,1,1,533
811,2,1,171,5,1,1,1,567
812,2,1,172,32,0,0,1,689
813,2,1,173,2,1,1,1,594
814,2,1,174,20,1,1,1,489
815,2,1,175,20,0,0,1,641
816,2,1,176,32,0,0,1,551
817,2,1,177,5,0,0,1,759
818,2,1,178,20,1,1,1,672
819,2,1,179,32,0,0,1,657
820,2,1,180,20,1,1,1,607
821,2,1,181,32,0,0,1,721
822,2,1,182,20,0,0,1,602
823,2,1,183,32,1,1,1,523
824,2,1,184,2,1,1,1,497
825,2,1,185,2,0,0,1,783
826,2,1,186,32,1,1,1,474
827,2,1,187,5,0,0,1,435
828,2,1,188,32,0,0,1,630
829,2,1,189,2,1,1,1,555
830,2,1,190,1,1,1,1,456
831,2,1,191,5,1,1,1,476
832,2,1,192,20,1,1,1,506
833,2,1,193,5,1,1,1,472
834,2,1,194,5,1,1,1,609
835,2,1,195,5,0,0,1,633
836,2,1,196,32,0,0,1,799
837,2,1,197,20,1,1,1,675
838,2,1,198,32,1,1,1,1046
839,2,1,199,32,0,0,1,554
840,2,1,200,5,1,1,1,505
841,2,1,201,2,0,0,1,694
842,2,1,202,1,1,1,1,455
843,2,1,203,10,1,1,1,472
844,2,1,204,2,0,0,1,817
845,2,1,205,32,0,0,1,643
846,2,1,206,20,1,1,1,681
847,2,1,207,5,1,1,1,503
848,2,1,208,32,1,1,1,548
849,2,1,209,2,1,1,1,530
850,2,1,210,5,1,1,1,556
851,2,1,211,32,1,1,1,601
852,2,1,212,5,0,0,1,465
853,2,1,213,10,1,1,1,506
854,2,1,214,5,1,1,1,532
855,2,1,215,10,0,0,1,558
856,2,1,216,20,0,0,1,879
857,2,1,217,10,0,0,1,609
858,2,1,218,5,0,0,1,622
859,2,1,219,2,0,0,1,506
860,2,1,220,32,1,1,1,643
861,2,1,221,20,1,1,1,751
862,2,1,222,2,0,0,1,444
863,2,1,223,20,0,0,1,552
864,2,1,224,10,0,0,1,529
865,2,1,225,20,1,1,1,469
866,2,1,226,10,0,0,1,655
867,2,1,227,5,0,0,1,635
868,2,1,228,5,0,0,1,392
869,2,1,229,32,1,1,1,598
870,2,1,230,2,0,0,1,609
871,2,1,231,10,0,0,1,473
872,2,1,232,2,1,1,1,875
873,2,1,233,5,0,0,1,595
874,2,1,234,5,0,0,1,430
875,2,1,235,2,0,0,1,442
876,2,1,236,5,1,1,1,621
877,2,1,237,5,0,0,1,515
878,2,1,238,5,0,0,1,847
879,2,1,239,32,1,1,1,876
880,2,1,240,5,0,0,1,489
881,2,1,241,10,1,1,1,619
882,2,1,242,2,0,0,1,468
883,2,1,243,32,1,1,1,503
884,2,1,244,5,0,0,1,926
885,2,1,245,32,0,0,1,503
886,2,1,246,10,1,1,1,545
887,2,1,247,20,1,1,1,495
888,2,1,248,5,1,1,1,531
889,2,1,249,5,1,1,1,453
890,2,1,250,2,0,0,1,563
891,2,1,251,5,0,0,1,653
892,2,1,252,32,0,0,1,602
893,2,1,253,20,1,1,1,563
894,2,1,254,10,0,0,1,755
895,2,1,255,2,0,0,1,562
896,2,1,256,2,1,1,1,574
897,2,1,257,5,1,1,1,602
898,2,1,258,5,1,1,1,479
899,2,1,259,5,0,0,1,488
900,2,1,260,10,1,1,1,677
901,2,1,261,20,0,0,1,709
902,2,1,262,10,0,0,1,871
903,2,1,263,10,1,1,1,582
904,2,1,264,10,0,0,1,606
905,2,1,265,10,0,0,1,609
906,2,1,266,32,1,1,1,763
907,2,1,267,20,1,1,1,548
908,2,1,268,10,0,0,1,517
909,2,1,269,10,1,1,1,542
910,2,1,270,32,0,0,1,527
911,2,1,271,5,0,0,1,485
912,2,1,272,32,0,0,1,497
913,2,1,273,20,1,1,1,573
914,2,1,274,20,1,1,1,585
915,2,1,275,5,0,0,1,659
916,2,1,276,32,1,1,1,513
917,2,1,277,1,0,0,1,456
918,2,1,278,2,0,0,1,534
919,2,1,279,20,1,1,1,545
920,2,1,280,20,1,1,1,449
921,2,1,281,2,1,1,1,636
922,2,1,282,2,1,1,1,477
923,2,1,283,2,0,0,1,530
924,2,1,284,20,0,0,1,660
925,2,1,285,2,0,0,1,422
926,2,1,286,5,0,0,1,802
927,2,1,287,32,1,1,1,447
928,2,1,288,32,1,1,1,459
929,2,1,289,5,0,0,1,627
930,2,1,290,10,1,1,1,473
931,2,1,291,10,0,0,1,591
932,2,1,292,20,1,1,1,837
933,2,1,293,32,0,0,1,548
934,2,1,294,5,1,1,1,462
935,2,1,295,2,0,0,1,450
936,2,1,296,2,1,1,1,419
937,2,1,297,2,0,0,1,617
938,2,1,298,10,1,1,1,588
939,2,1,299,10,1,1,1,453
940,2,1,300,20,0,0,1,727
941,2,1,301,32,1,1,1,501
942,2,1,302,20,0,0,1,605
943,2,1,303,20,1,1,1,557
944,2,1,304,2,1,1,1,475
945,2,1,305,20,0,0,1,768
946,2,1,306,20,1,1,1,540
947,2,1,307,10,0,0,1,819
948,2,1,308,5,1,1,1,518
949,2,1,309,10,0,0,1,431
950,2,1,310,32,1,1,1,454
951,2,1,311,2,0,0,1,456
952,2,1,312,1,0,0,1,421
953,2,1,313,20,1,1,1,467
954,2,1,314,10,1,1,1,507
955,2,1,315,5,0,0,1,420
956,2,1,316,5,1,1,1,380
957,2,1,317,2,1,1,1,382
958,2,1,318,5,0,0,1,482
959,2,1,319,32,0,0,1,629
960,2,1,320,32,0,0,1,569
961,2,1,321,20,0,0,1,710
962,2,1,322,5,0,0,1,389
963,2,1,323,10,0,0,1,565
964,2,1,324,5,1,1,1,571
965,2,1,325,1,1,1,1,416
966,2,1,326,20,0,0,1,454
967,2,1,327,10,0,0,0,404
968,2,1,328,1,1,1,1,546
969,2,1,329,32,1,1,1,648
970,2,1,330,5,1,1,1,637
971,2,1,331,1,0,0,1,610
972,2,1,332,32,1,1,1,737
973,2,1,333,20,1,1,1,560
974,2,1,334,5,1,1,1,438
975,2,1,335,10,0,0,1,609
976,2,1,336,10,0,0,1,604
977,2,1,337,10,0,0,1,591
978,2,1,338,20,0,0,1,510
979,2,1,339,20,0,0,1,570
980,2,1,340,32,0,0,1,473
981,2,1,341,10,1,1,1,643
982,2,1,342,32,0,0,1,551
983,2,1,343,5,1,1,1,484
984,2,1,344,5,1,1,1,532
985,2,1,345,2,0,0,1,438
986,2,1,346,32,0,0,1,477
987,2,1,347,5,0,0,1,395
988,2,1,348,20,1,1,1,595
989,2,1,349,1,1,1,1,435
990,2,1,350,10,0,0,1,529
991,2,1,351,20,0,0,1,514
992,2,1,352,2,0,0,1,461
993,2,1,353,32,0,0,1,543
994,2,1,354,5,1,1,1,491
995,2,1,355,2,0,0,1,497
996,2,1,356,1,0,0,1,521
997,2,1,357,20,0,0,1,445
998,2,1,358,10,1,1,1,433
999,2,1,359,1,0,0,1,479
1000,2,1,360,5,1,1,1,448
1001,2,1,361,32,0,0,1,498
1002,2,1,362,10,0,0,1,1005
1003,2,1,363,5,0,0,1,665
1004,2,1,364,10,1,1,1,678
1005,2,1,365,10,0,0,1,473
1006,2,1,366,20,0,0,1,592
1007,2,1,367,20,0,0,1,619
1008,2,1,368,5,0,0,1,509
1009,2,1,369,1,0,0,1,408
1010,2,1,370,10,1,1,1,578
1011,2,1,371,5,0,0,1,546
1012,2,1,372,10,1,1,1,973
1013,2,1,373,32,0,0,1,568
1014,2,1,374,2,1,1,1,537
1015,2,1,375,20,0,0,1,450
1016,2,1,376,32,1,1,1,538
1017,2,1,377,5,0,0,1,604
1018,2,1,378,5,0,0,1,527
1019,2,1,379,1,0,0,1,484
1020,2,1,380,10,0,0,1,1430
1021,2,1,381,32,0,0,1,608
1022,2,1,382,10,1,1,1,511
1023,2,1,383,2,1,1,1,504
1024,2,1,384,5,0,0,1,521
1025,2,1,385,5,0,0,1,604
1026,2,1,386,1,1,1,1,567
1027,2,1,387,5,1,1,1,554
1028,2,1,388,10,0,0,1,456
1029,2,1,389,32,1,1,1,571
1030,2,1,390,1,1,1,1,443
1031,2,1,391,2,1,1,1,487
1032,2,1,392,10,0,0,1,480
1033,2,1,393,2,1,1,1,417
1034,2,1,394,5,1,1,1,478
1035,2,1,395,10,0,0,1,569
1036,2,1,396,10,1,1,1,504
1037,2,1,397,5,1,1,1,669
1038,2,1,398,32,1,1,1,563
1039,2,1,399,10,1,1,1,565
1040,2,1,400,10,1,1,1,560
1041,2,1,401,2,1,1,1,499
1042,2,1,402,10,0,0,1,558
1043,2,1,403,20,1,1,1,502
1044,2,1,404,5,1,1,1,435
1045,2,1,405,5,1,1,1,444
1046,2,1,406,10,1,1,1,475
1047,2,1,407,2,1,1,1,411
1048,2,1,408,10,0,0,1,511
1049,2,1,409,32,1,1,1,528
1050,2,1,410,2,0,0,1,609
1051,2,1,411,32,0,0,1,496
1052,2,1,412,2,0,0,1,451
1053,2,1,413,10,0,0,1,602
1054,2,1,414,32,0,0,1,504
1055,2,1,415,5,1,1,1,588
1056,2,1,416,2,0,0,1,517
1057,2,1,417,2,1,1,1,457
1058,2,1,418,1,1,1,1,426
1059,2,1,419,5,1,1,1,567
1060,2,1,420,5,0,0,1,522
1061,2,1,421,1,0,0,1,418
1062,2,1,422,10,1,1,1,458
1063,2,1,423,20,0,0,1,705
1064,2,1,424,32,1,1,1,518
1065,2,1,425,32,1,1,1,603
1066,2,1,426,5,0,0,1,579
1067,2,1,427,1,0,0,1,492
1068,2,1,428,10,0,0,1,480
1069,2,1,429,32,1,1,1,807
1070,2,1,430,32,0,0,1,620
1071,2,1,431,2,0,0,1,426
1072,2,1,432,10,1,1,1,455
1073,2,1,433,20,1,1,1,528
1074,2,1,434,20,0,0,1,595
1075,2,1,435,10,1,1,1,562
1076,2,1,436,2,1,1,1,431
1077,2,1,437,1,1,1,1,495
1078,2,1,438,20,0,0,1,552
1079,2,1,439,20,0,0,1,595
1080,2,1,440,20,0,0,1,503
1081,2,1,441,10,1,1,1,528
1082,2,1,442,32,0,0,1,539
1083,2,1,443,2,1,1,1,442
1084,2,1,444,32,0,0,1,576
1085,2,1,445,2,1,1,1,410
1086,2,1,446,10,1,1,1,462
1087,2,1,447,2,0,0,1,397
1088,2,1,448,20,1,1,1,604
1089,2,1,449,10,0,0,1,445
1090,2,1,450,20,1,1,1,548
1091,2,1,451,20,1,1,1,571
1092,2,1,452,5,0,0,1,973
1093,2,1,453,20,1,1,1,589
1094,2,1,454,32,0,0,1,542
1095,2,1,455,2,0,0,1,556
1096,2,1,456,32,1,1,1,879
1097,2,1,457,2,1,1,1,446
1098,2,1,458,2,0,0,1,507
1099,2,1,459,2,0,0,1,426
1100,2,1,460,5,0,0,1,518
1101,2,1,461,10,1,1,1,537
1102,2,1,462,32,0,0,1,505
1103,2,1,463,5,0,0,1,447
1104,2,1,464,5,1,1,1,719
1105,2,1,465,10,0,0,1,534
1106,2,1,466,32,0,0,1,396
1107,2,1,467,5,0,0,1,548
1108,2,1,468,10,1,1,1,741
1109,2,1,469,5,0,0,1,494
1110,2,1,470,10,0,0,1,357
1111,2,1,471,10,1,1,1,394
1112,2,1,472,20,1,1,1,469
1113,2,1,473,1,1,1,1,368
1114,2,1,474,1,0,0,1,364
1115,2,1,475,5,0,0,1,559
1116,2,1,476,10,1,1,0,431
1117,2,1,477,1,0,0,1,447
1118,2,1,478,10,1,1,1,692
1119,2,1,479,2,0,0,1,537
1120,2,1,480,5,1,1,1,531
1121,2,1,481,32,1,1,1,832
1122,2,1,482,5,1,1,1,495
1123,2,1,483,2,0,0,1,465
1124,2,1,484,10,0,0,1,432
1125,2,1,485,2,1,1,1,474
1126,2,1,486,2,0,0,1,700
1127,2,1,487,20,1,1,1,726
1128,2,1,488,10,1,1,1,566
1129,2,1,489,5,1,1,1,448
1130,2,1,490,2,0,0,1,521
1131,2,1,491,32,1,1,1,525
1132,2,1,492,20,0,0,1,727
1133,2,1,493,2,0,0,1,472
1134,2,1,494,5,0,0,1,490
1135,2,1,495,32,1,1,1,518
1136,2,1,496,10,0,0,1,673
1137,2,1,497,20,1,1,1,651
1138,2,1,498,5,0,0,1,454
1139,2,1,499,20,1,1,1,500
1140,2,1,500,5,1,1,1,501
1141,2,1,501,32,1,1,1,846
1142,2,1,502,32,0,0,1,628
1143,2,1,503,10,0,0,1,620
1144,2,1,504,20,1,1,1,564
1145,2,1,505,20,1,1,1,738
1146,2,1,506,5,0,0,1,602
1147,2,1,507,2,1,1,1,439
1148,2,1,508,2,0,0,1,643
1149,2,1,509,10,0,0,1,612
1150,2,1,510,2,1,1,1,646
1151,2,1,511,5,1,1,1,492
1152,2,1,512,20,1,1,1,497
1153,2,1,513,2,1,1,1,503
1154,2,1,514,20,0,0,1,574
1155,2,1,515,5,0,0,1,553
1156,2,1,516,1,0,0,1,667
1157,2,1,517,32,0,0,1,451
1158,2,1,518,2,0,0,1,390
1159,2,1,519,10,1,1,1,493
1160,2,1,520,2,1,1,1,521
1161,2,1,521,32,0,0,0,715
1162,2,1,522,5,0,0,1,408
1163,2,1,523,20,0,0,1,562
1164,2,1,524,32,1,1,1,713
1165,2,1,525,2,0,0,1,469
1166,2,1,526,20,0,0,1,572
1167,2,1,527,2,0,0,1,493
1168,2,1,528,32,1,1,1,670
1169,2,1,529,32,0,0,1,614
1170,2,1,530,20,0,0,1,596
1171,2,1,531,10,1,1,1,677
1172,2,1,532,5,1,1,1,530
1173,2,1,533,10,1,1,1,514
1174,2,1,534,20,0,0,1,562
1175,2,1,535,2,0,0,1,584
1176,2,1,536,2,0,0,1,498
1177,2,1,537,10,1,1,1,703
1178,2,1,538,10,1,1,1,636
1179,2,1,539,5,1,1,1,555
1180,2,1,540,10,1,1,1,639
1181,2,1,541,2,0,0,1,721
1182,2,1,542,2,0,0,1,642
1183,2,1,543,2,1,1,1,645
1184,2,1,544,32,1,1,1,674
1185,2,1,545,20,0,0,1,575
1186,2,1,546,20,0,0,1,532
1187,2,1,547,20,1,1,1,822
1188,2,1,548,32,1,1,1,474
1189,2,1,549,2,1,1,1,661
1190,2,1,550,10,1,1,1,606
1191,2,1,551,32,0,0,1,693
1192,2,1,552,32,0,0,1,587
1193,2,1,553,20,0,0,1,503
1194,2,1,554,1,0,0,1,433
1195,2,1,555,32,1,1,1,633
1196,2,1,556,2,0,0,1,498
1197,2,1,557,32,1,1,1,683
1198,2,1,558,10,1,1,1,584
1199,2,1,559,32,1,1,1,681
1200,2,1,560,2,0,0,1,494
1201,2,1,561,10,0,0,1,424
1202,2,1,562,2,1,1,1,697
1203,2,1,563,5,1,1,1,657
1204,2,1,564,20,0,0,1,565
1205,2,1,565,2,1,1,1,545
1206,2,1,566,32,1,1,1,512
1207,2,1,567,32,1,1,1,586
1208,2,1,568,32,0,0,1,538
1209,2,1,569,10,0,0,1,463
1210,2,1,570,32,1,1,1,583
1211,2,1,571,1,0,0,1,627
1212,2,1,572,10,0,0,1,479
1213,2,1,573,20,0,0,1,752
1214,2,1,574,32,0,0,1,526
1215,2,1,575,5,0,0,1,552
1216,2,1,576,20,1,1,1,574
1217,2,1,577,20,1,1,1,552
1218,2,1,578,5,1,1,1,502
1219,2,1,579,32,0,0,1,572
1220,2,1,580,5,0,0,1,540
1221,2,1,581,2,0,0,1,502
1222,2,1,582,5,1,1,1,594
1223,2,1,583,32,0,0,1,530
1224,2,1,584,32,0,0,1,562
1225,2,1,585,1,0,0,1,601
1226,2,1,586,2,1,1,1,464
1227,2,1,587,20,0,0,1,571
1228,2,1,588,2,1,1,1,495
1229,2,1,589,32,0,0,1,495
1230,2,1,590,20,0,0,1,643
1231,2,1,591,32,0,0,1,519
1232,2,1,592,10,0,0,1,376
1233,2,1,593,2,1,1,1,520
1234,2,1,594,2,1,1,1,534
1235,2,1,595,2,1,1,1,419
1236,2,1,596,5,1,1,1,460
1237,2,1,597,10,0,0,1,720
1238,2,1,598,10,0,0,1,606
1239,2,1,599,10,1,1,1,930
1240,2,1,600,20,1,1,1,438
1241,2,1,601,5,0,0,1,643
1242,2,1,602,2,0,0,1,557
1243,2,1,603,2,1,1,1,705
1244,2,1,604,5,1,1,1,515
1245,2,1,605,5,1,1,1,587
1246,2,1,606,5,1,1,1,541
1247,2,1,607,1,0,0,1,441
1248,2,1,608,10,0,0,1,468
1249,2,1,609,20,0,0,0,542
1250,2,1,610,5,1,1,1,480
1251,2,1,611,32,1,1,1,763
1252,2,1,612,32,0,0,1,522
1253,2,1,613,2,1,1,1,499
1254,2,1,614,2,0,0,1,482
1255,2,1,615,5,0,0,1,511
1256,2,1,616,20,1,1,1,581
1257,2,1,617,2,0,0,1,401
1258,2,1,618,20,0,0,1,692
1259,2,1,619,20,1,1,1,557
1260,2,1,620,2,0,0,1,563
1261,2,1,621,1,0,0,1,442
1262,2,1,622,32,1,1,1,537
1263,2,1,623,10,1,1,1,500
1264,2,1,624,2,1,1,1,475
1265,2,1,625,5,0,0,1,533
1266,2,1,626,2,1,1,1,495
1267,2,1,627,2,1,1,1,485
1268,2,1,628,1,1,1,1,455
1269,2,1,629,32,0,0,1,513
1270,2,1,630,32,1,1,1,651
1271,2,1,631,5,0,0,1,603
1272,2,1,632,20,0,0,1,539
1273,2,1,633,2,0,0,1,676
1274,2,1,634,2,1,1,1,513
1275,2,1,635,20,0,0,1,442
1276,2,1,636,20,0,0,1,563
1277,2,1,637,32,1,1,1,597
1278,2,1,638,2,0,0,1,574
1279,2,1,639,10,0,0,1,664
1280,2,1,640,5,1,1,1,675
1281,3,1,1,5,1,1,1,500
1282,3,1,2,20,1,1,1,469
1283,3,1,3,2,1,1,1,546
1284,3,1,4,2,0,0,0,382
1285,3,1,5,32,0,0,1,441
1286,3,1,6,2,0,0,1,385
1287,3,1,7,5,1,1,1,376
1288,3,1,8,20,1,1,1,387
1289,3,1,9,10,1,1,1,549
1290,3,1,10,10,1,1,1,373
1291,3,1,11,2,0,0,1,480
1292,3,1,12,10,1,1,1,465
1293,3,1,13,10,1,1,1,503
1294,3,1,14,2,0,0,1,608
1295,3,1,15,32,1,1,1,576
1296,3,1,16,10,0,0,1,425
1297,3,1,17,32,0,0,1,495
1298,3,1,18,32,1,1,1,595
1299,3,1,19,10,0,0,1,531
1300,3,1,20,5,0,0,1,487
1301,3,1,21,20,0,0,1,503
1302,3,1,22,32,0,0,1,429
1303,3,1,23,2,0,0,1,599
1304,3,1,24,5,1,1,1,421
1305,3,1,25,20,0,0,1,376
1306,3,1,26,32,0,0,1,448
1307,3,1,27,10,1,1,1,443
1308,3,1,28,10,1,1,1,394
1309,3,1,29,32,1,1,1,387
1310,3,1,30,5,0,0,1,442
1311,3,1,31,20,0,0,1,413
1312,3,1,32,20,0,0,1,383
1313,3,1,33,5,0,0,1,423
1314,3,1,34,2,0,0,1,455
1315,3,1,35,20,0,0,1,483
1316,3,1,36,5,1,1,1,538
1317,3,1,37,32,1,1,1,500
1318,3,1,38,2,0,0,1,512
1319,3,1,39,10,0,0,1,510
1320,3,1,40,1,1,1,1,481
1321,3,1,41,1,0,0,1,614
1322,3,1,42,2,0,0,1,448
1323,3,1,43,20,1,1,1,476
1324,3,1,44,5,1,1,1,447
1325,3,1,45,32,1,1,1,514
1326,3,1,46,20,0,0,1,403
1327,3,1,47,10,1,1,1,382
1328,3,1,48,32,0,0,1,520
1329,3,1,49,10,1,1,1,666
1330,3,1,50,5,0,0,1,486
1331,3,1,51,10,0,0,1,428
1332,3,1,52,5,0,0,1,686
1333,3,1,53,10,0,0,1,396
1334,3,1,54,5,0,0,1,470
1335,3,1,55,2,1,1,1,361
1336,3,1,56,2,0,0,1,435
1337,3,1,57,20,0,0,1,459
1338,3,1,58,10,0,0,1,413
1339,3,1,59,2,0,0,0,657
1340,3,1,60,1,1,1,1,384
1341,3,1,61,5,1,1,1,438
1342,3,1,62,5,0,0,1,417
1343,3,1,63,32,0,0,1,448
1344,3,1,64,2,0,0,1,642
1345,3,1,65,20,0,0,1,395
1346,3,1,66,2,0,0,1,469
1347,3,1,67,2,0,0,1,503
1348,3,1,68,1,0,0,1,472
1349,3,1,69,20,0,0,1,426
1350,3,1,70,10,0,0,1,538
1351,3,1,71,5,0,0,1,491
1352,3,1,72,5,1,1,1,599
1353,3,1,73,1,1,1,1,661
1354,3,1,74,2,1,1,1,474
1355,3,1,75,5,1,1,1,717
1356,3,1,76,10,0,0,1,649
1357,3,1,77,2,1,1,1,421
1358,3,1,78,32,1,1,1,445
1359,3,1,79,32,0,0,1,493
1360,3,1,80,1,1,1,1,580
1361,3,1,81,10,0,0,1,691
1362,3,1,82,5,1,1,1,441
1363,3,1,83,32,1,1,1,568
1364,3,1,84,20,0,0,1,421
1365,3,1,85,10,0,0,1,495
1366,3,1,86,20,1,1,1,449
1367,3,1,87,5,1,1,1,432
1368,3,1,88,10,0,0,1,384
1369,3,1,89,32,1,1,1,597
1370,3,1,90,32,1,1,1,442
1371,3,1,91,2,0,0,1,459
1372,3,1,92,32,0,0,1,495
1373,3,1,93,5,1,1,1,463
1374,3,1,94,20,0,0,1,482
1375,3,1,95,32,0,0,1,468
1376,3,1,96,2,0,0,1,521
1377,3,1,97,2,1,1,1,601
1378,3,1,98,20,1,1,1,513
1379,3,1,99,20,0,0,1,771
1380,3,1,100,10,0,0,1,405
1381,3,1,101,5,0,0,1,385
1382,3,1,102,32,0,0,1,444
1383,3,1,103,10,1,1,1,666
1384,3,1,104,20,1,1,1,477
1385,3,1,105,2,1,1,1,468
1386,3,1,106,5,0,0,1,426
1387,3,1,107,20,1,1,1,463
1388,3,1,108,1,0,0,1,373
1389,3,1,109,32,1,1,1,573
1390,3,1,110,5,1,1,1,602
1391,3,1,111,32,1,1,1,463
1392,3,1,112,5,1,1,1,609
1393,3,1,113,20,1,1,1,472
1394,3,1,114,32,1,1,1,518
1395,3,1,115,2,0,0,1,522
1396,3,1,116,5,0,0,1,435
1397,3,1,117,5,1,1,1,532
1398,3,1,118,32,1,1,1,518
1399,3,1,119,5,1,1,1,473
1400,3,1,120,10,1,1,1,560
1401,3,1,121,20,0,0,1,645
1402,3,1,122,1,0,0,1,408
1403,3,1,123,2,1,1,1,430
1404,3,1,124,10,1,1,1,418
1405,3,1,125,32,0,0,1,525
1406,3,1,126,2,1,1,1,403
1407,3,1,127,10,1,1,1,653
1408,3,1,128,20,1,1,1,714
1409,3,1,129,1,0,0,1,455
1410,3,1,130,32,0,0,1,445
1411,3,1,131,10,1,1,1,506
1412,3,1,132,2,1,1,1,502
1413,3,1,133,32,0,0,1,551
1414,3,1,134,32,1,1,1,512
1415,3,1,135,20,0,0,1,480
1416,3,1,136,10,0,0,1,703
1417,3,1,137,2,0,0,1,462
1418,3,1,138,20,0,0,1,444
1419,3,1,139,5,1,1,1,584
1420,3,1,140,2,0,0,1,475
1421,3,1,141,2,1,1,1,443
1422,3,1,142,10,1,1,1,474
1423,3,1,143,10,1,1,1,543
1424,3,1,144,2,1,1,1,596
1425,3,1,145,32,0,0,1,504
1426,3,1,146,32,1,1,1,503
1427,3,1,147,2,0,0,1,386
1428,3,1,148,32,1,1,1,403
1429,3,1,149,32,0,0,1,473
1430,3,1,150,1,1,1,1,584
1431,3,1,151,5,0,0,1,472
1432,3,1,152,32,0,0,1,470
1433,3,1,153,32,1,1,1,455
1434,3,1,154,10,0,0,1,468
1435,3,1,155,20,0,0,1,658
1436,3,1,156,20,0,0,1,542
1437,3,1,157,2,0,0,1,580
1438,3,1,158,32,1,1,1,451
1439,3,1,159,20,0,0,1,566
1440,3,1,160,20,0,0,1,578
1441,3,1,161,2,1,1,1,613
1442,3,1,162,10,0,0,1,496
1443,3,1,163,10,0,0,1,462
1444,3,1,164,2,1,1,1,407
1445,3,1,165,5,0,0,1,496
1446,3,1,166,1,0,0,1,354
1447,3,1,167,10,0,0,1,492
1448,3,1,168,2,1,1,1,562
1449,3,1,169,20,1,1,1,355
1450,3,1,170,10,1,1,1,399
1451,3,1,171,2,0,0,1,424
1452,3,1,172,5,1,1,1,348
1453,3,1,173,10,0,0,1,449
1454,3,1,174,1,0,0,1,420
1455,3,1,175,1,1,1,1,448
1456,3,1,176,20,1,1,1,475
1457,3,1,177,20,1,1,1,488
1458,3,1,178,5,1,1,1,378
1459,3,1,179,10,1,1,1,367
1460,3,1,180,5,1,1,1,702
1461,3,1,181,5,0,0,1,699
1462,3,1,182,10,0,0,1,531
1463,3,1,183,2,1,1,1,345
1464,3,1,184,2,0,0,1,503
1465,3,1,185,20,1,1,1,391
1466,3,1,186,2,0,0,1,696
1467,3,1,187,20,1,1,1,344
1468,3,1,188,10,0,0,1,453
1469,3,1,189,32,0,0,1,658
1470,3,1,190,32,1,1,1,361
1471,3,1,191,10,1,1,1,539
1472,3,1,192,2,0,0,1,409
1473,3,1,193,10,1,1,1,383
1474,3,1,194,20,0,0,1,375
1475,3,1,195,10,1,1,1,650
1476,3,1,196,2,1,1,1,482
1477,3,1,197,2,0,0,1,433
1478,3,1,198,10,0,0,1,413
1479,3,1,199,5,0,0,1,457
1480,3,1,200,1,1,1,1,521
1481,3,1,201,5,1,3,0,252
1482,3,1,202,2,1,1,1,426
1483,3,1,203,5,0,0,1,431
1484,3,1,204,5,1,1,0,386
1485,3,1,205,20,0,0,1,543
1486,3,1,206,5,0,0,1,550
1487,3,1,207,32,0,0,1,442
1488,3,1,208,32,1,1,1,536
1489,3,1,209,5,1,1,1,400
1490,3,1,210,32,0,0,1,364
1491,3,1,211,10,1,1,0,369
1492,3,1,212,32,1,1,1,506
1493,3,1,213,20,0,0,1,359
1494,3,1,214,32,0,0,1,489
1495,3,1,215,32,1,1,1,442
1496,3,1,216,20,1,1,1,466
1497,3,1,217,5,1,1,1,449
1498,3,1,218,1,1,1,1,499
1499,3,1,219,32,1,1,1,550
1500,3,1,220,10,0,0,1,398
1501,3,1,221,10,0,0,1,481
1502,3,1,222,10,0,0,1,428
1503,3,1,223,5,0,0,1,401
1504,3,1,224,20,1,1,1,349
1505,3,1,225,20,0,0,1,506
1506,3,1,226,5,0,0,1,466
1507,3,1,227,2,0,0,1,440
1508,3,1,228,32,1,1,1,511
1509,3,1,229,2,0,0,1,465
1510,3,1,230,2,1,1,1,410
1511,3,1,231,10,0,0,1,338
1512,3,1,232,5,0,0,1,528
1513,3,1,233,10,0,0,0,708
1514,3,1,234,20,1,1,1,503
1515,3,1,235,10,1,1,1,537
1516,3,1,236,5,0,0,1,477
1517,3,1,237,20,1,1,1,406
1518,3,1,238,20,0,0,1,699
1519,3,1,239,20,1,1,1,440
1520,3,1,240,2,1,1,1,693
1521,3,1,241,32,0,0,0,20
1522,3,1,242,5,1,1,1,518
1523,3,1,243,1,1,1,1,460
1524,3,1,244,20,1,1,1,514
1525,3,1,245,5,1,1,1,613
1526,3,1,246,10,1,1,1,408
1527,3,1,247,10,1,1,1,662
1528,3,1,248,10,1,1,1,441
1529,3,1,249,10,1,1,1,450
1530,3,1,250,2,0,0,1,474
1531,3,1,251,20,1,1,1,422
1532,3,1,252,20,1,1,1,393
1533,3,1,253,5,0,0,1,421
1534,3,1,254,10,1,1,1,359
1535,3,1,255,32,1,1,1,376
1536,3,1,256,2,0,0,1,378
1537,3,1,257,32,0,0,1,447
1538,3,1,258,2,1,1,1,351
1539,3,1,259,20,1,1,1,734
1540,3,1,260,2,1,1,1,572
1541,3,1,261,32,0,0,1,537
1542,3,1,262,20,0,0,1,522
1543,3,1,263,10,0,0,1,805
1544,3,1,264,5,1,1,1,550
1545,3,1,265,20,1,1,1,583
1546,3,1,266,10,0,0,1,466
1547,3,1,267,10,1,1,1,393
1548,3,1,268,1,0,0,1,386
1549,3,1,269,20,1,1,1,706
1550,3,1,270,2,1,1,1,516
1551,3,1,271,10,0,0,1,710
1552,3,1,272,2,1,1,1,481
1553,3,1,273,5,0,0,1,437
1554,3,1,274,10,1,1,1,473
1555,3,1,275,20,0,0,1,399
1556,3,1,276,5,1,1,1,588
1557,3,1,277,5,1,1,1,542
1558,3,1,278,2,0,0,1,424
1559,3,1,279,2,0,0,1,590
1560,3,1,280,5,1,1,1,411
1561,3,1,281,32,0,0,1,501
1562,3,1,282,10,1,1,1,420
1563,3,1,283,10,1,1,1,505
1564,3,1,284,20,1,1,1,607
1565,3,1,285,20,1,1,1,437
1566,3,1,286,5,1,1,1,402
1567,3,1,287,32,0,0,1,706
1568,3,1,288,5,0,0,0,417
1569,3,1,289,20,0,0,1,449
1570,3,1,290,5,0,0,1,407
1571,3,1,291,20,1,1,1,454
1572,3,1,292,2,1,1,1,499
1573,3,1,293,10,1,1,1,391
1574,3,1,294,20,1,1,1,407
1575,3,1,295,20,0,0,1,486
1576,3,1,296,32,1,1,1,620
1577,3,1,297,32,0,0,1,505
1578,3,1,298,20,0,0,1,550
1579,3,1,299,32,0,0,1,517
1580,3,1,300,32,1,1,1,469
1581,3,1,301,20,0,0,1,567
1582,3,1,302,32,0,0,1,726
1583,3,1,303,32,0,0,1,515
1584,3,1,304,20,1,1,1,389
1585,3,1,305,1,0,0,1,514
1586,3,1,306,32,1,1,1,431
1587,3,1,307,32,0,0,1,471
1588,3,1,308,20,1,1,1,360
1589,3,1,309,2,0,0,1,550
1590,3,1,310,10,0,0,1,954
1591,3,1,311,32,0,0,1,639
1592,3,1,312,20,0,0,1,427
1593,3,1,313,5,1,1,1,388
1594,3,1,314,32,0,0,1,507
1595,3,1,315,10,1,1,1,379
1596,3,1,316,5,1,1,1,359
1597,3,1,317,2,1,1,1,1463
1598,3,1,318,1,0,0,1,609
1599,3,1,319,32,1,1,1,637
1600,3,1,320,20,1,1,1,832
1601,3,1,321,2,1,1,1,668
1602,3,1,322,2,1,1,1,646
1603,3,1,323,10,1,1,1,360
1604,3,1,324,10,1,1,1,388
1605,3,1,325,32,1,1,1,362
1606,3,1,326,2,1,1,1,443
1607,3,1,327,20,1,1,1,732
1608,3,1,328,10,0,0,1,639
1609,3,1,329,20,0,0,1,424
1610,3,1,330,5,0,0,1,510
1611,3,1,331,5,0,0,1,524
1612,3,1,332,5,1,1,1,531
1613,3,1,333,5,0,0,1,667
1614,3,1,334,10,0,0,1,611
1615,3,1,335,32,1,1,1,444
1616,3,1,336,20,1,1,1,486
1617,3,1,337,32,1,1,1,565
1618,3,1,338,10,1,1,1,557
1619,3,1,339,32,1,1,1,652
1620,3,1,340,2,0,0,1,816
1621,3,1,341,5,1,1,1,408
1622,3,1,342,32,1,1,1,417
1623,3,1,343,10,0,0,1,576
1624,3,1,344,32,0,0,1,855
1625,3,1,345,1,1,1,1,503
1626,3,1,346,32,1,1,1,459
1627,3,1,347,32,1,1,1,385
1628,3,1,348,20,0,0,1,525
1629,3,1,349,2,0,0,1,561
1630,3,1,350,2,0,0,1,438
1631,3,1,351,32,0,0,1,345
1632,3,1,352,2,0,0,1,540
1633,3,1,353,32,0,0,1,435
1634,3,1,354,2,1,1,1,391
1635,3,1,355,32,1,1,1,416
1636,3,1,356,10,1,1,1,405
1637,3,1,357,32,0,0,1,561
1638,3,1,358,5,1,1,1,618
1639,3,1,359,10,0,0,1,448
1640,3,1,360,10,1,1,1,830
1641,3,1,361,20,1,1,1,636
1642,3,1,362,2,0,0,1,384
1643,3,1,363,20,1,1,1,377
1644,3,1,364,2,0,0,0,370
1645,3,1,365,32,0,0,1,532
1646,3,1,366,20,0,0,1,533
1647,3,1,367,32,0,0,1,436
1648,3,1,368,5,1,1,1,318
1649,3,1,369,1,0,0,1,351
1650,3,1,370,2,1,1,1,418
1651,3,1,371,5,0,0,1,388
1652,3,1,372,20,1,1,1,523
1653,3,1,373,20,0,0,1,589
1654,3,1,374,20,0,0,1,587
1655,3,1,375,2,0,0,1,429
1656,3,1,376,20,1,1,1,489
1657,3,1,377,2,0,0,1,527
1658,3,1,378,20,0,0,1,432
1659,3,1,379,10,0,0,1,409
1660,3,1,380,20,0,0,1,646
1661,3,1,381,20,1,1,1,588
1662,3,1,382,32,0,0,1,483
1663,3,1,383,20,0,0,1,474
1664,3,1,384,5,1,1,1,408
1665,3,1,385,32,1,1,1,417
1666,3,1,386,32,1,1,1,535
1667,3,1,387,5,0,0,1,476
1668,3,1,388,2,0,0,1,459
1669,3,1,389,20,0,0,1,448
1670,3,1,390,10,0,0,0,391
1671,3,1,391,1,0,0,1,334
1672,3,1,392,2,1,1,1,415
1673,3,1,393,2,1,1,1,492
1674,3,1,394,5,0,0,1,421
1675,3,1,395,32,0,0,1,425
1676,3,1,396,20,0,0,1,436
1677,3,1,397,20,0,0,1,459
1678,3,1,398,5,0,0,1,390
1679,3,1,399,5,1,1,0,413
1680,3,1,400,32,1,1,1,437
1681,3,1,401,5,0,0,1,732
1682,3,1,402,5,0,0,1,363
1683,3,1,403,5,1,1,1,514
1684,3,1,404,32,0,0,1,422
1685,3,1,405,20,0,0,1,406
1686,3,1,406,2,1,1,1,511
1687,3,1,407,10,0,0,1,389
1688,3,1,408,32,1,1,1,475
1689,3,1,409,2,1,1,1,536
1690,3,1,410,2,0,0,1,465
1691,3,1,411,5,0,0,1,503
1692,3,1,412,2,1,1,1,655
1693,3,1,413,10,0,0,1,597
1694,3,1,414,2,1,1,1,620
1695,3,1,415,5,1,1,1,409
1696,3,1,416,2,0,0,1,568
1697,3,1,417,5,1,1,1,384
1698,3,1,418,20,0,0,1,356
1699,3,1,419,10,0,0,1,528
1700,3,1,420,10,0,0,1,404
1701,3,1,421,20,0,0,1,572
1702,3,1,422,20,1,1,1,543
1703,3,1,423,5,1,1,1,510
1704,3,1,424,32,0,0,1,447
1705,3,1,425,32,0,0,1,469
1706,3,1,426,32,1,1,1,734
1707,3,1,427,20,0,0,1,430
1708,3,1,428,20,0,0,1,765
1709,3,1,429,2,1,1,1,788
1710,3,1,430,32,0,0,1,472
1711,3,1,431,5,0,0,1,457
1712,3,1,432,10,1,1,1,1055
1713,3,1,433,2,1,1,1,394
1714,3,1,434,10,0,0,1,756
1715,3,1,435,5,1,1,1,520
1716,3,1,436,32,1,1,1,397
1717,3,1,437,5,0,0,1,469
1718,3,1,438,2,1,1,1,430
1719,3,1,439,5,0,0,1,478
1720,3,1,440,32,0,0,1,510
1721,3,1,441,2,0,0,1,917
1722,3,1,442,2,0,0,1,407
1723,3,1,443,32,0,0,1,464
1724,3,1,444,5,1,1,1,396
1725,3,1,445,32,1,1,1,443
1726,3,1,446,2,0,0,1,367
1727,3,1,447,5,0,0,1,540
1728,3,1,448,10,1,1,1,405
1729,3,1,449,2,1,1,1,593
1730,3,1,450,32,1,1,1,453
1731,3,1,451,5,1,1,0,437
1732,3,1,452,20,1,1,1,357
1733,3,1,453,5,1,1,1,470
1734,3,1,454,2,0,0,1,515
1735,3,1,455,1,1,1,1,449
1736,3,1,456,32,1,1,1,793
1737,3,1,457,32,1,1,1,678
1738,3,1,458,10,0,0,1,868
1739,3,1,459,2,0,0,1,568
1740,3,1,460,5,1,1,1,654
1741,3,1,461,10,1,1,1,450
1742,3,1,462,10,1,1,1,452
1743,3,1,463,10,1,1,1,848
1744,3,1,464,1,1,1,1,536
1745,3,1,465,20,0,0,1,486
1746,3,1,466,2,0,0,1,621
1747,3,1,467,5,0,0,1,677
1748,3,1,468,32,1,1,1,550
1749,3,1,469,10,0,0,1,416
1750,3,1,470,5,1,1,1,598
1751,3,1,471,32,0,0,1,520
1752,3,1,472,32,0,0,1,476
1753,3,1,473,32,1,1,1,369
1754,3,1,474,32,1,1,1,459
1755,3,1,475,5,0,0,1,529
1756,3,1,476,10,1,1,1,495
1757,3,1,477,32,0,0,1,400
1758,3,1,478,1,0,0,1,426
1759,3,1,479,5,1,1,1,365
1760,3,1,480,20,1,1,1,414
1761,3,1,481,1,0,0,1,554
1762,3,1,482,10,0,0,1,579
1763,3,1,483,5,0,0,1,477
1764,3,1,484,2,1,1,1,339
1765,3,1,485,20,0,0,0,681
1766,3,1,486,10,0,0,1,481
1767,3,1,487,10,0,0,1,372
1768,3,1,488,20,0,0,1,398
1769,3,1,489,20,1,1,1,524
1770,3,1,490,10,1,1,1,734
1771,3,1,491,5,1,1,0,374
1772,3,1,492,5,1,1,1,367
1773,3,1,493,10,1,1,1,480
1774,3,1,494,5,1,1,1,359
1775,3,1,495,1,1,1,1,406
1776,3,1,496,10,0,0,0,429
1777,3,1,497,1,0,0,1,424
1778,3,1,498,20,0,0,1,395
1779,3,1,499,20,0,0,1,364
1780,3,1,500,32,1,1,1,447
1781,3,1,501,20,1,1,1,467
1782,3,1,502,32,1,1,1,525
1783,3,1,503,10,0,0,1,485
1784,3,1,504,20,1,1,1,378
1785,3,1,505,2,0,0,1,423
1786,3,1,506,10,1,1,1,545
1787,3,1,507,20,0,0,1,377
1788,3,1,508,32,1,1,1,510
1789,3,1,509,2,1,1,1,514
1790,3,1,510,2,0,0,1,649
1791,3,1,511,5,0,0,1,559
1792,3,1,512,32,0,0,1,566
1793,3,1,513,5,0,0,1,556
1794,3,1,514,20,1,1,1,620
1795,3,1,515,20,0,0,1,457
1796,3,1,516,20,1,1,1,839
1797,3,1,517,20,1,1,1,932
1798,3,1,518,2,1,1,1,365
1799,3,1,519,5,0,0,1,470
1800,3,1,520,2,1,1,1,477
1801,3,1,521,5,1,1,1,587
1802,3,1,522,5,0,0,1,481
1803,3,1,523,2,0,0,1,644
1804,3,1,524,1,1,1,1,392
1805,3,1,525,2,0,0,1,490
1806,3,1,526,20,1,1,1,432
1807,3,1,527,2,1,1,1,374
1808,3,1,528,2,0,0,1,778
1809,3,1,529,2,1,1,1,442
1810,3,1,530,32,0,0,1,694
1811,3,1,531,2,1,1,1,403
1812,3,1,532,10,0,0,1,650
1813,3,1,533,10,0,0,1,407
1814,3,1,534,32,0,0,1,450
1815,3,1,535,2,1,1,1,551
1816,3,1,536,1,0,0,1,548
1817,3,1,537,10,1,1,1,544
1818,3,1,538,20,1,1,1,436
1819,3,1,539,5,1,1,1,426
1820,3,1,540,2,1,1,1,379
1821,3,1,541,5,0,0,1,702
1822,3,1,542,5,1,1,1,425
1823,3,1,543,32,0,0,1,1046
1824,3,1,544,1,1,1,1,439
1825,3,1,545,1,1,1,1,389
1826,3,1,546,32,0,0,1,522
1827,3,1,547,32,1,1,1,1151
1828,3,1,548,5,0,0,1,500
1829,3,1,549,1,0,0,1,409
1830,3,1,550,32,0,0,1,575
1831,3,1,551,20,0,0,1,685
1832,3,1,552,2,1,1,1,444
1833,3,1,553,5,1,1,1,813
1834,3,1,554,10,0,0,1,667
1835,3,1,555,5,0,0,1,472
1836,3,1,556,10,1,1,1,484
1837,3,1,557,32,1,1,1,450
1838,3,1,558,10,1,1,1,431
1839,3,1,559,20,1,1,1,385
1840,3,1,560,1,1,1,1,1508
1841,3,1,561,32,1,1,1,505
1842,3,1,562,20,0,0,1,506
1843,3,1,563,20,1,1,1,458
1844,3,1,564,20,0,0,1,420
1845,3,1,565,2,1,1,1,427
1846,3,1,566,1,1,1,1,1020
1847,3,1,567,10,0,0,1,464
1848,3,1,568,32,0,0,1,570
1849,3,1,569,20,1,1,1,551
1850,3,1,570,32,1,1,1,1089
1851,3,1,571,32,1,1,1,593
1852,3,1,572,5,0,0,1,666
1853,3,1,573,20,1,1,1,777
1854,3,1,574,10,1,1,1,748
1855,3,1,575,5,0,0,1,868
1856,3,1,576,10,1,1,1,614
1857,3,1,577,32,1,1,1,857
1858,3,1,578,2,1,1,1,611
1859,3,1,579,2,1,1,1,1093
1860,3,1,580,2,1,1,1,356
1861,3,1,581,10,1,1,1,629
1862,3,1,582,2,0,0,1,326
1863,3,1,583,32,0,0,1,366
1864,3,1,584,20,1,1,1,318
1865,3,1,585,10,0,0,1,401
1866,3,1,586,20,0,0,1,545
1867,3,1,587,1,0,0,1,467
1868,3,1,588,32,0,0,0,373
1869,3,1,589,2,1,1,0,271
1870,3,1,590,10,1,1,1,305
1871,3,1,591,10,1,1,1,351
1872,3,1,592,5,0,0,1,508
1873,3,1,593,10,0,0,1,577
1874,3,1,594,10,0,0,1,561
1875,3,1,595,10,1,1,1,1890
1876,3,1,596,1,1,1,1,433
1877,3,1,597,2,0,0,1,626
1878,3,1,598,10,1,1,1,472
1879,3,1,599,2,1,1,1,644
1880,3,1,600,2,0,0,1,537
1881,3,1,601,2,1,1,1,610
1882,3,1,602,1,1,1,1,414
1883,3,1,603,5,0,0,1,419
1884,3,1,604,10,0,0,1,492
1885,3,1,605,10,1,1,1,360
1886,3,1,606,2,0,0,1,365
1887,3,1,607,1,0,0,0,297
1888,3,1,608,10,0,0,1,465
1889,3,1,609,32,0,0,1,435
1890,3,1,610,20,0,0,1,470
1891,3,1,611,2,1,1,1,399
1892,3,1,612,10,0,0,1,308
1893,3,1,613,20,1,1,1,344
1894,3,1,614,5,1,1,1,769
1895,3,1,615,1,0,0,1,320
1896,3,1,616,5,0,0,1,413
1897,3,1,617,20,1,1,1,472
1898,3,1,618,5,0,0,1,541
1899,3,1,619,10,1,1,1,368
1900,3,1,620,5,0,0,1,577
1901,3,1,621,32,0,0,0,359
1902,3,1,622,5,0,0,1,411
1903,3,1,623,5,0,0,1,401
1904,3,1,624,20,1,1,1,561
1905,3,1,625,5,1,1,1,1025
1906,3,1,626,20,0,0,1,488
1907,3,1,627,2,1,1,1,351
1908,3,1,628,5,0,0,1,465
1909,3,1,629,10,0,0,1,692
1910,3,1,630,2,0,0,1,623
1911,3,1,631,32,1,1,1,687
1912,3,1,632,20,1,1,1,570
1913,3,1,633,10,1,1,1,525
1914,3,1,634,2,1,1,1,487
1915,3,1,635,5,1,1,1,588
1916,3,1,636,20,1,1,1,568
1917,3,1,637,2,0,0,1,418
1918,3,1,638,5,1,1,1,385
1919,3,1,639,10,0,0,1,373
1920,3,1,640,5,0,0,1,358
1921,4,1,1,32,0,0,1,606
1922,4,1,2,10,1,1,1,465
1923,4,1,3,10,0,0,1,606
1924,4,1,4,32,0,0,1,456
1925,4,1,5,10,0,0,1,523
1926,4,1,6,5,0,0,1,367
1927,4,1,7,32,1,1,1,583
1928,4,1,8,1,1,1,1,464
1929,4,1,9,10,1,1,1,619
1930,4,1,10,20,0,0,1,671
1931,4,1,11,1,1,1,1,540
1932,4,1,12,5,0,0,1,407
1933,4,1,13,2,0,0,1,800
1934,4,1,14,10,1,1,1,615
1935,4,1,15,10,1,1,1,567
1936,4,1,16,32,0,0,1,566
1937,4,1,17,5,1,1,1,561
1938,4,1,18,2,0,0,1,463
1939,4,1,19,32,1,1,1,550
1940,4,1,20,10,0,0,1,403
1941,4,1,21,2,1,1,1,326
1942,4,1,22,32,1,1,1,546
1943,4,1,23,1,1,1,1,389
1944,4,1,24,20,0,0,1,830
1945,4,1,25,2,0,0,1,537
1946,4,1,26,5,1,1,1,364
1947,4,1,27,2,1,1,1,488
1948,4,1,28,20,1,1,1,565
1949,4,1,29,20,1,1,1,585
1950,4,1,30,32,1,1,1,463
1951,4,1,31,5,0,0,1,423
1952,4,1,32,20,1,1,1,539
1953,4,1,33,32,0,0,1,588
1954,4,1,34,20,0,0,1,633
1955,4,1,35,5,1,1,1,346
1956,4,1,36,5,1,1,1,414
1957,4,1,37,32,1,1,0,461
1958,4,1,38,20,1,1,1,618
1959,4,1,39,20,0,0,1,765
1960,4,1,40,10,1,1,1,530
1961,4,1,41,5,0,0,1,555
1962,4,1,42,1,0,0,1,436
1963,4,1,43,5,0,0,1,448
1964,4,1,44,10,0,0,1,614
1965,4,1,45,5,1,1,1,479
1966,4,1,46,10,0,0,1,573
1967,4,1,47,20,1,1,1,504
1968,4,1,48,10,1,1,1,512
1969,4,1,49,20,1,1,1,561
1970,4,1,50,2,0,0,1,540
1971,4,1,51,2,1,1,1,369
1972,4,1,52,5,0,0,1,587
1973,4,1,53,5,1,1,1,911
1974,4,1,54,2,0,0,1,526
1975,4,1,55,20,0,0,1,666
1976,4,1,56,5,1,1,1,462
1977,4,1,57,1,0,0,1,1442
1978,4,1,58,2,0,0,1,507
1979,4,1,59,5,1,1,1,645
1980,4,1,60,2,1,1,1,526
1981,4,1,61,1,1,1,1,436
1982,4,1,62,20,0,0,1,680
1983,4,1,63,20,0,0,1,456
1984,4,1,64,2,1,1,1,426
1985,4,1,65,10,1,1,1,406
1986,4,1,66,10,0,0,1,452
1987,4,1,67,5,0,0,1,387
1988,4,1,68,10,0,0,1,684
1989,4,1,69,10,1,1,1,458
1990,4,1,70,32,0,0,1,629
1991,4,1,71,10,0,0,1,555
1992,4,1,72,10,0,0,1,1341
1993,4,1,73,32,0,0,1,429
1994,4,1,74,32,0,0,1,465
1995,4,1,75,20,0,0,1,544
1996,4,1,76,5,1,1,1,430
1997,4,1,77,10,0,0,1,538
1998,4,1,78,10,1,1,1,619
1999,4,1,79,32,1,1,1,477
2000,4,1,80,10,1,1,1,509
2001,4,1,81,10,1,1,1,490
2002,4,1,82,20,1,1,1,770
2003,4,1,83,5,0,0,1,428
2004,4,1,84,2,1,1,1,529
2005,4,1,85,10,1,1,1,412
2006,4,1,86,20,0,0,1,683
2007,4,1,87,2,1,1,1,422
2008,4,1,88,1,1,1,1,343
2009,4,1,89,5,0,0,1,545
2010,4,1,90,10,1,1,1,360
2011,4,1,91,1,0,0,1,384
2012,4,1,92,32,1,1,1,627
2013,4,1,93,10,1,1,1,550
2014,4,1,94,20,0,0,1,505
2015,4,1,95,10,1,1,1,597
2016,4,1,96,5,1,1,1,388
2017,4,1,97,10,0,0,1,609
2018,4,1,98,20,0,0,1,421
2019,4,1,99,5,1,1,1,517
2020,4,1,100,5,1,1,1,541
2021,4,1,101,5,0,0,1,514
2022,4,1,102,5,0,0,1,490
2023,4,1,103,32,1,1,1,508
2024,4,1,104,32,1,1,1,469
2025,4,1,105,1,0,0,1,347
2026,4,1,106,10,0,0,1,575
2027,4,1,107,32,0,0,1,503
2028,4,1,108,2,0,0,1,418
2029,4,1,109,5,0,0,1,300
2030,4,1,110,10,1,1,1,630
2031,4,1,111,5,0,0,1,318
2032,4,1,112,5,1,1,1,491
2033,4,1,113,32,0,0,1,444
2034,4,1,114,1,1,1,1,444
2035,4,1,115,2,1,1,1,655
2036,4,1,116,5,0,0,1,530
2037,4,1,117,20,1,1,1,379
2038,4,1,118,20,0,0,1,552
2039,4,1,119,10,1,1,1,414
2040,4,1,120,20,1,1,1,677
2041,4,1,121,5,1,1,1,412
2042,4,1,122,32,0,0,1,530
2043,4,1,123,1,0,0,1,321
2044,4,1,124,2,1,1,1,344
2045,4,1,125,20,0,0,1,382
2046,4,1,126,32,1,1,0,396
2047,4,1,127,2,1,1,1,416
2048,4,1,128,2,0,0,1,495
2049,4,1,129,32,1,1,1,618
2050,4,1,130,2,0,0,1,432
2051,4,1,131,20,0,0,1,545
2052,4,1,132,2,0,0,1,418
2053,4,1,133,20,1,1,1,716
2054,4,1,134,5,0,0,1,572
2055,4,1,135,2,1,1,1,451
2056,4,1,136,10,0,0,1,503
2057,4,1,137,2,0,0,1,474
2058,4,1,138,20,1,1,1,571
2059,4,1,139,2,1,1,0,386
2060,4,1,140,5,0,0,1,621
2061,4,1,141,2,0,0,1,485
2062,4,1,142,10,0,0,1,532
2063,4,1,143,10,1,1,1,694
2064,4,1,144,20,0,0,1,1713
2065,4,1,145,1,1,1,1,446
2066,4,1,146,32,1,1,1,502
2067,4,1,147,2,0,0,1,418
2068,4,1,148,20,1,1,1,615
2069,4,1,149,5,1,1,1,567
2070,4,1,150,1,1,1,1,462
2071,4,1,151,5,0,0,1,457
2072,4,1,152,32,0,0,1,762
2073,4,1,153,5,0,0,1,1580
2074,4,1,154,32,1,1,1,571
2075,4,1,155,20,1,1,1,690
2076,4,1,156,20,1,1,1,538
2077,4,1,157,20,1,1,1,741
2078,4,1,158,5,1,1,1,1341
2079,4,1,159,20,0,0,1,922
2080,4,1,160,1,0,0,1,422
2081,4,1,161,10,1,1,1,1444
2082,4,1,162,10,0,0,1,525
2083,4,1,163,10,1,1,1,391
2084,4,1,164,1,0,0,1,540
2085,4,1,165,32,0,0,1,663
2086,4,1,166,5,1,1,1,1006
2087,4,1,167,10,1,1,1,554
2088,4,1,168,2,0,0,1,395
2089,4,1,169,32,0,0,1,536
2090,4,1,170,2,1,1,1,373
2091,4,1,171,10,1,1,1,528
2092,4,1,172,2,0,0,1,491
2093,4,1,173,20,1,1,1,389
2094,4,1,174,32,0,0,1,403
2095,4,1,175,2,0,0,1,545
2096,4,1,176,2,0,0,1,515
2097,4,1,177,32,0,0,1,697
2098,4,1,178,2,0,0,1,501
2099,4,1,179,20,1,1,1,714
2100,4,1,180,20,0,0,1,547
2101,4,1,181,5,0,0,1,672
2102,4,1,182,32,1,1,1,635
2103,4,1,183,10,0,0,1,552
2104,4,1,184,32,0,0,1,626
2105,4,1,185,10,1,1,1,779
2106,4,1,186,5,1,1,1,652
2107,4,1,187,2,0,0,1,437
2108,4,1,188,10,1,1,1,488
2109,4,1,189,32,1,1,1,699
2110,4,1,190,5,0,0,1,468
2111,4,1,191,32,1,1,1,539
2112,4,1,192,32,1,1,1,352
2113,4,1,193,10,0,0,1,574
2114,4,1,194,32,0,0,1,813
2115,4,1,195,2,1,1,1,535
2116,4,1,196,5,0,0,1,367
2117,4,1,197,5,0,0,1,590
2118,4,1,198,32,0,0,1,664
2119,4,1,199,2,1,1,1,412
2120,4,1,200,32,1,1,1,639
2121,4,1,201,20,1,1,1,599
2122,4,1,202,20,0,0,1,503
2123,4,1,203,20,0,0,1,634
2124,4,1,204,5,0,0,1,446
2125,4,1,205,2,0,0,1,568
2126,4,1,206,10,0,0,1,355
2127,4,1,207,32,1,1,1,649
2128,4,1,208,20,0,0,1,524
2129,4,1,209,32,1,1,1,686
2130,4,1,210,5,1,1,1,566
2131,4,1,211,2,0,0,1,451
2132,4,1,212,20,1,1,1,635
2133,4,1,213,2,0,0,1,392
2134,4,1,214,5,1,1,1,576
2135,4,1,215,2,0,0,1,588
2136,4,1,216,2,0,0,1,409
2137,4,1,217,20,0,0,1,669
2138,4,1,218,32,0,0,1,462
2139,4,1,219,20,0,0,1,585
2140,4,1,220,32,0,0,1,511
2141,4,1,221,1,0,0,1,449
2142,4,1,222,32,1,1,1,657
2143,4,1,223,2,0,0,1,427
2144,4,1,224,20,1,1,1,380
2145,4,1,225,20,1,1,1,574
2146,4,1,226,20,0,0,1,629
2147,4,1,227,1,1,1,1,427
2148,4,1,228,1,0,0,1,424
2149,4,1,229,2,1,1,1,474
2150,4,1,230,32,1,1,1,722
2151,4,1,231,2,1,1,1,474
2152,4,1,232,20,1,1,1,1509
2153,4,1,233,1,1,1,1,426
2154,4,1,234,2,1,1,1,328
2155,4,1,235,20,0,0,1,612
2156,4,1,236,2,1,1,1,552
2157,4,1,237,2,1,1,1,582
2158,4,1,238,10,0,0,1,664
2159,4,1,239,2,0,0,1,511
2160,4,1,240,2,1,1,1,538
2161,4,1,241,32,1,1,1,508
2162,4,1,242,32,0,0,1,524
2163,4,1,243,20,1,1,1,694
2164,4,1,244,20,1,1,1,894
2165,4,1,245,5,0,0,1,557
2166,4,1,246,20,0,0,1,630
2167,4,1,247,20,1,1,1,586
2168,4,1,248,5,1,1,1,400
2169,4,1,249,32,1,1,1,567
2170,4,1,250,10,1,1,1,381
2171,4,1,251,10,0,0,1,757
2172,4,1,252,2,1,1,1,531
2173,4,1,253,5,1,1,1,630
2174,4,1,254,2,0,0,1,523
2175,4,1,255,5,1,1,1,492
2176,4,1,256,20,0,0,1,693
2177,4,1,257,5,1,1,1,551
2178,4,1,258,1,0,0,1,377
2179,4,1,259,1,0,0,1,499
2180,4,1,260,5,1,1,1,424
2181,4,1,261,32,0,0,1,510
2182,4,1,262,5,1,1,1,475
2183,4,1,263,32,1,1,1,582
2184,4,1,264,10,0,0,1,733
2185,4,1,265,20,0,0,1,943
2186,4,1,266,2,1,1,1,462
2187,4,1,267,1,1,1,1,372
2188,4,1,268,1,0,0,1,383
2189,4,1,269,5,0,0,1,434
2190,4,1,270,20,0,0,1,527
2191,4,1,271,2,1,1,1,474
2192,4,1,272,10,1,1,1,582
2193,4,1,273,10,0,0,1,490
2194,4,1,274,32,1,1,1,539
2195,4,1,275,10,1,1,1,542
2196,4,1,276,32,0,0,1,535
2197,4,1,277,32,1,1,1,517
2198,4,1,278,20,1,1,1,553
2199,4,1,279,5,0,0,1,731
2200,4,1,280,20,1,1,1,484
2201,4,1,281,5,1,1,1,465
2202,4,1,282,10,0,0,1,613
2203,4,1,283,5,1,1,1,360
2204,4,1,284,20,0,0,1,421
2205,4,1,285,2,0,0,1,563
2206,4,1,286,20,0,0,1,477
2207,4,1,287,10,0,0,1,378
2208,4,1,288,5,0,0,1,409
2209,4,1,289,20,0,0,1,439
2210,4,1,290,2,0,0,1,508
2211,4,1,291,20,1,1,1,632
2212,4,1,292,2,0,0,1,508
2213,4,1,293,2,0,0,1,437
2214,4,1,294,32,0,0,1,506
2215,4,1,295,32,1,1,1,597
2216,4,1,296,32,0,0,1,544
2217,4,1,297,32,1,1,1,517
2218,4,1,298,2,1,1,1,441
2219,4,1,299,20,0,0,1,558
2220,4,1,300,5,1,1,1,451
2221,4,1,301,10,0,0,1,499
2222,4,1,302,1,0,0,1,534
2223,4,1,303,2,1,1,1,411
2224,4,1,304,2,1,1,1,411
2225,4,1,305,20,1,1,1,755
2226,4,1,306,32,1,1,1,545
2227,4,1,307,32,0,0,1,652
2228,4,1,308,10,0,0,1,668
2229,4,1,309,2,1,1,1,363
2230,4,1,310,5,0,0,1,553
2231,4,1,311,2,0,0,1,484
2232,4,1,312,20,1,1,1,569
2233,4,1,313,32,0,0,1,580
2234,4,1,314,5,1,1,1,447
2235,4,1,315,32,1,1,1,507
2236,4,1,316,2,1,1,1,462
2237,4,1,317,20,1,1,1,473
2238,4,1,318,20,1,1,1,619
2239,4,1,319,20,0,0,1,545
2240,4,1,320,32,0,0,1,508
2241,4,1,321,20,0,0,1,468
2242,4,1,322,2,0,0,1,388
2243,4,1,323,5,0,0,1,583
2244,4,1,324,20,1,1,1,1003
2245,4,1,325,2,1,1,1,2042
2246,4,1,326,20,0,0,1,512
2247,4,1,327,20,0,0,1,386
2248,4,1,328,10,0,0,1,452
2249,4,1,329,10,1,1,1,489
2250,4,1,330,10,0,0,1,508
2251,4,1,331,5,0,0,1,476
2252,4,1,332,1,0,0,1,532
2253,4,1,333,10,0,0,1,430
2254,4,1,334,32,1,1,1,524
2255,4,1,335,20,1,1,1,602
2256,4,1,336,2,0,0,1,367
2257,4,1,337,20,0,0,1,945
2258,4,1,338,5,1,1,1,460
2259,4,1,339,2,0,0,1,368
2260,4,1,340,2,0,0,1,369
2261,4,1,341,5,1,1,1,408
2262,4,1,342,5,0,0,1,479
2263,4,1,343,10,1,1,1,551
2264,4,1,344,32,1,1,1,533
2265,4,1,345,2,0,0,1,396
2266,4,1,346,1,1,1,1,510
2267,4,1,347,32,1,1,1,521
2268,4,1,348,2,1,1,1,532
2269,4,1,349,10,0,0,1,526
2270,4,1,350,32,0,0,1,575
2271,4,1,351,10,0,0,1,528
2272,4,1,352,5,1,1,1,427
2273,4,1,353,5,1,1,1,418
2274,4,1,354,10,0,0,1,724
2275,4,1,355,32,1,1,1,690
2276,4,1,356,10,0,0,1,454
2277,4,1,357,20,0,0,1,438
2278,4,1,358,32,0,0,1,601
2279,4,1,359,2,0,0,1,386
2280,4,1,360,10,0,0,1,448
2281,4,1,361,32,1,1,1,1320
2282,4,1,362,20,1,1,1,466
2283,4,1,363,32,0,0,1,783
2284,4,1,364,32,0,0,1,546
2285,4,1,365,5,0,0,1,493
2286,4,1,366,20,1,1,1,696
2287,4,1,367,5,0,0,1,536
2288,4,1,368,10,0,0,1,406
2289,4,1,369,2,0,0,1,368
2290,4,1,370,20,1,1,1,1391
2291,4,1,371,32,0,0,1,676
2292,4,1,372,5,0,0,1,532
2293,4,1,373,5,1,1,1,688
2294,4,1,374,20,1,1,1,685
2295,4,1,375,10,1,1,1,480
2296,4,1,376,10,1,1,1,443
2297,4,1,377,2,1,1,1,667
2298,4,1,378,2,1,1,1,554
2299,4,1,379,32,1,1,1,525
2300,4,1,380,2,1,1,1,423
2301,4,1,381,20,0,0,0,434
2302,4,1,382,2,0,0,1,460
2303,4,1,383,10,1,1,1,488
2304,4,1,384,2,1,1,1,403
2305,4,1,385,10,0,0,1,657
2306,4,1,386,2,1,1,1,499
2307,4,1,387,10,1,1,1,617
2308,4,1,388,20,0,0,1,495
2309,4,1,389,5,1,1,1,958
2310,4,1,390,20,0,0,1,657
2311,4,1,391,10,1,1,1,672
2312,4,1,392,5,0,0,1,592
2313,4,1,393,20,0,0,1,493
2314,4,1,394,2,0,0,1,453
2315,4,1,395,2,1,1,1,492
2316,4,1,396,32,1,1,1,604
2317,4,1,397,20,0,0,1,531
2318,4,1,398,10,0,0,1,490
2319,4,1,399,1,1,1,1,502
2320,4,1,400,2,1,1,1,438
2321,4,1,401,2,0,0,1,616
2322,4,1,402,2,1,1,1,416
2323,4,1,403,20,0,0,1,463
2324,4,1,404,10,1,1,1,442
2325,4,1,405,32,0,0,1,509
2326,4,1,406,32,1,1,1,641
2327,4,1,407,2,1,1,1,448
2328,4,1,408,10,1,1,1,640
2329,4,1,409,2,0,0,1,599
2330,4,1,410,20,0,0,1,761
2331,4,1,411,5,1,1,1,751
2332,4,1,412,32,0,0,1,628
2333,4,1,413,1,1,1,1,510
2334,4,1,414,20,1,1,1,405
2335,4,1,415,2,0,0,1,633
2336,4,1,416,20,1,1,1,437
2337,4,1,417,1,1,1,1,561
2338,4,1,418,32,0,0,1,646
2339,4,1,419,20,0,0,1,594
2340,4,1,420,5,0,0,1,522
2341,4,1,421,20,1,1,1,918
2342,4,1,422,10,1,1,1,556
2343,4,1,423,32,0,0,1,623
2344,4,1,424,32,1,1,1,879
2345,4,1,425,1,1,1,1,489
2346,4,1,426,2,1,1,1,412
2347,4,1,427,20,0,0,1,620
2348,4,1,428,2,1,1,1,685
2349,4,1,429,2,0,0,1,447
2350,4,1,430,2,1,1,1,511
2351,4,1,431,10,1,1,1,593
2352,4,1,432,5,0,0,1,747
2353,4,1,433,10,0,0,1,634
2354,4,1,434,5,1,1,1,889
2355,4,1,435,2,1,1,1,562
2356,4,1,436,20,1,1,1,612
2357,4,1,437,2,0,0,1,458
2358,4,1,438,32,1,1,1,621
2359,4,1,439,2,1,1,1,417
2360,4,1,440,10,0,0,1,743
2361,4,1,441,20,1,1,1,1628
2362,4,1,442,5,0,0,1,639
2363,4,1,443,2,0,0,1,685
2364,4,1,444,2,0,0,1,668
2365,4,1,445,20,0,0,1,412
2366,4,1,446,10,1,1,1,1420
2367,4,1,447,10,0,0,1,486
2368,4,1,448,20,0,0,1,670
2369,4,1,449,10,0,0,1,449
2370,4,1,450,2,0,0,1,438
2371,4,1,451,10,1,1,1,579
2372,4,1,452,5,0,0,1,376
2373,4,1,453,10,0,0,1,468
2374,4,1,454,32,1,1,1,534
2375,4,1,455,32,1,1,1,500
2376,4,1,456,5,0,0,1,486
2377,4,1,457,20,0,0,1,608
2378,4,1,458,2,0,0,1,453
2379,4,1,459,5,1,1,1,533
2380,4,1,460,1,0,0,1,576
2381,4,1,461,2,1,1,1,383
2382,4,1,462,10,1,1,1,531
2383,4,1,463,10,0,0,0,429
2384,4,1,464,5,0,0,1,918
2385,4,1,465,1,0,0,1,443
2386,4,1,466,20,1,1,1,778
2387,4,1,467,2,0,0,1,498
2388,4,1,468,32,1,1,1,511
2389,4,1,469,10,1,1,1,394
2390,4,1,470,5,1,1,0,404
2391,4,1,471,5,1,1,1,433
2392,4,1,472,2,1,1,1,681
2393,4,1,473,32,0,0,1,570
2394,4,1,474,20,0,0,1,651
2395,4,1,475,5,0,0,1,398
2396,4,1,476,32,1,1,1,719
2397,4,1,477,20,1,1,1,725
2398,4,1,478,10,0,0,1,844
2399,4,1,479,5,1,1,1,594
2400,4,1,480,10,1,1,1,450
2401,4,1,481,32,0,0,1,500
2402,4,1,482,20,1,1,1,1075
2403,4,1,483,5,1,1,1,603
2404,4,1,484,20,1,1,1,474
2405,4,1,485,5,0,0,1,511
2406,4,1,486,5,1,1,1,395
2407,4,1,487,5,1,1,1,437
2408,4,1,488,32,0,0,1,454
2409,4,1,489,10,0,0,1,420
2410,4,1,490,10,1,1,1,466
2411,4,1,491,5,0,0,1,429
2412,4,1,492,10,0,0,1,828
2413,4,1,493,32,0,0,1,838
2414,4,1,494,2,0,0,1,436
2415,4,1,495,5,1,1,1,415
2416,4,1,496,2,1,1,1,531
2417,4,1,497,5,0,0,1,676
2418,4,1,498,20,1,1,1,410
2419,4,1,499,20,0,0,1,521
2420,4,1,500,5,0,0,1,535
2421,4,1,501,10,1,1,1,577
2422,4,1,502,5,1,1,1,497
2423,4,1,503,1,0,0,1,411
2424,4,1,504,32,1,1,1,410
2425,4,1,505,10,1,1,1,451
2426,4,1,506,32,0,0,1,738
2427,4,1,507,5,0,0,1,600
2428,4,1,508,2,1,1,1,530
2429,4,1,509,2,1,1,1,352
2430,4,1,510,5,0,0,1,596
2431,4,1,511,5,1,1,1,526
2432,4,1,512,10,1,1,1,533
2433,4,1,513,1,1,1,1,401
2434,4,1,514,5,1,1,1,538
2435,4,1,515,32,0,0,1,741
2436,4,1,516,10,1,1,1,514
2437,4,1,517,20,1,1,1,789
2438,4,1,518,32,1,1,1,669
2439,4,1,519,20,0,0,1,425
2440,4,1,520,5,1,1,1,687
2441,4,1,521,5,1,1,1,2487
2442,4,1,522,32,1,1,1,591
2443,4,1,523,20,1,1,1,772
2444,4,1,524,20,1,1,1,658
2445,4,1,525,32,0,0,1,576
2446,4,1,526,20,1,1,1,518
2447,4,1,527,32,0,0,1,449
2448,4,1,528,20,1,1,1,822
2449,4,1,529,5,1,1,1,654
2450,4,1,530,32,0,0,1,767
2451,4,1,531,5,0,0,1,434
2452,4,1,532,10,1,1,1,444
2453,4,1,533,32,0,0,1,543
2454,4,1,534,20,1,1,1,435
2455,4,1,535,10,1,1,1,635
2456,4,1,536,2,1,1,1,395
2457,4,1,537,20,1,1,1,1058
2458,4,1,538,32,1,1,1,500
2459,4,1,539,20,0,0,1,1015
2460,4,1,540,10,1,1,1,460
2461,4,1,541,20,0,0,1,1110
2462,4,1,542,32,0,0,1,832
2463,4,1,543,2,1,1,1,568
2464,4,1,544,32,1,1,1,566
2465,4,1,545,32,1,1,1,859
2466,4,1,546,10,0,0,1,519
2467,4,1,547,2,0,0,1,395
2468,4,1,548,5,0,0,1,492
2469,4,1,549,5,1,1,1,698
2470,4,1,550,5,1,1,1,445
2471,4,1,551,20,0,0,1,678
2472,4,1,552,5,0,0,1,529
2473,4,1,553,20,0,0,1,558
2474,4,1,554,32,0,0,1,424
2475,4,1,555,10,0,0,1,360
2476,4,1,556,10,1,1,1,578
2477,4,1,557,20,1,1,1,787
2478,4,1,558,2,0,0,1,406
2479,4,1,559,5,1,1,1,459
2480,4,1,560,2,0,0,1,772
2481,4,1,561,10,0,0,1,1345
2482,4,1,562,10,1,1,1,381
2483,4,1,563,32,0,0,1,448
2484,4,1,564,10,0,0,1,718
2485,4,1,565,10,0,0,1,666
2486,4,1,566,32,1,1,1,540
2487,4,1,567,10,1,1,1,514
2488,4,1,568,32,0,0,1,707
2489,4,1,569,5,1,1,1,520
2490,4,1,570,2,1,1,1,423
2491,4,1,571,5,1,1,1,397
2492,4,1,572,10,1,1,1,835
2493,4,1,573,10,0,0,1,671
2494,4,1,574,32,1,1,1,491
2495,4,1,575,1,1,1,1,442
2496,4,1,576,5,0,0,1,834
2497,4,1,577,20,0,0,1,918
2498,4,1,578,1,1,1,1,401
2499,4,1,579,5,1,1,1,537
2500,4,1,580,10,0,0,1,509
2501,4,1,581,2,1,1,1,484
2502,4,1,582,32,1,1,1,698
2503,4,1,583,1,1,1,1,442
2504,4,1,584,2,1,1,1,630
2505,4,1,585,32,1,1,1,544
2506,4,1,586,1,0,0,1,1761
2507,4,1,587,2,0,0,1,586
2508,4,1,588,32,0,0,1,770
2509,4,1,589,32,0,0,1,430
2510,4,1,590,2,1,1,1,613
2511,4,1,591,32,0,0,1,593
2512,4,1,592,32,0,0,1,426
2513,4,1,593,2,1,1,1,632
2514,4,1,594,32,0,0,1,556
2515,4,1,595,20,0,0,1,435
2516,4,1,596,20,1,1,1,546
2517,4,1,597,5,1,1,1,1056
2518,4,1,598,5,0,0,1,784
2519,4,1,599,20,1,1,1,549
2520,4,1,600,10,0,0,1,490
2521,4,1,601,5,0,0,1,611
2522,4,1,602,2,1,1,1,531
2523,4,1,603,10,1,1,1,550
2524,4,1,604,5,1,1,1,592
2525,4,1,605,1,0,0,1,441
2526,4,1,606,32,1,1,1,506
2527,4,1,607,32,1,1,1,829
2528,4,1,608,2,0,0,1,958
2529,4,1,609,10,0,0,1,767
2530,4,1,610,2,0,0,1,769
2531,4,1,611,2,0,0,1,832
2532,4,1,612,10,0,0,1,1072
2533,4,1,613,5,0,0,1,606
2534,4,1,614,10,1,1,1,786
2535,4,1,615,5,0,0,1,899
2536,4,1,616,10,0,0,1,823
2537,4,1,617,32,1,1,1,548
2538,4,1,618,32,0,0,1,931
2539,4,1,619,10,1,1,1,585
2540,4,1,620,32,1,1,1,563
2541,4,1,621,1,0,0,1,542
2542,4,1,622,10,0,0,1,678
2543,4,1,623,5,0,0,1,495
2544,4,1,624,32,1,1,1,498
2545,4,1,625,10,1,1,0,391
2546,4,1,626,32,0,0,1,655
2547,4,1,627,10,1,1,1,661
2548,4,1,628,20,1,1,1,645
2549,4,1,629,2,1,1,1,781
2550,4,1,630,5,0,0,1,729
2551,4,1,631,5,0,0,1,561
2552,4,1,632,2,1,1,1,572
2553,4,1,633,10,0,0,1,530
2554,4,1,634,10,0,0,1,636
2555,4,1,635,32,0,0,1,407
2556,4,1,636,20,0,0,1,700
2557,4,1,637,32,0,0,1,646
2558,4,1,638,2,0,0,1,486
2559,4,1,639,5,0,0,1,433
2560,4,1,640,20,1,1,1,731
2561,5,1,1,5,0,0,1,1018
2562,5,1,2,2,1,1,1,720
2563,5,1,3,1,0,0,1,363
2564,5,1,4,2,1,1,1,507
2565,5,1,5,20,1,1,1,506
2566,5,1,6,10,1,1,1,1164
2567,5,1,7,10,0,0,1,592
2568,5,1,8,32,0,0,1,441
2569,5,1,9,2,0,0,1,507
2570,5,1,10,5,1,1,1,450
2571,5,1,11,20,1,1,1,517
2572,5,1,12,32,1,1,1,501
2573,5,1,13,20,0,0,1,451
2574,5,1,14,2,1,1,1,468
2575,5,1,15,5,1,1,1,500
2576,5,1,16,32,1,1,1,508
2577,5,1,17,2,0,0,1,547
2578,5,1,18,2,1,1,1,504
2579,5,1,19,20,1,1,1,531
2580,5,1,20,2,0,0,1,426
2581,5,1,21,20,1,1,1,598
2582,5,1,22,32,0,0,1,447
2583,5,1,23,5,1,1,1,653
2584,5,1,24,32,1,1,1,501
2585,5,1,25,20,1,1,1,546
2586,5,1,26,5,1,1,1,394
2587,5,1,27,20,1,1,1,520
2588,5,1,28,5,0,0,1,541
2589,5,1,29,1,1,1,1,341
2590,5,1,30,2,1,1,1,458
2591,5,1,31,20,0,0,1,405
2592,5,1,32,1,0,0,1,468
2593,5,1,33,5,0,0,1,511
2594,5,1,34,10,0,0,1,522
2595,5,1,35,32,0,0,1,514
2596,5,1,36,20,0,0,1,495
2597,5,1,37,20,0,0,1,513
2598,5,1,38,32,0,0,1,536
2599,5,1,39,20,1,1,1,499
2600,5,1,40,2,1,1,1,430
2601,5,1,41,10,1,1,1,556
2602,5,1,42,32,0,0,1,598
2603,5,1,43,10,1,1,1,422
2604,5,1,44,32,1,1,1,440
2605,5,1,45,20,0,0,1,386
2606,5,1,46,32,0,0,1,553
2607,5,1,47,20,0,0,1,478
2608,5,1,48,2,0,0,1,333
2609,5,1,49,20,1,1,1,393
2610,5,1,50,10,1,1,1,413
2611,5,1,51,20,1,1,1,906
2612,5,1,52,10,1,1,1,353
2613,5,1,53,5,1,1,1,368
2614,5,1,54,10,0,0,1,387
2615,5,1,55,20,1,1,1,450
2616,5,1,56,1,1,1,1,1174
2617,5,1,57,5,0,0,1,521
2618,5,1,58,1,1,1,1,492
2619,5,1,59,5,0,0,1,531
2620,5,1,60,2,1,1,1,730
2621,5,1,61,32,0,0,1,492
2622,5,1,62,20,0,0,1,417
2623,5,1,63,1,0,0,1,407
2624,5,1,64,32,0,0,1,332
2625,5,1,65,32,1,1,1,528
2626,5,1,66,1,1,1,1,434
2627,5,1,67,32,0,0,1,385
2628,5,1,68,20,0,0,1,354
2629,5,1,69,32,0,0,1,430
2630,5,1,70,32,0,0,1,381
2631,5,1,71,5,0,0,1,413
2632,5,1,72,32,0,0,1,427
2633,5,1,73,10,0,0,1,393
2634,5,1,74,20,1,1,1,385
2635,5,1,75,32,0,0,1,355
2636,5,1,76,10,1,1,1,384
2637,5,1,77,5,1,1,1,410
2638,5,1,78,20,0,0,1,341
2639,5,1,79,5,0,0,1,358
2640,5,1,80,32,0,0,1,551
2641,5,1,81,20,0,0,1,419
2642,5,1,82,32,1,1,1,479
2643,5,1,83,10,0,0,1,356
2644,5,1,84,2,0,0,1,630
2645,5,1,85,5,1,1,1,515
2646,5,1,86,2,1,1,1,365
2647,5,1,87,20,1,1,1,505
2648,5,1,88,10,1,1,1,406
2649,5,1,89,32,1,1,1,658
2650,5,1,90,20,0,0,1,444
2651,5,1,91,2,1,1,1,376
2652,5,1,92,20,0,0,1,357
2653,5,1,93,10,1,1,1,498
2654,5,1,94,10,0,0,1,367
2655,5,1,95,32,0,0,1,352
2656,5,1,96,20,1,1,1,655
2657,5,1,97,5,0,0,1,357
2658,5,1,98,2,1,1,1,512
2659,5,1,99,2,0,0,1,361
2660,5,1,100,10,1,1,1,425
2661,5,1,101,20,0,0,1,479
2662,5,1,102,1,1,1,1,465
2663,5,1,103,32,0,0,1,329
2664,5,1,104,2,1,1,1,352
2665,5,1,105,20,0,0,1,300
2666,5,1,106,2,0,0,1,425
2667,5,1,107,1,1,1,1,518
2668,5,1,108,2,0,0,1,426
2669,5,1,109,32,1,1,1,539
2670,5,1,110,32,1,1,1,792
2671,5,1,111,2,0,0,1,385
2672,5,1,112,5,1,1,1,700
2673,5,1,113,20,0,0,1,477
2674,5,1,114,5,0,0,1,364
2675,5,1,115,20,1,1,1,514
2676,5,1,116,5,0,0,1,470
2677,5,1,117,10,0,0,1,381
2678,5,1,118,20,1,1,1,511
2679,5,1,119,32,1,1,1,394
2680,5,1,120,2,0,0,1,486
2681,5,1,121,32,0,0,1,653
2682,5,1,122,32,1,1,1,380
2683,5,1,123,1,1,1,1,349
2684,5,1,124,2,0,0,1,311
2685,5,1,125,5,0,0,1,320
2686,5,1,126,1,1,1,1,274
2687,5,1,127,2,1,1,1,403
2688,5,1,128,2,0,0,1,268
2689,5,1,129,5,1,1,0,294
2690,5,1,130,2,0,0,0,292
2691,5,1,131,2,1,1,1,357
2692,5,1,132,10,1,1,1,537
2693,5,1,133,20,1,1,1,545
2694,5,1,134,5,1,1,1,391
2695,5,1,135,10,0,0,1,585
2696,5,1,136,2,1,1,1,433
2697,5,1,137,5,1,1,1,362
2698,5,1,138,1,1,1,1,335
2699,5,1,139,20,1,1,1,421
2700,5,1,140,20,1,1,1,452
2701,5,1,141,5,1,1,1,359
2702,5,1,142,2,1,1,1,339
2703,5,1,143,32,0,0,1,528
2704,5,1,144,20,0,0,1,366
2705,5,1,145,10,1,1,1,402
2706,5,1,146,32,1,1,1,420
2707,5,1,147,5,1,1,1,404
2708,5,1,148,10,0,0,1,538
2709,5,1,149,32,0,0,1,509
2710,5,1,150,10,0,0,1,514
2711,5,1,151,32,1,1,1,640
2712,5,1,152,20,1,1,1,517
2713,5,1,153,10,1,1,1,469
2714,5,1,154,20,0,0,1,468
2715,5,1,155,5,0,0,1,390
2716,5,1,156,32,1,1,1,521
2717,5,1,157,10,1,1,1,564
2718,5,1,158,32,0,0,1,366
2719,5,1,159,2,1,1,1,400
2720,5,1,160,10,1,1,1,329
2721,5,1,161,20,1,1,1,440
2722,5,1,162,20,0,0,1,434
2723,5,1,163,1,0,0,1,354
2724,5,1,164,2,1,1,1,345
2725,5,1,165,5,0,0,1,511
2726,5,1,166,10,1,1,1,333
2727,5,1,167,10,0,0,1,346
2728,5,1,168,5,0,0,1,369
2729,5,1,169,5,1,1,1,409
2730,5,1,170,32,1,1,1,521
2731,5,1,171,2,1,1,1,333
2732,5,1,172,20,0,0,1,531
2733,5,1,173,5,1,1,1,373
2734,5,1,174,1,0,0,1,399
2735,5,1,175,20,1,1,1,423
2736,5,1,176,32,1,1,1,368
2737,5,1,177,32,1,1,1,396
2738,5,1,178,10,0,0,0,348
2739,5,1,179,1,0,0,1,363
2740,5,1,180,5,1,1,1,536
2741,5,1,181,5,0,0,1,375
2742,5,1,182,2,0,0,1,383
2743,5,1,183,5,1,1,1,400
2744,5,1,184,2,0,0,1,457
2745,5,1,185,2,0,0,1,447
2746,5,1,186,32,1,1,1,487
2747,5,1,187,20,1,1,1,458
2748,5,1,188,5,0,0,1,403
2749,5,1,189,10,1,1,1,381
2750,5,1,190,2,0,0,1,371
2751,5,1,191,5,1,1,1,363
2752,5,1,192,2,0,0,1,363
2753,5,1,193,20,1,1,1,422
2754,5,1,194,1,0,0,1,372
2755,5,1,195,2,0,0,1,365
2756,5,1,196,32,1,1,1,523
2757,5,1,197,32,1,1,1,427
2758,5,1,198,32,0,0,1,457
2759,5,1,199,20,0,0,1,516
2760,5,1,200,1,0,0,1,1317
2761,5,1,201,20,1,1,1,1005
2762,5,1,202,32,1,1,1,438
2763,5,1,203,32,0,0,1,467
2764,5,1,204,32,0,0,1,412
2765,5,1,205,32,0,0,1,366
2766,5,1,206,2,0,0,1,489
2767,5,1,207,5,0,0,1,346
2768,5,1,208,2,1,1,1,556
2769,5,1,209,10,0,0,1,389
2770,5,1,210,5,1,1,1,555
2771,5,1,211,20,1,1,1,639
2772,5,1,212,10,1,1,1,438
2773,5,1,213,5,0,0,1,399
2774,5,1,214,2,0,0,1,538
2775,5,1,215,5,1,1,1,533
2776,5,1,216,32,1,1,1,449
2777,5,1,217,10,1,1,1,369
2778,5,1,218,2,1,1,1,320
2779,5,1,219,10,1,1,1,368
2780,5,1,220,20,1,1,0,328
2781,5,1,221,5,1,1,1,408
2782,5,1,222,10,1,1,1,497
2783,5,1,223,2,0,0,1,390
2784,5,1,224,32,0,0,1,496
2785,5,1,225,5,1,1,1,382
2786,5,1,226,1,1,1,1,340
2787,5,1,227,2,1,1,1,362
2788,5,1,228,2,1,1,1,379
2789,5,1,229,5,1,1,1,387
2790,5,1,230,5,0,0,0,472
2791,5,1,231,2,1,1,1,343
2792,5,1,232,5,1,1,1,436
2793,5,1,233,5,1,1,1,338
2794,5,1,234,5,1,1,1,352
2795,5,1,235,32,1,1,1,460
2796,5,1,236,10,1,1,1,445
2797,5,1,237,1,0,0,1,411
2798,5,1,238,10,1,1,1,644
2799,5,1,239,20,1,1,1,749
2800,5,1,240,10,1,1,1,602
2801,5,1,241,20,1,1,1,616
2802,5,1,242,20,0,0,1,607
2803,5,1,243,2,0,0,1,311
2804,5,1,244,5,0,0,1,402
2805,5,1,245,5,1,1,1,361
2806,5,1,246,5,0,0,1,508
2807,5,1,247,5,1,1,1,452
2808,5,1,248,2,0,0,1,339
2809,5,1,249,32,1,1,1,401
2810,5,1,250,10,0,0,1,413
2811,5,1,251,10,0,0,1,429
2812,5,1,252,10,1,1,1,389
2813,5,1,253,2,1,1,1,383
2814,5,1,254,10,0,0,1,530
2815,5,1,255,2,1,1,1,423
2816,5,1,256,1,0,0,1,392
2817,5,1,257,10,0,0,1,3225
2818,5,1,258,2,0,0,1,547
2819,5,1,259,10,0,0,1,375
2820,5,1,260,2,0,0,1,315
2821,5,1,261,5,1,1,1,625
2822,5,1,262,10,0,0,1,415
2823,5,1,263,5,0,0,1,551
2824,5,1,264,20,1,1,1,404
2825,5,1,265,5,1,1,1,361
2826,5,1,266,2,1,1,1,342
2827,5,1,267,2,1,1,1,289
2828,5,1,268,20,0,0,1,453
2829,5,1,269,32,1,1,1,387
2830,5,1,270,20,0,0,1,377
2831,5,1,271,10,0,0,1,375
2832,5,1,272,1,0,0,1,395
2833,5,1,273,10,1,1,1,326
2834,5,1,274,2,0,0,1,483
2835,5,1,275,10,0,0,1,358
2836,5,1,276,10,0,0,1,429
2837,5,1,277,5,0,0,1,339
2838,5,1,278,32,0,0,1,568
2839,5,1,279,20,0,0,1,368
2840,5,1,280,1,0,0,1,308
2841,5,1,281,10,1,1,1,534
2842,5,1,282,20,0,0,1,404
2843,5,1,283,10,1,1,1,415
2844,5,1,284,32,0,0,1,413
2845,5,1,285,5,1,1,1,349
2846,5,1,286,10,0,0,1,426
2847,5,1,287,5,0,0,1,382
2848,5,1,288,10,1,1,1,425
2849,5,1,289,2,0,0,1,384
2850,5,1,290,5,1,1,1,320
2851,5,1,291,5,1,1,1,310
2852,5,1,292,1,0,0,1,614
2853,5,1,293,32,0,0,1,415
2854,5,1,294,5,0,0,1,374
2855,5,1,295,20,0,0,1,460
2856,5,1,296,2,1,1,1,381
2857,5,1,297,5,0,0,1,324
2858,5,1,298,20,1,1,1,374
2859,5,1,299,2,1,1,1,335
2860,5,1,300,32,0,0,1,428
2861,5,1,301,32,1,1,1,397
2862,5,1,302,5,1,1,1,310
2863,5,1,303,2,1,1,1,323
2864,5,1,304,1,1,1,1,291
2865,5,1,305,5,1,1,1,334
2866,5,1,306,2,1,1,1,300
2867,5,1,307,2,0,0,1,336
2868,5,1,308,2,1,1,1,343
2869,5,1,309,20,1,1,1,672
2870,5,1,310,32,0,0,1,383
2871,5,1,311,5,0,0,0,323
2872,5,1,312,20,0,0,1,375
2873,5,1,313,2,0,0,1,316
2874,5,1,314,5,0,0,1,392
2875,5,1,315,5,1,1,1,463
2876,5,1,316,32,1,1,1,477
2877,5,1,317,2,1,1,1,330
2878,5,1,318,32,0,0,1,393
2879,5,1,319,20,0,0,1,360
2880,5,1,320,5,1,1,1,438
2881,5,1,321,1,1,1,1,333
2882,5,1,322,20,0,0,1,344
2883,5,1,323,20,1,1,1,342
2884,5,1,324,5,0,0,0,367
2885,5,1,325,5,1,1,1,344
2886,5,1,326,5,1,1,1,402
2887,5,1,327,10,1,1,1,437
2888,5,1,328,20,0,0,1,399
2889,5,1,329,20,1,1,1,374
2890,5,1,330,20,0,0,0,424
2891,5,1,331,10,1,1,1,353
2892,5,1,332,32,1,1,1,492
2893,5,1,333,10,0,0,1,499
2894,5,1,334,32,1,1,1,574
2895,5,1,335,10,0,0,1,392
2896,5,1,336,10,0,0,1,429
2897,5,1,337,10,0,0,1,365
2898,5,1,338,32,1,1,1,474
2899,5,1,339,5,1,1,1,452
2900,5,1,340,1,1,1,1,370
2901,5,1,341,32,1,1,1,383
2902,5,1,342,5,0,0,1,735
2903,5,1,343,5,1,1,1,876
2904,5,1,344,10,1,1,1,464
2905,5,1,345,20,0,0,1,432
2906,5,1,346,20,1,1,1,504
2907,5,1,347,10,0,0,1,460
2908,5,1,348,10,0,0,1,520
2909,5,1,349,1,1,1,1,336
2910,5,1,350,2,0,0,1,331
2911,5,1,351,10,1,1,1,406
2912,5,1,352,10,1,1,1,372
2913,5,1,353,2,1,1,1,407
2914,5,1,354,2,0,0,1,372
2915,5,1,355,20,0,0,1,378
2916,5,1,356,10,1,1,1,402
2917,5,1,357,10,1,1,1,372
2918,5,1,358,32,0,0,0,426
2919,5,1,359,20,1,1,1,435
2920,5,1,360,2,0,0,1,410
2921,5,1,361,10,1,1,1,412
2922,5,1,362,20,0,0,1,405
2923,5,1,363,32,0,0,1,410
2924,5,1,364,5,1,1,1,390
2925,5,1,365,32,1,1,1,399
2926,5,1,366,32,1,1,1,355
2927,5,1,367,10,1,1,1,361
2928,5,1,368,32,0,0,1,524
2929,5,1,369,5,0,0,1,387
2930,5,1,370,2,0,0,1,415
2931,5,1,371,32,1,1,1,423
2932,5,1,372,10,0,0,1,508
2933,5,1,373,32,0,0,1,433
2934,5,1,374,10,1,1,1,714
2935,5,1,375,20,0,0,1,401
2936,5,1,376,2,1,1,1,422
2937,5,1,377,20,1,1,1,1037
2938,5,1,378,20,1,1,1,477
2939,5,1,379,10,1,1,1,433
2940,5,1,380,20,0,0,1,359
2941,5,1,381,20,0,0,1,397
2942,5,1,382,2,0,0,1,365
2943,5,1,383,5,0,0,1,383
2944,5,1,384,5,0,0,1,403
2945,5,1,385,2,1,1,1,654
2946,5,1,386,20,1,1,1,487
2947,5,1,387,2,0,0,1,373
2948,5,1,388,10,0,0,1,411
2949,5,1,389,32,0,0,1,420
2950,5,1,390,5,0,0,1,440
2951,5,1,391,32,0,0,1,336
2952,5,1,392,1,1,1,1,511
2953,5,1,393,20,1,1,1,491
2954,5,1,394,1,0,0,1,412
2955,5,1,395,10,0,0,1,426
2956,5,1,396,10,0,0,1,337
2957,5,1,397,32,1,1,1,605
2958,5,1,398,5,1,1,1,510
2959,5,1,399,20,1,1,1,606
2960,5,1,400,32,0,0,1,830
2961,5,1,401,10,1,1,1,659
2962,5,1,402,2,1,1,1,667
2963,5,1,403,32,1,1,1,876
2964,5,1,404,32,1,1,1,333
2965,5,1,405,32,0,0,1,518
2966,5,1,406,32,1,1,1,405
2967,5,1,407,2,0,0,1,362
2968,5,1,408,32,1,1,1,348
2969,5,1,409,32,0,0,1,635
2970,5,1,410,20,0,0,1,464
2971,5,1,411,10,0,0,1,369
2972,5,1,412,1,0,0,1,359
2973,5,1,413,32,1,1,1,477
2974,5,1,414,5,1,1,1,364
2975,5,1,415,2,0,0,1,291
2976,5,1,416,5,1,1,1,517
2977,5,1,417,32,1,1,1,539
2978,5,1,418,20,0,0,1,466
2979,5,1,419,20,1,1,1,436
2980,5,1,420,5,1,1,1,488
2981,5,1,421,2,0,0,1,334
2982,5,1,422,20,0,0,1,382
2983,5,1,423,20,0,0,1,325
2984,5,1,424,10,0,0,1,435
2985,5,1,425,10,1,1,1,646
2986,5,1,426,2,1,1,1,508
2987,5,1,427,5,1,1,1,740
2988,5,1,428,10,0,0,1,412
2989,5,1,429,20,0,0,1,404
2990,5,1,430,5,1,1,1,407
2991,5,1,431,10,1,1,1,583
2992,5,1,432,5,1,1,1,371
2993,5,1,433,20,1,1,1,901
2994,5,1,434,10,1,1,1,383
2995,5,1,435,10,0,0,1,429
2996,5,1,436,10,0,0,1,397
2997,5,1,437,2,0,0,1,359
2998,5,1,438,20,0,0,1,354
2999,5,1,439,32,1,1,1,370
3000,5,1,440,20,0,0,1,522
3001,5,1,441,10,0,0,1,381
3002,5,1,442,32,0,0,1,400
3003,5,1,443,5,0,0,1,321
3004,5,1,444,5,0,0,1,379
3005,5,1,445,10,1,1,0,387
3006,5,1,446,2,1,1,1,507
3007,5,1,447,2,0,0,1,346
3008,5,1,448,10,0,0,1,455
3009,5,1,449,20,0,0,1,386
3010,5,1,450,20,1,1,1,412
3011,5,1,451,10,1,1,1,399
3012,5,1,452,32,0,0,1,578
3013,5,1,453,20,1,1,1,497
3014,5,1,454,32,1,1,1,389
3015,5,1,455,32,1,1,1,490
3016,5,1,456,32,0,0,1,503
3017,5,1,457,10,0,0,1,450
3018,5,1,458,32,0,0,0,416
3019,5,1,459,10,0,0,1,412
3020,5,1,460,10,1,1,1,714
3021,5,1,461,5,1,1,1,391
3022,5,1,462,32,0,0,1,505
3023,5,1,463,2,0,0,1,408
3024,5,1,464,20,0,0,1,445
3025,5,1,465,32,1,1,1,441
3026,5,1,466,32,1,1,1,559
3027,5,1,467,5,0,0,1,482
3028,5,1,468,10,1,1,1,429
3029,5,1,469,10,0,0,1,407
3030,5,1,470,2,1,1,1,361
3031,5,1,471,1,0,0,1,393
3032,5,1,472,20,1,1,1,388
3033,5,1,473,10,0,0,1,383
3034,5,1,474,5,0,0,1,350
3035,5,1,475,32,0,0,1,418
3036,5,1,476,10,0,0,1,377
3037,5,1,477,5,0,0,1,365
3038,5,1,478,2,0,0,1,307
3039,5,1,479,10,0,0,1,445
3040,5,1,480,5,0,0,1,337
3041,5,1,481,2,0,0,1,835
3042,5,1,482,1,0,0,1,304
3043,5,1,483,32,1,1,1,444
3044,5,1,484,20,1,1,1,341
3045,5,1,485,5,0,0,1,351
3046,5,1,486,32,0,0,1,402
3047,5,1,487,1,1,1,1,332
3048,5,1,488,2,0,0,1,407
3049,5,1,489,2,0,0,1,428
3050,5,1,490,20,0,0,1,422
3051,5,1,491,5,0,0,1,340
3052,5,1,492,5,1,1,1,414
3053,5,1,493,10,1,1,1,432
3054,5,1,494,20,1,1,1,385
3055,5,1,495,2,1,1,1,466
3056,5,1,496,2,1,1,1,324
3057,5,1,497,20,0,0,1,545
3058,5,1,498,20,0,0,1,372
3059,5,1,499,20,1,1,1,358
3060,5,1,500,20,0,0,1,800
3061,5,1,501,5,0,0,1,418
3062,5,1,502,2,1,1,1,406
3063,5,1,503,10,0,0,1,524
3064,5,1,504,2,0,0,1,513
3065,5,1,505,20,1,1,1,497
3066,5,1,506,10,0,0,1,434
3067,5,1,507,1,1,1,1,355
3068,5,1,508,10,1,1,1,386
3069,5,1,509,20,1,1,1,430
3070,5,1,510,32,1,1,1,485
3071,5,1,511,10,1,1,1,443
3072,5,1,512,5,0,0,1,576
3073,5,1,513,5,0,0,1,515
3074,5,1,514,10,1,1,1,357
3075,5,1,515,1,0,0,1,516
3076,5,1,516,32,0,0,1,389
3077,5,1,517,5,1,1,1,377
3078,5,1,518,10,0,0,1,352
3079,5,1,519,20,0,0,1,390
3080,5,1,520,2,0,0,1,353
3081,5,1,521,2,1,1,1,433
3082,5,1,522,2,0,0,1,370
3083,5,1,523,10,0,0,1,389
3084,5,1,524,5,0,0,1,519
3085,5,1,525,20,0,0,1,489
3086,5,1,526,2,0,0,1,413
3087,5,1,527,2,1,1,1,625
3088,5,1,528,20,1,1,1,475
3089,5,1,529,32,0,0,1,413
3090,5,1,530,5,1,1,1,581
3091,5,1,531,20,0,0,1,432
3092,5,1,532,5,0,0,1,394
3093,5,1,533,1,0,0,1,292
3094,5,1,534,5,0,0,1,355
3095,5,1,535,1,1,1,1,571
3096,5,1,536,20,1,1,1,456
3097,5,1,537,2,0,0,1,375
3098,5,1,538,2,1,1,1,371
3099,5,1,539,32,0,0,1,359
3100,5,1,540,5,1,1,1,394
3101,5,1,541,32,0,0,1,368
3102,5,1,542,32,0,0,1,468
3103,5,1,543,10,0,0,1,335
3104,5,1,544,2,1,1,1,512
3105,5,1,545,2,0,0,1,353
3106,5,1,546,10,0,0,0,424
3107,5,1,547,2,1,1,1,527
3108,5,1,548,10,0,0,1,445
3109,5,1,549,20,1,1,1,432
3110,5,1,550,10,1,1,0,338
3111,5,1,551,2,1,1,1,565
3112,5,1,552,32,1,1,1,469
3113,5,1,553,5,0,0,1,560
3114,5,1,554,2,1,1,1,470
3115,5,1,555,5,1,1,1,628
3116,5,1,556,20,1,1,1,604
3117,5,1,557,20,1,1,1,408
3118,5,1,558,32,0,0,1,542
3119,5,1,559,2,1,1,1,573
3120,5,1,560,10,1,1,1,444
3121,5,1,561,20,0,0,1,530
3122,5,1,562,5,0,0,1,415
3123,5,1,563,32,0,0,1,351
3124,5,1,564,20,1,1,1,861
3125,5,1,565,32,1,1,1,567
3126,5,1,566,10,1,1,1,874
3127,5,1,567,2,0,0,1,383
3128,5,1,568,20,0,0,1,374
3129,5,1,569,32,1,1,1,456
3130,5,1,570,2,1,1,1,626
3131,5,1,571,5,0,0,1,649
3132,5,1,572,2,1,1,1,385
3133,5,1,573,10,1,1,1,527
3134,5,1,574,2,1,1,1,405
3135,5,1,575,10,1,1,1,505
3136,5,1,576,10,0,0,1,446
3137,5,1,577,10,0,0,1,434
3138,5,1,578,20,1,1,1,377
3139,5,1,579,5,0,0,0,347
3140,5,1,580,5,0,0,1,372
3141,5,1,581,32,1,1,1,463
3142,5,1,582,32,0,0,1,474
3143,5,1,583,2,0,0,1,369
3144,5,1,584,2,0,0,1,405
3145,5,1,585,32,1,1,1,543
3146,5,1,586,32,1,1,1,412
3147,5,1,587,32,0,0,1,534
3148,5,1,588,32,0,0,1,561
3149,5,1,589,32,1,1,1,500
3150,5,1,590,1,1,1,1,330
3151,5,1,591,2,0,0,1,356
3152,5,1,592,32,1,1,1,481
3153,5,1,593,2,0,0,1,426
3154,5,1,594,32,0,0,1,631
3155,5,1,595,2,1,1,1,413
3156,5,1,596,2,1,1,1,352
3157,5,1,597,5,1,1,1,343
3158,5,1,598,5,0,0,1,365
3159,5,1,599,20,0,0,1,545
3160,5,1,600,20,0,0,1,473
3161,5,1,601,10,1,1,1,457
3162,5,1,602,1,0,0,1,382
3163,5,1,603,2,1,1,1,399
3164,5,1,604,32,1,1,1,484
3165,5,1,605,10,0,0,1,466
3166,5,1,606,10,1,1,1,419
3167,5,1,607,32,0,0,1,545
3168,5,1,608,2,1,1,1,448
3169,5,1,609,5,1,1,1,342
3170,5,1,610,2,0,0,1,521
3171,5,1,611,20,0,0,1,420
3172,5,1,612,2,1,1,1,787
3173,5,1,613,32,1,1,1,464
3174,5,1,614,2,1,1,1,344
3175,5,1,615,2,0,0,1,367
3176,5,1,616,2,0,0,1,296
3177,5,1,617,32,1,1,1,1146
3178,5,1,618,10,1,1,1,427
3179,5,1,619,10,0,0,1,456
3180,5,1,620,5,0,0,0,350
3181,5,1,621,10,0,0,1,337
3182,5,1,622,1,1,1,1,423
3183,5,1,623,20,1,1,1,351
3184,5,1,624,20,0,0,1,429
3185,5,1,625,5,1,1,1,371
3186,5,1,626,32,0,0,1,459
3187,5,1,627,32,1,1,1,322
3188,5,1,628,10,1,1,1,309
3189,5,1,629,20,0,0,1,369
3190,5,1,630,20,1,1,1,455
3191,5,1,631,5,0,0,1,378
3192,5,1,632,5,1,1,1,429
3193,5,1,633,5,1,1,1,372
3194,5,1,634,5,0,0,1,401
3195,5,1,635,5,0,0,1,335
3196,5,1,636,5,0,0,1,391
3197,5,1,637,5,0,0,1,336
3198,5,1,638,10,0,0,1,335
3199,5,1,639,20,1,1,1,349
3200,5,1,640,10,0,0,1,424
3201,6,1,1,5,1,1,1,1024
3202,6,1,2,10,1,1,1,406
3203,6,1,3,20,0,0,0,407
3204,6,1,4,20,1,1,1,448
3205,6,1,5,32,0,0,1,462
3206,6,1,6,10,0,0,1,542
3207,6,1,7,5,0,0,1,424
3208,6,1,8,1,0,0,1,342
3209,6,1,9,32,1,1,1,434
3210,6,1,10,2,0,0,1,583
3211,6,1,11,32,0,0,1,697
3212,6,1,12,32,0,0,1,594
3213,6,1,13,2,1,1,1,462
3214,6,1,14,10,0,0,1,423
3215,6,1,15,20,0,0,1,543
3216,6,1,16,20,0,0,1,918
3217,6,1,17,20,1,1,1,688
3218,6,1,18,32,0,0,1,602
3219,6,1,19,10,0,0,1,503
3220,6,1,20,20,0,0,1,386
3221,6,1,21,5,0,0,1,339
3222,6,1,22,5,0,0,1,400
3223,6,1,23,5,1,1,1,536
3224,6,1,24,5,0,0,1,330
3225,6,1,25,10,1,1,1,668
3226,6,1,26,32,0,0,1,430
3227,6,1,27,2,1,1,1,419
3228,6,1,28,2,1,1,1,504
3229,6,1,29,5,0,0,1,433
3230,6,1,30,2,0,0,0,345
3231,6,1,31,5,0,0,1,398
3232,6,1,32,10,0,0,1,379
3233,6,1,33,10,0,0,1,455
3234,6,1,34,10,0,0,1,393
3235,6,1,35,32,0,0,1,502
3236,6,1,36,32,0,0,1,454
3237,6,1,37,5,0,0,1,436
3238,6,1,38,5,0,0,1,540
3239,6,1,39,10,1,1,1,621
3240,6,1,40,20,1,1,1,701
3241,6,1,41,1,0,0,1,586
3242,6,1,42,32,0,0,1,443
3243,6,1,43,5,1,1,1,417
3244,6,1,44,20,1,1,1,424
3245,6,1,45,2,1,1,1,408
3246,6,1,46,32,1,1,1,505
3247,6,1,47,2,0,0,1,361
3248,6,1,48,5,1,1,1,520
3249,6,1,49,20,0,0,1,484
3250,6,1,50,10,0,0,1,396
3251,6,1,51,2,0,0,1,385
3252,6,1,52,20,1,1,1,437
3253,6,1,53,2,1,1,1,353
3254,6,1,54,5,0,0,1,529
3255,6,1,55,32,1,1,1,478
3256,6,1,56,5,0,0,1,476
3257,6,1,57,5,0,0,1,455
3258,6,1,58,5,0,0,1,381
3259,6,1,59,5,0,0,1,428
3260,6,1,60,5,0,0,1,465
3261,6,1,61,5,1,1,1,1124
3262,6,1,62,2,0,0,1,522
3263,6,1,63,20,1,1,1,472
3264,6,1,64,1,0,0,1,418
3265,6,1,65,5,1,1,1,461
3266,6,1,66,32,1,1,1,512
3267,6,1,67,10,0,0,1,459
3268,6,1,68,1,1,1,1,480
3269,6,1,69,2,0,0,1,326
3270,6,1,70,2,1,1,1,477
3271,6,1,71,20,0,0,1,386
3272,6,1,72,1,1,1,1,378
3273,6,1,73,10,0,0,1,517
3274,6,1,74,1,0,0,1,330
3275,6,1,75,10,0,0,1,836
3276,6,1,76,10,1,1,1,589
3277,6,1,77,2,0,0,1,879
3278,6,1,78,1,0,0,1,377
3279,6,1,79,32,1,1,1,800
3280,6,1,80,20,1,1,1,408
3281,6,1,81,1,1,1,1,379
3282,6,1,82,2,0,0,1,409
3283,6,1,83,5,1,1,1,470
3284,6,1,84,10,0,0,1,633
3285,6,1,85,2,1,1,1,347
3286,6,1,86,5,1,1,1,340
3287,6,1,87,5,0,0,1,386
3288,6,1,88,20,0,0,1,448
3289,6,1,89,2,1,1,1,413
3290,6,1,90,5,1,1,1,482
3291,6,1,91,32,0,0,1,385
3292,6,1,92,5,1,1,1,467
3293,6,1,93,2,0,0,1,395
3294,6,1,94,5,1,1,1,505
3295,6,1,95,2,0,0,1,348
3296,6,1,96,5,1,1,1,492
3297,6,1,97,20,0,0,1,450
3298,6,1,98,5,0,0,1,447
3299,6,1,99,20,0,0,1,482
3300,6,1,100,5,1,1,1,997
3301,6,1,101,32,1,1,1,595
3302,6,1,102,10,1,1,1,487
3303,6,1,103,2,1,1,1,520
3304,6,1,104,20,0,0,1,347
3305,6,1,105,20,0,0,1,390
3306,6,1,106,10,0,0,1,490
3307,6,1,107,20,0,0,1,396
3308,6,1,108,20,1,1,1,623
3309,6,1,109,1,1,1,1,461
3310,6,1,110,10,1,1,1,397
3311,6,1,111,10,1,1,1,586
3312,6,1,112,10,0,0,1,355
3313,6,1,113,20,0,0,1,744
3314,6,1,114,10,0,0,1,407
3315,6,1,115,10,0,0,1,469
3316,6,1,116,32,0,0,1,494
3317,6,1,117,5,0,0,1,786
3318,6,1,118,10,1,1,1,453
3319,6,1,119,32,1,1,1,450
3320,6,1,120,20,1,1,1,408
3321,6,1,121,20,1,1,1,946
3322,6,1,122,20,1,1,1,752
3323,6,1,123,5,0,0,1,461
3324,6,1,124,2,0,0,1,407
3325,6,1,125,2,0,0,1,409
3326,6,1,126,10,1,1,1,518
3327,6,1,127,2,0,0,1,738
3328,6,1,128,10,0,0,1,370
3329,6,1,129,32,0,0,1,671
3330,6,1,130,20,0,0,1,867
3331,6,1,131,5,1,1,1,786
3332,6,1,132,10,1,1,1,437
3333,6,1,133,32,0,0,1,443
3334,6,1,134,2,1,1,1,400
3335,6,1,135,5,1,1,1,417
3336,6,1,136,2,0,0,1,393
3337,6,1,137,1,0,0,1,418
3338,6,1,138,20,1,1,1,791
3339,6,1,139,2,1,1,1,403
3340,6,1,140,10,0,0,1,389
3341,6,1,141,1,0,0,1,389
3342,6,1,142,2,0,0,0,335
3343,6,1,143,10,1,1,1,478
3344,6,1,144,20,1,1,1,657
3345,6,1,145,32,1,1,1,582
3346,6,1,146,2,1,1,1,424
3347,6,1,147,10,1,1,1,635
3348,6,1,148,32,0,0,1,600
3349,6,1,149,10,0,0,1,392
3350,6,1,150,2,1,1,1,453
3351,6,1,151,10,0,0,1,717
3352,6,1,152,20,0,0,1,488
3353,6,1,153,5,1,1,1,482
3354,6,1,154,1,1,1,1,352
3355,6,1,155,2,0,0,1,379
3356,6,1,156,20,0,0,1,504
3357,6,1,157,5,0,0,1,397
3358,6,1,158,10,0,0,1,536
3359,6,1,159,20,0,0,1,371
3360,6,1,160,2,1,1,1,622
3361,6,1,161,5,1,1,1,427
3362,6,1,162,20,1,1,1,508
3363,6,1,163,20,0,0,1,476
3364,6,1,164,5,0,0,1,412
3365,6,1,165,10,0,0,1,423
3366,6,1,166,10,0,0,1,432
3367,6,1,167,20,1,1,1,378
3368,6,1,168,2,1,1,1,730
3369,6,1,169,10,1,1,1,445
3370,6,1,170,5,0,0,1,440
3371,6,1,171,32,0,0,1,587
3372,6,1,172,32,0,0,1,774
3373,6,1,173,32,1,1,1,542
3374,6,1,174,32,1,1,1,549
3375,6,1,175,32,1,1,1,389
3376,6,1,176,2,0,0,1,405
3377,6,1,177,32,1,1,1,409
3378,6,1,178,10,1,1,1,924
3379,6,1,179,10,0,0,1,703
3380,6,1,180,10,0,0,1,546
3381,6,1,181,2,1,1,1,406
3382,6,1,182,32,1,1,1,491
3383,6,1,183,20,0,0,1,439
3384,6,1,184,10,0,0,1,437
3385,6,1,185,5,0,0,1,573
3386,6,1,186,5,1,1,1,466
3387,6,1,187,20,0,0,1,379
3388,6,1,188,10,1,1,1,437
3389,6,1,189,5,0,0,1,382
3390,6,1,190,2,0,0,1,391
3391,6,1,191,2,0,0,1,395
3392,6,1,192,10,0,0,1,2194
3393,6,1,193,10,0,0,1,758
3394,6,1,194,10,1,1,1,414
3395,6,1,195,5,0,0,1,346
3396,6,1,196,32,1,1,1,490
3397,6,1,197,20,0,0,1,402
3398,6,1,198,2,1,1,0,472
3399,6,1,199,2,0,0,1,379
3400,6,1,200,32,1,1,1,408
3401,6,1,201,32,0,0,1,547
3402,6,1,202,5,1,1,1,604
3403,6,1,203,10,0,0,1,351
3404,6,1,204,32,0,0,1,490
3405,6,1,205,20,1,1,1,409
3406,6,1,206,10,0,0,1,427
3407,6,1,207,10,0,0,1,618
3408,6,1,208,20,1,1,1,320
3409,6,1,209,1,0,0,1,416
3410,6,1,210,10,0,0,1,417
3411,6,1,211,32,1,1,1,570
3412,6,1,212,32,1,1,1,541
3413,6,1,213,2,1,1,1,362
3414,6,1,214,2,1,1,1,383
3415,6,1,215,10,0,0,0,316
3416,6,1,216,20,1,1,1,447
3417,6,1,217,2,0,0,1,457
3418,6,1,218,32,0,0,1,415
3419,6,1,219,10,1,1,1,488
3420,6,1,220,2,0,0,1,469
3421,6,1,221,32,1,1,1,505
3422,6,1,222,1,1,1,1,326
3423,6,1,223,20,1,1,1,352
3424,6,1,224,20,0,0,1,410
3425,6,1,225,10,1,1,1,489
3426,6,1,226,20,1,1,1,386
3427,6,1,227,10,1,1,1,996
3428,6,1,228,10,0,0,1,432
3429,6,1,229,10,1,1,1,529
3430,6,1,230,32,1,1,1,423
3431,6,1,231,32,1,1,1,1013
3432,6,1,232,5,0,0,1,404
3433,6,1,233,10,0,0,1,520
3434,6,1,234,20,1,1,1,483
3435,6,1,235,2,1,1,1,611
3436,6,1,236,32,1,1,1,418
3437,6,1,237,20,1,1,1,574
3438,6,1,238,10,0,0,1,615
3439,6,1,239,20,1,1,1,547
3440,6,1,240,10,1,1,1,562
3441,6,1,241,20,1,1,1,1826
3442,6,1,242,2,0,0,1,581
3443,6,1,243,1,1,1,1,426
3444,6,1,244,2,1,1,1,417
3445,6,1,245,1,1,1,1,320
3446,6,1,246,5,1,1,1,457
3447,6,1,247,32,1,1,1,338
3448,6,1,248,5,1,1,1,357
3449,6,1,249,10,0,0,1,408
3450,6,1,250,5,0,0,1,672
3451,6,1,251,20,0,0,1,468
3452,6,1,252,10,1,1,1,382
3453,6,1,253,2,1,1,0,450
3454,6,1,254,2,0,0,1,545
3455,6,1,255,1,0,0,1,387
3456,6,1,256,2,1,1,1,382
3457,6,1,257,20,0,0,1,409
3458,6,1,258,10,0,0,1,475
3459,6,1,259,5,0,0,1,559
3460,6,1,260,32,0,0,1,547
3461,6,1,261,20,0,0,1,838
3462,6,1,262,5,0,0,1,353
3463,6,1,263,20,0,0,1,498
3464,6,1,264,10,1,1,1,606
3465,6,1,265,10,1,1,1,455
3466,6,1,266,10,1,1,1,383
3467,6,1,267,10,1,1,1,449
3468,6,1,268,2,0,0,1,544
3469,6,1,269,20,0,0,1,378
3470,6,1,270,5,1,1,1,399
3471,6,1,271,5,0,0,1,431
3472,6,1,272,2,0,0,1,349
3473,6,1,273,20,1,1,1,363
3474,6,1,274,20,0,0,1,521
3475,6,1,275,1,1,1,1,446
3476,6,1,276,5,1,1,1,505
3477,6,1,277,5,1,1,1,402
3478,6,1,278,2,1,1,1,345
3479,6,1,279,2,1,1,1,826
3480,6,1,280,5,1,1,1,386
3481,6,1,281,20,0,0,1,508
3482,6,1,282,10,0,0,1,421
3483,6,1,283,1,1,1,1,364
3484,6,1,284,10,1,1,1,485
3485,6,1,285,10,1,1,1,496
3486,6,1,286,5,0,0,1,542
3487,6,1,287,10,0,0,1,493
3488,6,1,288,10,1,1,1,943
3489,6,1,289,32,1,1,1,1597
3490,6,1,290,32,1,1,1,1917
3491,6,1,291,32,0,0,1,579
3492,6,1,292,5,1,1,1,499
3493,6,1,293,5,1,1,1,531
3494,6,1,294,32,1,1,1,410
3495,6,1,295,5,0,0,1,531
3496,6,1,296,10,0,0,1,651
3497,6,1,297,10,1,1,1,936
3498,6,1,298,20,1,1,1,1044
3499,6,1,299,10,1,1,1,824
3500,6,1,300,20,1,1,1,442
3501,6,1,301,20,0,0,1,737
3502,6,1,302,10,1,1,1,373
3503,6,1,303,32,0,0,1,421
3504,6,1,304,2,0,0,1,676
3505,6,1,305,2,1,1,1,359
3506,6,1,306,32,1,1,1,574
3507,6,1,307,32,1,1,1,392
3508,6,1,308,10,1,1,1,424
3509,6,1,309,20,0,0,1,485
3510,6,1,310,20,1,1,1,435
3511,6,1,311,2,0,0,1,422
3512,6,1,312,2,0,0,1,473
3513,6,1,313,32,0,0,1,453
3514,6,1,314,20,0,0,1,361
3515,6,1,315,32,0,0,1,345
3516,6,1,316,20,0,0,1,475
3517,6,1,317,2,1,1,0,869
3518,6,1,318,1,0,0,1,363
3519,6,1,319,20,0,0,1,433
3520,6,1,320,5,1,1,1,687
3521,6,1,321,20,1,1,1,381
3522,6,1,322,10,1,1,1,412
3523,6,1,323,20,0,0,1,551
3524,6,1,324,32,1,1,1,433
3525,6,1,325,5,1,1,1,523
3526,6,1,326,2,0,0,1,383
3527,6,1,327,2,1,1,1,444
3528,6,1,328,32,1,1,1,345
3529,6,1,329,5,0,0,1,329
3530,6,1,330,32,1,1,1,360
3531,6,1,331,10,0,0,1,478
3532,6,1,332,32,0,0,1,650
3533,6,1,333,1,1,1,1,496
3534,6,1,334,10,1,1,1,474
3535,6,1,335,20,0,0,1,457
3536,6,1,336,5,1,1,1,626
3537,6,1,337,2,1,1,1,799
3538,6,1,338,20,1,1,1,449
3539,6,1,339,20,0,0,1,520
3540,6,1,340,32,1,1,1,369
3541,6,1,341,2,1,1,1,643
3542,6,1,342,20,1,1,1,709
3543,6,1,343,10,0,0,1,517
3544,6,1,344,20,1,1,1,438
3545,6,1,345,10,0,0,1,569
3546,6,1,346,2,1,1,1,625
3547,6,1,347,20,1,1,1,502
3548,6,1,348,5,0,0,1,541
3549,6,1,349,5,1,1,1,370
3550,6,1,350,1,1,1,1,443
3551,6,1,351,32,1,1,1,370
3552,6,1,352,2,0,0,1,537
3553,6,1,353,20,1,1,1,353
3554,6,1,354,1,0,0,1,323
3555,6,1,355,20,0,0,1,417
3556,6,1,356,5,0,0,1,345
3557,6,1,357,32,0,0,1,475
3558,6,1,358,5,1,1,1,632
3559,6,1,359,32,0,0,1,746
3560,6,1,360,10,1,1,1,792
3561,6,1,361,5,0,0,1,969
3562,6,1,362,20,1,1,1,543
3563,6,1,363,2,1,1,1,366
3564,6,1,364,10,0,0,1,421
3565,6,1,365,10,1,1,1,461
3566,6,1,366,5,0,0,1,552
3567,6,1,367,5,1,1,1,636
3568,6,1,368,5,0,0,1,532
3569,6,1,369,32,1,1,1,437
3570,6,1,370,32,1,1,1,453
3571,6,1,371,5,0,0,1,386
3572,6,1,372,32,0,0,1,408
3573,6,1,373,10,0,0,1,618
3574,6,1,374,2,0,0,1,632
3575,6,1,375,10,1,1,1,369
3576,6,1,376,32,1,1,1,610
3577,6,1,377,10,0,0,1,576
3578,6,1,378,2,1,1,1,515
3579,6,1,379,2,1,1,1,450
3580,6,1,380,5,0,0,1,606
3581,6,1,381,20,1,1,1,815
3582,6,1,382,20,0,0,1,372
3583,6,1,383,2,1,1,1,437
3584,6,1,384,32,1,1,1,581
3585,6,1,385,2,0,0,0,387
3586,6,1,386,10,1,1,1,457
3587,6,1,387,2,1,1,1,321
3588,6,1,388,10,1,1,1,611
3589,6,1,389,32,0,0,1,353
3590,6,1,390,2,0,0,1,377
3591,6,1,391,20,1,1,1,766
3592,6,1,392,10,1,1,1,370
3593,6,1,393,20,1,1,1,434
3594,6,1,394,2,0,0,1,464
3595,6,1,395,1,1,1,1,439
3596,6,1,396,32,1,1,1,452
3597,6,1,397,2,1,1,1,400
3598,6,1,398,32,0,0,1,534
3599,6,1,399,32,0,0,1,374
3600,6,1,400,20,1,1,1,439
3601,6,1,401,20,0,0,1,486
3602,6,1,402,2,0,0,1,447
3603,6,1,403,32,1,1,0,376
3604,6,1,404,10,1,1,1,655
3605,6,1,405,5,1,1,1,457
3606,6,1,406,32,1,1,1,404
3607,6,1,407,20,0,0,1,521
3608,6,1,408,1,1,1,1,358
3609,6,1,409,5,1,1,1,961
3610,6,1,410,2,0,0,1,425
3611,6,1,411,2,1,1,1,332
3612,6,1,412,20,1,1,1,463
3613,6,1,413,32,0,0,1,416
3614,6,1,414,1,0,0,1,396
3615,6,1,415,2,0,0,1,406
3616,6,1,416,2,1,1,1,323
3617,6,1,417,20,0,0,1,409
3618,6,1,418,1,0,0,1,552
3619,6,1,419,10,0,0,1,341
3620,6,1,420,10,1,1,1,419
3621,6,1,421,2,0,0,1,379
3622,6,1,422,20,1,1,1,404
3623,6,1,423,20,0,0,1,346
3624,6,1,424,2,1,1,1,344
3625,6,1,425,10,1,1,1,326
3626,6,1,426,32,0,0,1,498
3627,6,1,427,5,0,0,1,365
3628,6,1,428,2,1,1,1,369
3629,6,1,429,20,0,0,1,558
3630,6,1,430,1,1,1,1,885
3631,6,1,431,2,1,1,1,454
3632,6,1,432,20,0,0,1,426
3633,6,1,433,32,1,1,1,600
3634,6,1,434,32,0,0,1,326
3635,6,1,435,10,1,1,1,374
3636,6,1,436,20,1,1,1,549
3637,6,1,437,2,0,0,1,401
3638,6,1,438,10,1,1,1,521
3639,6,1,439,2,0,0,1,379
3640,6,1,440,2,0,0,1,413
3641,6,1,441,5,1,1,1,498
3642,6,1,442,32,1,1,1,363
3643,6,1,443,32,0,0,1,391
3644,6,1,444,10,0,0,1,341
3645,6,1,445,2,0,0,1,383
3646,6,1,446,20,1,1,1,923
3647,6,1,447,5,0,0,1,1825
3648,6,1,448,5,1,1,1,508
3649,6,1,449,20,0,0,1,551
3650,6,1,450,20,0,0,1,520
3651,6,1,451,20,1,1,1,503
3652,6,1,452,5,1,1,1,448
3653,6,1,453,5,0,0,1,407
3654,6,1,454,2,0,0,1,434
3655,6,1,455,32,0,0,1,535
3656,6,1,456,5,0,0,1,357
3657,6,1,457,1,1,1,1,401
3658,6,1,458,32,1,1,1,468
3659,6,1,459,2,1,1,1,418
3660,6,1,460,5,1,1,1,376
3661,6,1,461,2,0,0,1,418
3662,6,1,462,5,0,0,1,438
3663,6,1,463,5,0,0,1,330
3664,6,1,464,32,1,1,1,535
3665,6,1,465,2,1,1,1,392
3666,6,1,466,10,1,1,1,334
3667,6,1,467,5,1,1,1,442
3668,6,1,468,10,1,1,1,439
3669,6,1,469,20,0,0,1,681
3670,6,1,470,32,0,0,1,409
3671,6,1,471,32,0,0,1,710
3672,6,1,472,10,0,0,1,544
3673,6,1,473,20,0,0,1,519
3674,6,1,474,20,1,1,1,335
3675,6,1,475,10,1,1,1,437
3676,6,1,476,1,0,0,1,365
3677,6,1,477,20,1,1,1,358
3678,6,1,478,32,1,1,1,420
3679,6,1,479,32,0,0,1,441
3680,6,1,480,10,0,0,1,346
3681,6,1,481,5,1,1,1,439
3682,6,1,482,32,0,0,1,362
3683,6,1,483,5,0,0,0,358
3684,6,1,484,5,1,1,1,324
3685,6,1,485,10,0,0,1,580
3686,6,1,486,5,1,1,1,416
3687,6,1,487,32,0,0,1,403
3688,6,1,488,20,1,1,1,352
3689,6,1,489,32,0,0,1,359
3690,6,1,490,32,0,0,1,894
3691,6,1,491,5,0,0,1,436
3692,6,1,492,32,0,0,1,658
3693,6,1,493,32,0,0,1,344
3694,6,1,494,2,1,1,1,815
3695,6,1,495,2,1,1,1,782
3696,6,1,496,32,0,0,1,608
3697,6,1,497,2,0,0,1,831
3698,6,1,498,10,1,1,1,1130
3699,6,1,499,10,1,1,1,725
3700,6,1,500,32,0,0,1,674
3701,6,1,501,10,1,1,1,841
3702,6,1,502,5,0,0,1,1094
3703,6,1,503,32,1,1,1,527
3704,6,1,504,2,1,1,1,918
3705,6,1,505,5,1,1,1,561
3706,6,1,506,10,1,1,1,912
3707,6,1,507,20,0,0,1,1340
3708,6,1,508,20,0,0,1,507
3709,6,1,509,5,0,0,1,414
3710,6,1,510,20,1,1,1,486
3711,6,1,511,20,1,1,1,467
3712,6,1,512,10,0,0,1,579
3713,6,1,513,20,1,1,1,534
3714,6,1,514,5,0,0,1,1061
3715,6,1,515,2,1,1,1,1386
3716,6,1,516,2,0,0,1,600
3717,6,1,517,32,1,1,1,459
3718,6,1,518,1,0,0,1,413
3719,6,1,519,10,0,0,1,465
3720,6,1,520,1,0,0,1,1411
3721,6,1,521,20,1,1,1,586
3722,6,1,522,32,1,1,1,1044
3723,6,1,523,2,0,0,1,1446
3724,6,1,524,1,0,0,1,1266
3725,6,1,525,2,0,0,1,455
3726,6,1,526,32,1,1,1,679
3727,6,1,527,32,1,1,1,460
3728,6,1,528,32,0,0,1,728
3729,6,1,529,5,1,1,1,391
3730,6,1,530,2,0,0,1,404
3731,6,1,531,5,1,1,1,665
3732,6,1,532,5,0,0,1,442
3733,6,1,533,32,1,1,1,404
3734,6,1,534,5,0,0,1,346
3735,6,1,535,20,1,1,1,367
3736,6,1,536,32,0,0,1,493
3737,6,1,537,10,1,1,1,311
3738,6,1,538,2,1,1,1,564
3739,6,1,539,2,0,0,1,509
3740,6,1,540,32,0,0,1,633
3741,6,1,541,1,1,1,1,428
3742,6,1,542,20,0,0,1,458
3743,6,1,543,2,1,1,1,422
3744,6,1,544,5,1,1,1,555
3745,6,1,545,5,1,1,1,489
3746,6,1,546,20,0,0,1,462
3747,6,1,547,2,1,1,1,504
3748,6,1,548,1,0,0,1,479
3749,6,1,549,32,0,0,1,554
3750,6,1,550,20,1,1,1,500
3751,6,1,551,2,1,1,1,385
3752,6,1,552,2,0,0,1,649
3753,6,1,553,32,0,0,1,432
3754,6,1,554,10,1,1,1,667
3755,6,1,555,2,0,0,1,325
3756,6,1,556,20,0,0,1,346
3757,6,1,557,32,1,1,1,481
3758,6,1,558,1,0,0,1,462
3759,6,1,559,20,1,1,1,519
3760,6,1,560,32,1,1,1,385
3761,6,1,561,5,0,0,1,632
3762,6,1,562,32,0,0,1,479
3763,6,1,563,5,1,1,1,308
3764,6,1,564,2,1,1,1,328
3765,6,1,565,10,1,1,1,595
3766,6,1,566,10,1,1,1,497
3767,6,1,567,5,1,1,1,364
3768,6,1,568,5,1,1,1,724
3769,6,1,569,2,1,1,1,388
3770,6,1,570,5,1,1,1,409
3771,6,1,571,32,1,1,1,351
3772,6,1,572,20,0,0,0,983
3773,6,1,573,10,1,1,1,456
3774,6,1,574,10,0,0,1,397
3775,6,1,575,32,0,0,1,482
3776,6,1,576,5,0,0,1,387
3777,6,1,577,32,0,0,1,373
3778,6,1,578,32,1,1,1,540
3779,6,1,579,32,0,0,1,434
3780,6,1,580,10,1,1,1,385
3781,6,1,581,2,1,1,1,355
3782,6,1,582,5,1,1,1,332
3783,6,1,583,5,0,0,1,429
3784,6,1,584,5,0,0,1,394
3785,6,1,585,10,0,0,0,360
3786,6,1,586,2,0,0,1,340
3787,6,1,587,2,0,0,1,466
3788,6,1,588,20,1,1,1,537
3789,6,1,589,32,0,0,1,391
3790,6,1,590,32,0,0,1,402
3791,6,1,591,32,1,1,1,535
3792,6,1,592,20,0,0,1,444
3793,6,1,593,32,1,1,1,501
3794,6,1,594,2,0,0,1,320
3795,6,1,595,5,1,1,1,350
3796,6,1,596,32,1,1,1,337
3797,6,1,597,1,0,0,1,334
3798,6,1,598,10,0,0,1,383
3799,6,1,599,5,0,0,0,358
3800,6,1,600,32,1,1,1,557
3801,6,1,601,32,0,0,1,512
3802,6,1,602,5,1,1,1,589
3803,6,1,603,20,1,1,1,433
3804,6,1,604,5,1,1,1,421
3805,6,1,605,2,1,1,1,330
3806,6,1,606,5,0,0,1,353
3807,6,1,607,20,0,0,1,536
3808,6,1,608,1,1,1,1,370
3809,6,1,609,10,0,0,1,419
3810,6,1,610,2,1,1,1,305
3811,6,1,611,1,1,1,1,405
3812,6,1,612,10,0,0,1,345
3813,6,1,613,2,0,0,1,331
3814,6,1,614,5,0,0,0,367
3815,6,1,615,5,1,1,1,396
3816,6,1,616,2,0,0,1,320
3817,6,1,617,2,1,1,1,438
3818,6,1,618,2,1,1,1,395
3819,6,1,619,32,0,0,1,348
3820,6,1,620,32,1,1,1,337
3821,6,1,621,10,0,0,1,440
3822,6,1,622,20,1,1,1,462
3823,6,1,623,20,1,1,1,516
3824,6,1,624,2,1,1,1,345
3825,6,1,625,1,1,1,1,658
3826,6,1,626,10,0,0,1,307
3827,6,1,627,5,0,0,1,332
3828,6,1,628,32,0,0,1,466
3829,6,1,629,20,1,1,1,503
3830,6,1,630,20,0,0,1,384
3831,6,1,631,5,1,1,1,967
3832,6,1,632,2,0,0,1,339
3833,6,1,633,5,1,1,1,568
3834,6,1,634,20,0,0,1,469
3835,6,1,635,20,1,1,1,467
3836,6,1,636,10,1,1,1,324
3837,6,1,637,20,0,0,1,289
3838,6,1,638,5,1,1,1,374
3839,6,1,639,32,1,1,1,503
3840,6,1,640,2,0,0,1,583
3841,7,1,1,2,0,0,1,468
3842,7,1,2,32,1,1,1,476
3843,7,1,3,20,0,0,1,508
3844,7,1,4,2,1,1,1,449
3845,7,1,5,10,0,0,1,507
3846,7,1,6,2,1,1,1,480
3847,7,1,7,10,1,1,1,707
3848,7,1,8,32,0,0,1,482
3849,7,1,9,5,0,0,1,414
3850,7,1,10,10,1,1,1,442
3851,7,1,11,2,0,0,1,424
3852,7,1,12,5,1,1,1,437
3853,7,1,13,32,0,0,1,452
3854,7,1,14,10,0,0,1,536
3855,7,1,15,20,0,0,1,424
3856,7,1,16,32,0,0,1,381
3857,7,1,17,20,0,0,1,512
3858,7,1,18,32,1,1,1,429
3859,7,1,19,20,1,1,1,435
3860,7,1,20,20,0,0,1,435
3861,7,1,21,20,1,1,1,531
3862,7,1,22,20,1,1,1,479
3863,7,1,23,2,1,1,1,543
3864,7,1,24,10,0,0,1,549
3865,7,1,25,2,1,1,1,424
3866,7,1,26,10,0,0,1,433
3867,7,1,27,5,1,1,1,478
3868,7,1,28,2,1,1,1,550
3869,7,1,29,10,1,1,1,546
3870,7,1,30,20,1,1,1,455
3871,7,1,31,5,1,1,1,534
3872,7,1,32,1,0,0,1,409
3873,7,1,33,32,0,0,1,450
3874,7,1,34,5,1,1,1,454
3875,7,1,35,5,1,1,1,469
3876,7,1,36,32,0,0,1,485
3877,7,1,37,10,1,1,1,593
3878,7,1,38,2,0,0,1,432
3879,7,1,39,20,0,0,1,489
3880,7,1,40,10,1,1,1,558
3881,7,1,41,10,0,0,1,683
3882,7,1,42,5,0,0,1,842
3883,7,1,43,20,1,1,1,546
3884,7,1,44,32,0,0,1,430
3885,7,1,45,20,1,1,1,523
3886,7,1,46,5,0,0,1,407
3887,7,1,47,32,0,0,1,510
3888,7,1,48,5,0,0,1,611
3889,7,1,49,20,1,1,1,555
3890,7,1,50,5,1,1,1,419
3891,7,1,51,10,0,0,1,384
3892,7,1,52,2,1,1,1,477
3893,7,1,53,10,0,0,1,358
3894,7,1,54,10,1,1,1,509
3895,7,1,55,20,1,1,1,415
3896,7,1,56,10,1,1,1,508
3897,7,1,57,10,1,1,1,450
3898,7,1,58,20,0,0,1,462
3899,7,1,59,10,0,0,1,402
3900,7,1,60,32,1,1,1,421
3901,7,1,61,32,0,0,1,455
3902,7,1,62,20,0,0,1,479
3903,7,1,63,2,1,1,1,464
3904,7,1,64,20,1,1,1,549
3905,7,1,65,5,1,1,1,411
3906,7,1,66,2,1,1,1,473
3907,7,1,67,2,1,1,1,484
3908,7,1,68,5,1,1,1,403
3909,7,1,69,10,1,1,1,512
3910,7,1,70,10,1,1,1,463
3911,7,1,71,10,0,0,1,435
3912,7,1,72,5,0,0,1,441
3913,7,1,73,2,0,0,1,469
3914,7,1,74,1,0,0,1,436
3915,7,1,75,2,1,1,1,713
3916,7,1,76,10,1,1,1,666
3917,7,1,77,2,0,0,1,417
3918,7,1,78,20,1,1,1,542
3919,7,1,79,20,1,1,1,469
3920,7,1,80,32,0,0,1,502
3921,7,1,81,2,0,0,1,436
3922,7,1,82,5,1,1,1,1596
3923,7,1,83,10,0,0,1,439
3924,7,1,84,2,0,0,1,416
3925,7,1,85,5,1,1,1,388
3926,7,1,86,10,1,1,1,537
3927,7,1,87,20,1,1,1,499
3928,7,1,88,32,1,1,1,478
3929,7,1,89,20,1,1,1,479
3930,7,1,90,5,0,0,1,448
3931,7,1,91,10,1,1,1,409
3932,7,1,92,2,0,0,1,369
3933,7,1,93,20,1,1,1,420
3934,7,1,94,2,0,0,1,363
3935,7,1,95,10,0,0,1,431
3936,7,1,96,2,0,0,1,393
3937,7,1,97,32,1,1,1,428
3938,7,1,98,1,1,1,1,462
3939,7,1,99,2,0,0,1,384
3940,7,1,100,32,0,0,1,543
3941,7,1,101,20,0,0,0,366
3942,7,1,102,32,1,1,1,580
3943,7,1,103,20,1,1,1,609
3944,7,1,104,10,0,0,1,391
3945,7,1,105,5,0,0,1,435
3946,7,1,106,32,1,1,1,609
3947,7,1,107,1,1,1,1,445
3948,7,1,108,10,0,0,1,468
3949,7,1,109,5,1,1,1,639
3950,7,1,110,2,1,1,1,565
3951,7,1,111,10,0,0,1,408
3952,7,1,112,2,1,1,1,515
3953,7,1,113,32,0,0,1,507
3954,7,1,114,5,1,1,1,374
3955,7,1,115,2,0,0,1,351
3956,7,1,116,5,1,1,1,419
3957,7,1,117,20,0,0,1,459
3958,7,1,118,5,0,0,1,389
3959,7,1,119,5,0,0,1,364
3960,7,1,120,10,1,1,1,547
3961,7,1,121,1,1,1,1,452
3962,7,1,122,2,1,1,1,445
3963,7,1,123,1,0,0,1,413
3964,7,1,124,32,0,0,1,424
3965,7,1,125,1,1,1,1,473
3966,7,1,126,20,0,0,1,470
3967,7,1,127,10,0,0,1,440
3968,7,1,128,20,0,0,1,426
3969,7,1,129,10,1,1,1,483
3970,7,1,130,20,0,0,1,385
3971,7,1,131,2,0,0,1,402
3972,7,1,132,20,1,1,1,474
3973,7,1,133,2,1,1,1,504
3974,7,1,134,10,0,0,1,419
3975,7,1,135,32,0,0,1,472
3976,7,1,136,5,1,1,1,416
3977,7,1,137,32,1,1,1,478
3978,7,1,138,20,0,0,1,434
3979,7,1,139,32,1,1,0,464
