subNum,trialNo,easySide,targPresent,targSide,RT,accuracy,block_no
1,1,R,1,left,3903,1,1
1,2,L,0,,4675,1,1
1,3,L,1,right,3338,1,1
1,4,R,1,left,2128,1,1
1,5,L,0,,4205,1,1
1,6,R,0,,4532,1,1
1,7,L,1,left,1870,1,1
1,8,L,0,,3498,1,1
1,9,R,1,right,1889,1,1
1,10,R,1,right,1759,1,1
1,11,R,0,,3617,1,1
1,12,L,1,left,1689,1,1
1,13,R,0,,3027,1,1
1,14,R,0,,3587,1,1
1,15,L,1,left,1720,1,1
1,16,L,1,left,1586,1,1
1,17,R,1,left,3356,0,1
1,18,L,0,,3505,1,1
1,19,R,0,,3466,1,1
1,20,L,1,right,2119,1,1
1,21,L,1,left,2458,1,1
1,22,R,1,right,1651,1,1
1,23,R,1,right,1978,1,1
1,24,R,1,right,1769,1,1
1,25,R,0,,2833,1,1
1,26,L,1,right,2577,1,1
1,27,R,1,left,1928,1,1
1,28,L,0,,3546,1,1
1,29,R,0,,3358,1,1
1,30,R,0,,2871,1,1
1,31,R,0,,3028,1,1
1,32,L,0,,2698,1,1
1,33,L,0,,3417,1,1
1,34,L,0,,4364,1,1
1,35,R,1,right,1779,1,1
1,36,R,1,right,1809,1,1
1,37,R,0,,4394,1,1
1,38,R,0,,3437,1,1
1,39,R,1,left,4266,0,1
1,40,L,0,,4475,1,1
1,41,L,1,left,1759,1,1
1,42,R,0,,4146,1,1
1,43,R,0,,4804,1,1
1,44,R,0,,4062,1,1
1,45,R,1,left,3190,1,1
1,46,L,1,right,3167,1,1
1,47,R,1,right,1799,1,1
1,48,R,1,right,2198,1,1
1,49,R,1,left,5270,0,1
1,50,R,1,left,2960,1,1
1,51,R,0,,6191,1,1
1,52,R,0,,7669,1,1
1,53,L,1,left,1780,1,1
1,54,L,1,right,2038,1,1
1,55,L,1,right,1779,1,1
1,56,R,0,,5053,1,1
1,57,L,0,,4934,1,1
1,58,L,1,right,3197,1,1
1,59,L,0,,5584,1,1
1,60,L,1,left,1770,1,1
1,61,L,1,right,1989,1,1
1,62,L,1,left,2299,1,1
1,63,R,1,left,3986,0,1
1,64,R,0,,5143,1,1
1,65,L,1,right,4106,0,1
1,66,R,1,left,2599,1,1
1,67,R,1,right,1709,1,1
1,68,L,0,,3936,1,1
1,69,L,1,left,1950,1,1
1,70,L,0,,4215,1,1
1,71,R,0,,5179,1,1
1,72,L,0,,3616,1,1
1,73,L,1,right,2588,1,1
1,74,R,1,left,4652,1,1
1,75,R,1,left,2508,1,1
1,76,R,0,,4654,1,1
1,77,R,1,right,1775,1,1
1,78,R,0,,4231,1,1
1,79,L,1,right,1700,1,1
1,80,R,1,left,2588,1,1
1,81,L,1,left,2070,1,1
1,82,L,0,,5354,1,1
1,83,L,1,right,2060,1,1
1,84,R,0,,3706,1,1
1,85,R,0,,3447,1,1
1,86,L,1,right,1629,1,1
1,87,L,1,left,1647,1,1
1,88,L,1,left,1689,1,1
1,89,R,0,,4245,1,1
1,90,L,0,,2865,1,1
1,91,L,0,,2698,1,1
1,92,R,0,,3727,1,1
1,93,R,0,,3637,1,1
1,94,R,1,left,1807,1,1
1,95,R,0,,4416,1,1
1,96,L,0,,4596,1,1
1,97,R,0,,5166,1,1
1,98,L,0,,3784,1,1
1,99,R,0,,3447,1,1
1,100,R,1,right,1759,1,1
1,101,R,1,right,1639,1,1
1,102,L,1,left,1590,1,1
1,103,L,0,,4565,1,1
1,104,L,0,,2989,1,1
1,105,L,0,,4484,1,1
1,106,L,0,,4386,1,1
1,107,L,1,left,1700,1,1
1,108,R,1,left,2248,1,1
1,109,L,1,left,1577,1,1
1,110,L,1,right,4427,0,1
1,111,R,1,left,4824,1,1
1,112,R,1,right,2388,1,1
1,113,R,0,,3456,1,1
1,114,L,0,,3298,1,1
1,115,L,0,,3647,1,1
1,116,L,0,,3347,1,1
1,117,R,0,,4254,1,1
1,118,R,0,,2927,1,1
1,119,R,0,,5413,1,1
1,120,L,1,right,2318,1,1
1,121,R,1,right,2068,1,1
1,122,L,0,,3946,1,1
1,123,R,1,left,3676,1,1
1,124,R,0,,3736,1,1
1,125,L,1,left,1937,1,1
1,126,R,0,,4027,1,1
1,127,L,0,,3705,1,1
1,128,L,1,right,2587,1,1
1,129,L,0,,4475,1,1
1,130,L,1,right,1860,1,1
1,131,L,1,right,3777,0,1
1,132,R,1,right,1968,1,1
1,133,L,0,,5313,1,1
1,134,L,1,left,1729,1,1
1,135,L,1,left,1700,1,1
1,136,R,0,,5017,1,1
1,137,R,1,left,3967,0,1
1,138,R,0,,4769,1,1
1,139,R,0,,5034,1,1
1,140,R,1,right,2318,1,1
1,141,L,0,,6252,1,1
1,142,R,1,left,2109,1,1
1,143,L,0,,4596,1,1
1,144,L,1,left,1644,1,1
1,145,L,0,,4585,1,1
1,146,R,1,right,1696,1,1
1,147,L,0,,3286,1,1
1,148,R,1,left,2038,1,1
1,149,L,1,right,3147,1,1
1,150,L,0,,5280,1,1
1,151,R,0,,4495,1,1
1,152,L,1,right,3567,1,1
1,153,L,1,right,2108,1,1
1,154,R,0,,4665,1,1
1,155,R,0,,3956,1,1
1,156,R,0,,4555,1,1
1,157,L,0,,5174,1,1
1,158,R,0,,6151,1,1
1,159,L,0,,4456,1,1
1,160,R,1,right,1689,1,1
4,1,R,0,,4735,1,1
4,2,R,1,right,2104,1,1
4,3,L,0,,3504,1,1
4,4,L,1,left,1634,1,1
4,5,L,1,left,1624,1,1
4,6,L,0,,3904,1,1
4,7,R,0,,3513,1,1
4,8,R,1,left,3844,0,1
4,9,R,0,,5060,1,1
4,10,R,0,,4394,1,1
4,11,L,1,right,6364,0,1
4,12,L,1,right,3565,1,1
4,13,R,1,right,1633,1,1
4,14,L,0,,6994,1,1
4,15,L,0,,5364,1,1
4,16,R,0,,6604,1,1
4,17,R,0,,5605,1,1
4,18,R,1,right,1654,1,1
4,19,R,1,left,4424,1,1
4,20,L,1,left,1565,1,1
4,21,R,1,right,2524,1,1
4,22,L,1,right,3314,1,1
4,23,L,0,,6065,1,1
4,24,L,1,right,2754,1,1
4,25,L,0,,6043,1,1
4,26,R,1,left,5104,0,1
4,27,R,1,right,1714,1,1
4,28,L,0,,7124,0,1
4,29,R,0,,7645,1,1
4,30,L,1,left,1674,1,1
4,31,R,1,right,1578,1,1
4,32,R,0,,7315,1,1
4,33,R,0,,5545,1,1
4,34,R,0,,3876,1,1
4,35,L,1,right,2634,1,1
4,36,L,1,right,2153,1,1
4,37,R,0,,6234,1,1
4,38,R,1,left,7494,0,1
4,39,R,1,left,6724,1,1
4,40,L,0,,5766,1,1
4,41,R,1,left,9477,0,1
4,42,R,0,,8906,1,1
4,43,R,1,left,5750,1,1
4,44,L,0,,9065,1,1
4,45,L,1,left,1625,1,1
4,46,L,1,right,4828,1,1
4,47,R,1,left,9187,0,1
4,48,L,0,,8866,1,1
4,49,L,0,,7504,1,1
4,50,L,0,,7418,1,1
4,51,L,0,,6907,1,1
4,52,R,0,,6074,1,1
4,53,R,0,,7155,1,1
4,54,R,1,left,6166,0,1
4,55,R,0,,6945,1,1
4,56,L,1,right,2870,1,1
4,57,L,0,,8000,1,1
4,58,R,1,right,1794,1,1
4,59,R,0,,7562,1,1
4,60,R,0,,5285,1,1
4,61,R,0,,7285,1,1
4,62,L,0,,5744,1,1
4,63,R,1,right,1663,1,1
4,64,R,1,left,6528,1,1
4,65,R,0,,6155,1,1
4,66,L,1,left,1754,1,1
4,67,L,0,,5800,1,1
4,68,L,1,right,6065,1,1
4,69,L,0,,6335,1,1
4,70,L,1,right,2074,1,1
4,71,L,1,left,1664,1,1
4,72,R,1,left,4165,1,1
4,73,L,1,right,1652,1,1
4,74,L,0,,7195,1,1
4,75,L,1,right,1524,1,1
4,76,R,1,left,3917,1,1
4,77,R,1,left,2414,1,1
4,78,R,0,,6765,1,1
4,79,R,0,,5535,1,1
4,80,L,1,left,1644,1,1
4,81,L,1,left,1534,1,1
4,82,L,0,,5645,1,1
4,83,R,0,,3854,1,1
4,84,R,0,,5074,1,1
4,85,L,1,left,1555,1,1
4,86,R,0,,6174,1,1
4,87,R,1,left,3655,1,1
4,88,R,0,,4385,1,1
4,89,R,0,,6625,1,1
4,90,R,0,,5295,1,1
4,91,R,1,right,1504,1,1
4,92,L,1,right,1800,1,1
4,93,R,1,left,3183,1,1
4,94,L,0,,4607,1,1
4,95,R,0,,3764,1,1
4,96,L,1,left,1594,1,1
4,97,L,1,right,1775,1,1
4,98,L,0,,5787,1,1
4,99,R,0,,4445,1,1
4,100,R,1,right,1683,1,1
4,101,R,0,,4515,1,1
4,102,L,1,right,1709,1,1
4,103,L,0,,2704,1,1
4,104,R,0,,4786,1,1
4,105,L,1,left,1547,1,1
4,106,L,0,,3965,1,1
4,107,L,0,,4745,1,1
4,108,R,0,,6366,1,1
4,109,L,1,left,1684,1,1
4,110,L,1,right,5481,0,1
4,111,R,1,left,4645,1,1
4,112,R,1,right,1516,1,1
4,113,L,1,right,1717,1,1
4,114,L,1,left,1644,1,1
4,115,R,1,right,1475,1,1
4,116,R,1,left,2014,1,1
4,117,L,0,,5777,1,1
4,118,L,0,,6065,1,1
4,119,L,1,right,4807,1,1
4,120,L,0,,5625,1,1
4,121,R,1,right,1510,1,1
4,122,L,1,right,2825,1,1
4,123,R,0,,4354,1,1
4,124,R,1,right,1589,1,1
4,125,L,0,,4264,1,1
4,126,L,0,,4164,1,1
4,127,R,0,,4244,1,1
4,128,L,1,right,1954,1,1
4,129,L,0,,4275,1,1
4,130,R,0,,3934,1,1
4,131,L,1,left,1733,1,1
4,132,L,0,,4415,1,1
4,133,R,0,,4924,1,1
4,134,L,1,left,1623,1,1
4,135,L,1,left,1634,1,1
4,136,L,1,left,1504,1,1
4,137,R,1,right,1575,1,1
4,138,R,0,,3615,1,1
4,139,R,0,,4927,1,1
4,140,L,1,left,1530,1,1
4,141,L,0,,3922,1,1
4,142,R,1,right,1464,1,1
4,143,R,1,left,1975,1,1
4,144,R,1,left,5114,1,1
4,145,R,0,,6395,1,1
4,146,L,0,,4854,1,1
4,147,R,1,right,1772,1,1
4,148,L,0,,5258,1,1
4,149,L,0,,5165,1,1
4,150,R,1,right,1534,1,1
4,151,R,0,,6105,1,1
4,152,R,0,,6023,1,1
4,153,R,1,right,1496,1,1
4,154,R,0,,4974,1,1
4,155,L,1,right,1854,1,1
4,156,L,0,,4254,1,1
4,157,L,1,left,1613,1,1
4,158,R,0,,5305,1,1
4,159,R,1,left,1863,1,1
5,1,R,1,right,2395,1,1
5,2,L,0,,3925,1,1
5,3,L,1,left,1874,1,1
5,4,L,0,,3885,1,1
5,5,R,1,left,4714,0,1
5,6,L,0,,4825,1,1
5,7,R,0,,4665,1,1
5,8,L,1,left,1875,1,1
5,9,R,0,,3535,1,1
5,10,L,0,,4354,1,1
5,11,L,1,left,1715,1,1
5,12,R,1,right,1844,1,1
5,13,R,0,,4864,1,1
5,14,R,0,,4204,1,1
5,15,L,0,,5135,1,1
5,16,R,1,left,3644,1,1
5,17,R,0,,5494,1,1
5,18,L,1,left,1788,1,1
5,19,R,1,right,1624,1,1
5,20,R,1,left,2305,1,1
5,21,L,0,,5403,1,1
5,22,R,1,right,1703,1,1
5,23,R,0,,4814,1,1
5,24,R,0,,3595,1,1
5,25,R,0,,4545,1,1
5,26,R,1,left,2765,1,1
5,27,R,0,,5144,1,1
5,28,R,0,,3402,1,1
5,29,R,1,left,5495,0,1
5,30,R,1,right,1714,1,1
5,31,L,1,right,2025,1,1
5,32,R,1,left,5445,0,1
5,33,R,1,left,6104,1,1
5,34,L,0,,5755,1,1
5,35,L,1,right,5784,0,1
5,36,R,1,right,1925,1,1
5,37,R,1,left,2404,1,1
5,38,L,1,right,1725,1,1
5,39,R,1,left,5925,0,1
5,40,R,1,left,7365,0,1
5,41,L,0,,7245,1,1
5,42,L,1,right,2658,1,1
5,43,L,1,right,7355,0,1
5,44,L,0,,8366,1,1
5,45,R,1,left,6075,0,1
5,46,R,0,,9074,1,1
5,47,R,1,right,1782,1,1
5,48,L,0,,5593,1,1
5,49,L,1,right,25,0,1
5,50,L,1,left,2005,1,1
5,51,L,1,right,1914,1,1
5,52,L,0,,4885,1,1
5,53,L,1,left,1665,1,1
5,54,R,0,,5275,1,1
5,55,L,1,left,1724,1,1
5,56,L,0,,7005,1,1
5,57,L,0,,5875,1,1
5,58,R,0,,4304,1,1
5,59,R,1,right,1631,1,1
5,60,L,1,right,5082,0,1
5,61,L,1,left,1594,1,1
5,62,L,1,right,2605,1,1
5,63,L,0,,6845,1,1
5,64,R,1,right,2101,1,1
5,65,L,1,right,6667,0,1
5,66,R,1,left,2105,1,1
5,67,L,0,,3494,1,1
5,68,R,0,,3295,1,1
5,69,L,1,left,1654,1,1
5,70,L,0,,4369,1,1
5,71,R,0,,2534,0,1
5,72,R,0,,4994,1,1
5,73,R,0,,5204,1,1
5,74,R,1,left,4109,0,1
5,75,L,1,left,1764,1,1
5,76,R,1,right,1644,1,1
5,77,L,1,right,2055,1,1
5,78,R,0,,4344,1,1
5,79,L,1,right,2675,0,1
5,80,L,0,,2244,0,1
5,81,R,1,left,3945,0,1
5,82,R,0,,4975,1,1
5,83,L,0,,4665,1,1
5,84,R,1,right,1583,1,1
5,85,L,0,,4364,1,1
5,86,L,0,,5405,1,1
5,87,R,1,left,4974,0,1
5,88,R,1,left,5645,0,1
5,89,L,0,,7025,1,1
5,90,L,1,right,4478,0,1
5,91,R,0,,4186,1,1
5,92,R,0,,4975,1,1
5,93,R,0,,4914,1,1
5,94,R,1,right,1633,1,1
5,95,R,1,right,1785,1,1
5,96,R,0,,4675,1,1
5,97,R,1,left,4195,0,1
5,98,R,0,,6045,1,1
5,99,L,0,,5705,1,1
5,100,R,0,,4625,1,1
5,101,L,1,right,2324,1,1
5,102,L,0,,2104,0,1
5,103,R,1,left,4224,0,1
5,104,R,0,,5655,1,1
5,105,R,0,,5365,1,1
5,106,R,0,,4444,1,1
5,107,L,0,,5635,1,1
5,108,L,1,left,1855,1,1
5,109,R,0,,6546,1,1
5,110,R,1,right,1644,1,1
5,111,L,0,,4144,1,1
5,112,R,1,right,1574,1,1
5,113,L,1,right,1994,1,1
5,114,L,0,,5104,1,1
5,115,R,0,,4775,1,1
5,116,L,0,,3855,1,1
5,117,R,0,,3953,1,1
5,118,R,0,,5495,1,1
5,119,R,0,,3563,1,1
5,120,R,0,,3985,1,1
5,121,R,0,,4685,1,1
5,122,L,0,,4754,1,1
5,123,L,0,,4905,1,1
5,124,R,0,,5645,1,1
5,125,L,1,left,1824,1,1
5,126,L,0,,4325,1,1
5,127,R,0,,5335,1,1
5,128,R,0,,5165,1,1
5,129,R,0,,4724,1,1
5,130,R,0,,3925,1,1
5,131,L,0,,7385,1,1
5,132,R,0,,4354,1,1
5,133,L,0,,6834,1,1
5,134,L,0,,4644,1,1
5,135,L,1,left,1824,1,1
5,136,R,1,right,2734,0,1
5,137,L,1,left,1685,1,1
5,138,R,1,right,1644,1,1
5,139,R,0,,4105,1,1
5,140,L,1,left,1714,1,1
5,141,R,1,left,4245,0,1
5,142,R,1,left,2418,1,1
5,143,L,1,right,2804,0,1
5,144,L,1,right,4304,0,1
5,145,L,1,left,1640,1,1
5,146,L,1,left,1615,1,1
5,147,R,1,right,1564,1,1
5,148,L,1,right,2224,1,1
5,149,L,1,right,3164,1,1
5,150,L,1,left,1745,1,1
5,151,L,1,left,1615,1,1
5,152,L,0,,2394,1,1
5,153,L,0,,2744,1,1
5,154,L,1,right,2145,1,1
5,155,R,0,,3704,0,1
5,156,R,1,right,1613,1,1
6,1,L,0,,4402,1,1
6,2,L,0,,4395,1,1
6,3,R,0,,4854,1,1
6,4,L,1,left,1754,1,1
6,5,L,1,right,2274,1,1
6,6,L,1,left,1935,1,1
6,7,L,0,,3945,1,1
6,8,R,1,right,1934,1,1
6,9,L,0,,3045,1,1
6,10,R,1,left,2074,1,1
6,11,L,1,right,2034,1,1
6,12,R,0,,3074,1,1
6,13,R,0,,2784,1,1
6,14,R,0,,4534,1,1
6,15,L,1,right,1783,1,1
6,16,L,1,left,1774,1,1
6,17,R,1,left,1955,1,1
6,18,L,1,right,2888,0,1
6,19,R,0,,2915,1,1
6,20,R,1,left,1774,1,1
6,21,R,1,right,1655,1,1
6,22,R,0,,3460,1,1
6,23,R,0,,2885,1,1
6,24,L,0,,3321,1,1
6,25,L,0,,2937,1,1
6,26,R,0,,4000,1,1
6,27,R,1,left,2013,1,1
6,28,R,0,,3095,1,1
6,29,R,1,right,1734,1,1
6,30,R,0,,3164,1,1
6,31,L,0,,3623,1,1
6,32,R,1,left,1725,1,1
6,33,R,1,left,1755,1,1
6,34,L,1,left,1674,1,1
6,35,L,0,,2405,1,1
6,36,R,1,left,1684,1,1
6,37,L,0,,2705,1,1
6,38,R,1,right,1611,1,1
6,39,L,1,left,1651,1,1
6,40,R,0,,2134,1,1
6,41,R,0,,3506,1,1
6,42,L,0,,2654,1,1
6,43,R,0,,3144,1,1
6,44,L,1,right,2815,0,1
6,45,R,1,right,1673,1,1
6,46,R,0,,2595,1,1
6,47,L,1,left,1594,1,1
6,48,R,1,left,1994,1,1
6,49,R,1,right,1585,1,1
6,50,L,0,,2348,1,1
6,51,L,0,,2745,1,1
6,52,L,1,left,1524,1,1
6,53,R,0,,2324,1,1
6,54,L,1,left,1654,1,1
6,55,R,0,,2235,1,1
6,56,L,1,right,1744,1,1
6,57,L,0,,2473,1,1
6,58,R,0,,2714,1,1
6,59,R,1,left,2315,1,1
6,60,L,1,left,1574,1,1
6,61,L,0,,2235,1,1
6,62,R,0,,2245,1,1
6,63,L,1,left,1575,1,1
6,64,R,0,,2395,1,1
6,65,R,1,left,1834,1,1
6,66,L,1,right,1873,1,1
6,67,L,1,right,2035,1,1
6,68,L,1,left,1565,1,1
6,69,L,1,right,1665,1,1
6,70,L,0,,2284,1,1
6,71,R,1,right,1525,1,1
6,72,R,0,,2481,1,1
6,73,L,1,right,2534,1,1
6,74,L,1,right,1758,1,1
6,75,L,0,,2685,1,1
6,76,L,1,right,3475,0,1
6,77,R,0,,3384,1,1
6,78,L,1,right,1774,1,1
6,79,R,1,right,1594,1,1
6,80,R,0,,3212,1,1
6,81,R,0,,3455,1,1
6,82,R,1,right,1754,1,1
6,83,R,1,right,1591,1,1
6,84,R,1,right,1504,1,1
6,85,L,0,,6184,1,1
6,86,R,0,,3260,1,1
6,87,L,0,,4554,1,1
6,88,L,0,,4716,1,1
6,89,L,1,left,1934,1,1
6,90,R,0,,3595,1,1
6,91,L,1,right,1745,1,1
6,92,L,0,,3209,1,1
6,93,R,1,left,3654,1,1
6,94,R,0,,3135,1,1
6,95,R,1,right,1575,1,1
6,96,L,1,left,1544,1,1
6,97,R,0,,3845,1,1
6,98,R,1,right,1564,1,1
6,99,R,1,right,1465,1,1
6,100,L,1,left,1534,1,1
6,101,R,0,,2769,1,1
6,102,L,1,right,2190,1,1
6,103,R,1,right,1605,1,1
6,104,L,1,right,3374,1,1
6,105,L,0,,3118,1,1
6,106,R,1,right,1633,1,1
6,107,L,1,left,1525,1,1
6,108,R,1,left,1784,1,1
6,109,L,1,right,1734,1,1
6,110,L,0,,3135,1,1
6,111,L,0,,3135,1,1
6,112,L,0,,2695,1,1
6,113,R,0,,2274,1,1
6,114,R,1,left,1634,1,1
6,115,R,0,,2345,1,1
6,116,R,0,,2194,1,1
6,117,L,1,left,1593,1,1
6,118,L,1,right,1920,1,1
6,119,R,0,,2375,1,1
6,120,L,0,,2914,1,1
6,121,R,1,left,1985,1,1
6,122,R,0,,2704,1,1
6,123,R,1,left,1875,1,1
6,124,L,1,left,1605,1,1
6,125,R,0,,2324,1,1
6,126,L,0,,2445,1,1
6,127,L,1,left,1516,1,1
6,128,R,1,left,2644,0,1
6,129,L,0,,2194,1,1
6,130,L,1,left,1583,1,1
6,131,R,1,right,1725,1,1
6,132,R,0,,3135,1,1
6,133,R,1,left,1644,1,1
6,134,R,1,left,1604,1,1
6,135,R,0,,2574,1,1
6,136,L,0,,2603,1,1
6,137,R,1,left,2034,1,1
6,138,R,0,,2514,1,1
6,139,L,1,right,2273,1,1
6,140,R,1,left,1702,1,1
6,141,L,0,,2424,1,1
6,142,R,0,,2204,1,1
6,143,L,1,left,1641,1,1
6,144,L,0,,2114,1,1
6,145,L,0,,2264,1,1
6,146,L,1,right,2014,1,1
6,147,R,1,right,1544,1,1
6,148,L,0,,2727,1,1
6,149,L,0,,2164,1,1
6,150,R,0,,3293,1,1
6,151,L,0,,2030,1,1
6,152,R,0,,2894,1,1
6,153,R,0,,3164,1,1
6,154,L,1,right,1759,1,1
6,155,R,1,right,1535,1,1
6,156,L,0,,2914,1,1
6,157,R,0,,3683,1,1
6,158,L,0,,2451,1,1
6,159,L,0,,2404,1,1
6,160,R,0,,2565,1,1
7,1,R,0,,6126,1,1
7,2,L,1,right,2103,1,1
7,3,L,1,right,2725,0,1
7,4,R,1,right,2063,1,1
7,5,L,1,left,1775,1,1
7,6,R,0,,4024,1,1
7,7,L,1,right,1804,1,1
7,8,L,0,,4125,1,1
7,9,R,1,left,3541,1,1
7,10,R,1,right,1654,1,1
7,11,L,1,right,1748,1,1
7,12,R,1,right,1524,1,1
7,13,L,1,left,1883,1,1
7,14,L,0,,3974,1,1
7,15,R,0,,5323,1,1
7,16,R,0,,6735,1,1
7,17,R,1,left,2293,1,1
7,18,L,1,left,1714,1,1
7,19,R,1,right,1763,1,1
7,20,L,1,right,2284,1,1
7,21,L,0,,5124,1,1
7,22,L,1,right,3915,1,1
7,23,R,0,,5765,1,1
7,24,R,1,right,1654,1,1
7,25,L,1,left,1594,1,1
7,26,L,0,,4865,1,1
7,27,L,0,,4765,1,1
7,28,L,0,,3495,1,1
7,29,L,1,left,1894,1,1
7,30,R,0,,6614,1,1
7,31,L,1,left,1624,1,1
7,32,R,1,left,2165,1,1
7,33,L,0,,7375,1,1
7,34,R,1,left,2834,1,1
7,35,R,0,,7094,1,1
7,36,R,1,left,1819,1,1
7,37,R,1,right,1904,1,1
7,38,R,0,,8005,1,1
7,39,R,0,,6186,1,1
7,40,L,0,,5785,1,1
7,41,L,0,,8636,1,1
7,42,R,0,,5825,1,1
7,43,R,0,,5914,1,1
7,44,L,0,,4076,1,1
7,45,L,1,right,3065,1,1
7,46,L,0,,5335,1,1
7,47,L,0,,3873,1,1
7,48,R,1,left,7999,0,1
7,49,L,1,left,1835,1,1
7,50,R,0,,9916,1,1
7,51,L,0,,7205,1,1
7,52,R,0,,7771,1,1
7,53,R,0,,7963,1,1
7,54,R,1,right,1764,1,1
7,55,L,1,right,2384,1,1
7,56,R,1,right,1704,1,1
7,57,R,0,,7935,1,1
7,58,L,0,,5325,1,1
7,59,L,0,,4973,1,1
7,60,L,0,,4784,1,1
7,61,L,1,left,1743,1,1
7,62,R,0,,6295,1,1
7,63,L,0,,6655,1,1
7,64,R,1,left,2195,1,1
7,65,L,0,,6673,1,1
7,66,R,1,left,2736,1,1
7,67,R,1,left,5376,0,1
7,68,L,1,left,1614,1,1
7,69,R,0,,12474,1,1
7,70,L,1,left,1883,1,1
7,71,L,0,,6164,1,1
7,72,L,0,,6655,0,1
7,73,L,1,right,1875,1,1
7,74,L,1,right,2404,1,1
7,75,L,0,,5044,1,1
7,76,R,0,,5224,1,1
7,77,R,1,right,2197,1,1
7,78,L,1,right,3144,1,1
7,79,L,1,right,2124,1,1
7,80,L,0,,3914,1,1
7,81,R,0,,5344,1,1
7,82,L,0,,4016,1,1
7,83,R,0,,3374,1,1
7,84,L,0,,3224,1,1
7,85,R,1,left,4210,0,1
7,86,R,1,left,2365,1,1
7,87,L,0,,6914,1,1
7,88,L,0,,3325,1,1
7,89,R,0,,5707,1,1
7,90,L,1,left,1648,1,1
7,91,L,1,left,1644,1,1
7,92,R,0,,4934,1,1
7,93,R,1,left,1894,1,1
7,94,R,0,,5495,1,1
7,95,R,1,left,3842,1,1
7,96,L,0,,5744,1,1
7,97,R,1,right,1825,1,1
7,98,R,1,right,1623,1,1
7,99,R,0,,6903,1,1
7,100,R,0,,5762,1,1
7,101,L,1,right,1901,1,1
7,102,R,1,right,1664,1,1
7,103,L,1,left,2095,1,1
7,104,L,1,left,1565,1,1
7,105,L,0,,5829,1,1
7,106,L,1,right,2334,1,1
7,107,L,1,left,1694,1,1
7,108,R,1,left,1874,1,1
7,109,L,0,,5024,1,1
7,110,R,1,left,2345,1,1
7,111,L,0,,4739,1,1
7,112,L,0,,3695,1,1
7,113,L,1,left,1947,1,1
7,114,L,1,right,2255,1,1
7,115,R,1,right,1555,1,1
7,116,R,1,left,2485,1,1
7,117,R,1,left,1705,1,1
7,118,R,1,right,1693,1,1
7,119,L,0,,4708,1,1
7,120,L,1,left,1715,1,1
7,121,R,1,right,1710,1,1
7,122,R,0,,2701,1,1
7,123,R,0,,2985,1,1
7,124,R,1,right,1614,1,1
7,125,R,1,left,3334,0,1
7,126,R,0,,5399,1,1
7,127,R,1,left,2739,1,1
7,128,R,0,,4034,1,1
7,129,L,0,,4914,1,1
7,130,L,1,left,1850,1,1
7,131,L,0,,4645,1,1
7,132,L,1,right,4948,1,1
7,133,L,1,right,1815,1,1
7,134,R,0,,4020,1,1
7,135,L,1,left,1693,1,1
7,136,R,0,,3739,1,1
7,137,L,0,,5405,1,1
7,138,L,1,right,2064,1,1
7,139,R,0,,5791,1,1
7,140,L,0,,4234,1,1
7,141,L,1,left,1605,1,1
7,142,R,0,,2905,1,1
7,143,R,0,,2648,1,1
7,144,L,0,,2940,1,1
7,145,R,0,,2293,1,1
7,146,R,1,right,1695,1,1
7,147,L,1,right,2864,1,1
7,148,R,1,right,1584,1,1
7,149,R,0,,3804,1,1
7,150,L,1,right,1745,1,1
7,151,R,0,,3574,1,1
7,152,R,1,left,2729,0,1
7,153,R,0,,4975,1,1
7,154,L,1,right,4404,1,1
7,155,R,0,,4017,1,1
7,156,R,0,,3965,1,1
7,157,R,0,,6155,1,1
7,158,R,1,right,1821,1,1
7,159,R,0,,3765,1,1
8,1,R,1,left,8237,1,1
8,2,R,1,right,2617,0,1
8,3,R,1,right,2914,1,1
8,4,R,1,right,1847,1,1
8,5,R,1,right,1985,1,1
8,6,R,0,,8304,1,1
8,7,L,1,right,6476,1,1
8,8,R,1,right,1973,1,1
8,9,R,0,,7075,1,1
8,10,R,0,,8349,1,1
8,11,R,1,right,2154,1,1
8,12,L,1,right,3626,1,1
8,13,R,1,left,10165,0,1
8,14,R,0,,10185,1,1
8,15,L,1,right,10193,0,1
8,16,L,1,left,2295,1,1
8,17,R,0,,11915,1,1
8,18,L,1,left,2254,1,1
8,19,R,0,,9925,1,1
8,20,R,0,,7881,1,1
8,21,L,0,,7627,1,1
8,22,R,1,right,2284,1,1
8,23,R,0,,9416,1,1
8,24,R,1,right,1884,1,1
8,25,R,0,,10825,1,1
8,26,L,1,right,4646,1,1
8,27,R,1,right,1864,1,1
8,28,R,1,right,1674,1,1
8,29,R,1,left,5015,1,1
8,30,R,0,,8626,1,1
8,31,R,0,,8216,1,1
8,32,R,0,,9376,1,1
8,33,L,0,,8356,1,1
8,34,R,0,,8065,1,1
8,35,L,1,left,2914,1,1
8,36,R,1,left,9636,0,1
8,37,L,1,right,6545,1,1
8,38,L,0,,8945,1,1
8,39,R,1,left,8586,0,1
8,40,L,1,right,10985,0,1
8,41,R,0,,9826,1,1
8,42,R,1,left,4954,1,1
8,43,L,0,,9645,1,1
8,44,R,0,,9995,1,1
8,45,L,0,,9632,1,1
8,46,R,1,right,2211,1,1
8,47,R,0,,8647,1,1
8,48,L,0,,6875,1,1
8,49,L,0,,7704,1,1
8,50,R,0,,7377,1,1
8,51,L,0,,9029,1,1
8,52,R,1,left,4904,1,1
8,53,R,1,left,7025,1,1
8,54,L,0,,8475,1,1
8,55,L,0,,7184,1,1
8,56,L,1,right,7705,0,1
8,57,R,0,,9476,1,1
8,58,L,0,,8733,1,1
8,59,L,1,left,2074,1,1
8,60,R,0,,8375,1,1
8,61,L,0,,9514,1,1
8,62,L,1,left,1744,1,1
8,63,R,0,,9192,1,1
8,64,R,0,,9085,1,1
8,65,R,0,,10375,1,1
8,66,R,1,left,11716,1,1
8,67,L,1,right,9436,0,1
8,68,R,0,,10556,1,1
8,69,L,0,,8914,1,1
8,70,L,1,left,2105,1,1
8,71,L,0,,10026,1,1
8,72,R,0,,9895,1,1
8,73,R,0,,8625,1,1
8,74,R,0,,8880,1,1
8,75,L,0,,11133,1,1
8,76,L,1,right,3625,1,1
8,77,R,0,,8425,1,1
8,78,R,0,,8415,1,1
8,79,L,0,,7183,1,1
8,80,R,0,,9816,1,1
8,81,L,1,right,6149,1,1
8,82,L,1,left,2241,1,1
8,83,R,1,left,5275,1,1
8,84,L,1,right,1834,1,1
8,85,R,1,left,8065,0,1
8,86,L,1,left,1911,1,1
8,87,L,0,,9695,1,1
8,88,R,1,left,8075,0,1
8,89,L,0,,9185,1,1
8,90,R,0,,6548,1,1
8,91,L,0,,7790,1,1
8,92,L,1,right,2293,1,1
8,93,R,0,,8065,1,1
8,94,L,1,right,3103,1,1
8,95,R,0,,7595,1,1
8,96,R,1,right,1754,1,1
8,97,L,1,left,1774,1,1
8,98,R,1,left,4645,1,1
8,99,R,1,right,1596,1,1
8,100,R,1,left,5835,1,1
8,101,L,1,right,8235,0,1
8,102,R,1,right,2613,1,1
8,103,L,1,left,1704,1,1
8,104,L,1,right,8776,0,1
8,105,L,1,left,1874,1,1
8,106,L,1,left,1634,1,1
8,107,L,0,,7574,1,1
8,108,L,0,,6004,1,1
8,109,R,1,right,2003,1,1
8,110,L,0,,6691,1,1
8,111,R,0,,7795,1,1
8,112,R,1,left,5825,1,1
8,113,L,0,,8665,1,1
8,114,L,1,right,2223,1,1
8,115,R,1,left,6685,1,1
8,116,L,1,left,1639,1,1
8,117,R,1,right,1804,1,1
8,118,L,0,,7134,1,1
8,119,L,1,right,2804,1,1
8,120,L,1,left,1713,1,1
8,121,R,0,,6685,1,1
8,122,R,0,,6764,1,1
8,123,L,0,,5585,1,1
8,124,L,0,,7384,1,1
8,125,R,0,,6707,1,1
8,126,L,0,,7365,1,1
8,127,R,0,,7393,1,1
8,128,L,1,left,1813,1,1
8,129,R,0,,7854,1,1
8,130,L,0,,7934,1,1
8,131,L,1,right,7025,0,1
8,132,L,1,right,3024,1,1
8,133,L,1,left,1704,1,1
8,134,R,1,left,4184,1,1
8,135,R,0,,7785,1,1
8,136,L,0,,6835,1,1
8,137,L,0,,6774,1,1
8,138,L,1,left,1747,1,1
8,139,L,0,,8985,1,1
8,140,R,1,left,7374,0,1
8,141,L,0,,7985,1,1
8,142,R,1,left,7555,0,1
8,143,L,0,,7364,1,1
8,144,R,1,right,1845,1,1
8,145,R,1,left,7195,0,1
8,146,R,0,,7395,1,1
8,147,L,0,,7715,1,1
8,148,L,0,,8265,1,1
8,149,L,1,left,1745,1,1
8,150,L,1,left,1654,1,1
8,151,R,1,right,1683,1,1
8,152,R,0,,7434,1,1
8,153,L,0,,8414,1,1
8,154,L,1,left,1781,1,1
8,155,L,1,right,4484,1,1
8,156,R,0,,8155,1,1
8,157,L,0,,7835,1,1
8,158,R,0,,7498,1,1
8,159,R,1,right,2003,1,1
8,160,L,1,right,7555,0,1
9,1,L,0,,6816,1,1
9,2,L,0,,6305,1,1
9,3,R,0,,7873,1,1
9,4,L,0,,6764,1,1
9,5,R,1,left,6014,1,1
9,6,R,1,left,2515,1,1
9,7,R,1,left,9955,1,1
9,8,L,0,,10796,1,1
9,9,L,0,,9555,1,1
9,10,L,1,left,2379,1,1
9,11,L,0,,10713,1,1
9,12,L,1,right,7543,1,1
9,13,R,1,right,2144,1,1
9,14,R,0,,17686,1,1
9,15,R,1,right,3235,1,1
9,16,L,0,,12375,1,1
9,17,R,1,right,2067,1,1
9,18,L,1,left,1973,1,1
9,19,L,0,,12056,1,1
9,20,L,1,right,7074,1,1
9,21,R,1,left,11635,0,1
9,22,L,1,left,1945,1,1
9,23,L,0,,12302,1,1
9,24,R,0,,7954,1,1
9,25,L,0,,8762,1,1
9,26,L,0,,9786,1,1
9,27,R,1,left,4164,1,1
9,28,L,0,,12055,1,1
9,29,R,0,,8684,1,1
9,30,R,0,,13666,1,1
9,31,R,1,right,1855,1,1
9,32,L,0,,7717,1,1
9,33,R,1,left,9695,1,1
9,34,L,1,left,2095,1,1
9,35,L,0,,10874,1,1
9,36,R,0,,11437,1,1
9,37,R,1,right,1878,1,1
9,38,R,1,left,3644,1,1
9,39,L,0,,9348,1,1
9,40,L,0,,9574,1,1
9,41,R,1,right,1773,1,1
9,42,L,0,,10775,1,1
9,43,R,0,,9215,1,1
9,44,R,0,,10780,1,1
9,45,R,1,left,5577,1,1
9,46,R,0,,8414,1,1
9,47,L,1,right,8396,1,1
9,48,R,0,,10965,1,1
9,49,R,1,right,1894,1,1
9,50,R,1,left,4145,1,1
9,51,R,1,left,3484,1,1
9,52,L,0,,6825,1,1
9,53,L,1,right,7386,0,1
9,54,R,1,right,1825,1,1
9,55,L,0,,6217,1,1
9,56,R,0,,7192,1,1
9,57,L,1,left,1873,1,1
9,58,L,1,right,7884,0,1
9,59,R,1,right,3175,1,1
9,60,L,0,,11345,1,1
9,61,R,0,,6378,1,1
9,62,L,1,right,4524,1,1
9,63,L,1,left,1864,1,1
9,64,R,0,,6289,1,1
9,65,R,0,,6765,1,1
9,66,R,0,,6557,1,1
9,67,R,1,right,8164,0,1
9,68,R,1,left,6185,1,1
9,69,R,0,,10405,1,1
9,70,L,1,right,10094,0,1
9,71,R,1,right,2209,1,1
9,72,R,1,right,1958,1,1
9,73,L,0,,9695,1,1
9,74,L,0,,6557,1,1
9,75,L,1,left,2115,1,1
9,76,R,0,,5218,1,1
9,77,R,0,,4942,1,1
9,78,R,0,,7661,1,1
9,79,R,1,right,1664,1,1
9,80,R,0,,6545,1,1
9,81,R,0,,5194,1,1
9,82,L,1,left,2094,1,1
9,83,R,0,,6255,1,1
9,84,R,1,right,1646,1,1
9,85,L,1,left,2244,1,1
9,86,R,0,,8875,1,1
9,87,L,0,,6907,1,1
9,88,L,1,right,7094,1,1
9,89,R,1,left,7534,1,1
9,90,L,1,left,1774,1,1
9,91,L,1,left,1580,1,1
9,92,R,0,,6027,1,1
9,93,R,0,,10145,1,1
9,94,L,1,left,1674,1,1
9,95,R,1,right,1664,1,1
9,96,L,0,,8705,1,1
9,97,R,1,left,7654,0,1
9,98,R,0,,7245,1,1
9,99,L,0,,5395,1,1
9,100,R,1,left,5093,1,1
9,101,L,1,right,7576,0,1
9,102,R,1,left,8024,0,1
9,103,R,0,,10303,1,1
9,104,R,0,,7824,1,1
9,105,L,1,left,1863,0,1
9,106,R,0,,7757,1,1
9,107,L,0,,8135,1,1
9,108,R,1,left,7873,1,1
9,109,L,0,,10765,1,1
9,110,L,1,right,6196,1,1
9,111,R,1,left,2134,1,1
9,112,L,1,right,3694,1,1
9,113,R,0,,6754,1,1
9,114,R,0,,6424,1,1
9,115,L,1,left,1784,1,1
9,116,R,0,,5707,1,1
9,117,L,1,right,5723,0,1
9,118,L,1,right,5574,1,1
9,119,L,1,right,6151,1,1
9,120,L,0,,10691,1,1
9,121,R,0,,9975,1,1
9,122,R,0,,12631,1,1
9,123,R,0,,6776,1,1
9,124,R,0,,8145,1,1
9,125,L,1,left,1824,1,1
9,126,R,1,left,2173,1,1
9,127,L,1,left,1775,1,1
9,128,L,1,right,8756,0,1
9,129,R,0,,8255,1,1
9,130,R,0,,6705,1,1
9,131,R,1,left,4665,1,1
9,132,L,1,right,3194,1,1
9,133,R,1,left,8845,0,1
9,134,L,0,,7703,1,1
9,135,L,1,right,3204,1,1
9,136,R,0,,4835,1,1
9,137,R,1,right,1714,1,1
9,138,R,1,right,1624,1,1
9,139,L,1,right,3235,1,1
9,140,R,0,,6215,1,1
9,141,L,0,,5746,1,1
9,142,L,0,,8014,1,1
9,143,L,0,,6154,1,1
9,144,L,1,right,3264,1,1
9,145,L,1,right,2762,1,1
9,146,L,0,,5922,1,1
9,147,R,0,,6144,1,1
9,148,L,0,,4365,1,1
9,149,R,1,right,1663,1,1
9,150,L,1,left,1779,1,1
9,151,L,1,left,1684,1,1
9,152,L,0,,4525,1,1
9,153,L,1,right,2953,1,1
9,154,L,0,,4184,1,1
9,155,R,0,,4524,1,1
9,156,L,0,,5233,1,1
9,157,R,0,,5125,1,1
9,158,L,1,left,1735,1,1
10,1,L,0,,7744,1,1
10,2,L,1,left,2183,1,1
10,3,R,0,,6555,1,1
10,4,R,0,,7794,1,1
10,5,L,0,,7365,1,1
10,6,L,0,,6355,1,1
10,7,L,1,left,2265,1,1
10,8,L,1,left,1815,1,1
10,9,L,1,right,6054,0,1
10,10,R,0,,8954,1,1
10,11,L,0,,7805,1,1
10,12,L,1,left,2131,1,1
10,13,R,1,right,1814,1,1
10,14,L,1,right,6085,1,1
10,15,R,1,left,5825,1,1
10,16,R,0,,8314,1,1
10,17,R,0,,8515,1,1
10,18,R,0,,9572,1,1
10,19,R,0,,8048,1,1
10,20,L,1,left,1895,1,1
10,21,R,0,,9565,1,1
10,22,L,0,,6245,1,1
10,23,L,0,,8155,1,1
10,24,R,1,right,1885,1,1
10,25,R,1,right,1846,1,1
10,26,L,1,left,1795,1,1
10,27,R,1,left,6925,1,1
10,28,R,0,,9403,1,1
10,29,L,1,left,2214,1,1
10,30,L,0,,9005,1,1
10,31,R,1,left,8866,1,1
10,32,L,1,left,1925,1,1
10,33,R,1,left,9496,0,1
10,34,R,1,left,9236,0,1
10,35,L,0,,11726,1,1
10,36,L,1,right,13016,0,1
10,37,L,1,left,1818,1,1
10,38,L,0,,14585,1,1
10,39,R,0,,12976,1,1
10,40,R,1,right,1944,1,1
10,41,L,0,,12065,1,1
10,42,R,0,,13597,1,1
10,43,L,1,left,1794,1,1
10,44,R,0,,13293,1,1
10,45,R,0,,10955,1,1
10,46,L,0,,13736,1,1
10,47,R,0,,13575,1,1
10,48,R,1,left,17257,0,1
10,49,R,1,left,4635,1,1
10,50,L,0,,18503,1,1
10,51,R,0,,17558,1,1
10,52,R,0,,15447,1,1
10,53,L,1,left,2084,1,1
10,54,R,1,right,1705,1,1
10,55,R,1,left,17306,0,1
10,56,L,1,right,18736,0,1
10,57,L,0,,19566,1,1
10,58,L,1,right,15346,1,1
10,59,L,1,left,1676,1,1
10,60,R,0,,22708,1,1
10,61,L,0,,19137,1,1
10,62,R,0,,20138,1,1
10,63,R,0,,21256,1,1
10,64,L,1,left,1784,1,1
10,65,R,1,left,4684,1,1
10,66,R,1,left,2803,1,1
10,67,L,1,right,13546,1,1
10,68,R,1,right,2015,1,1
10,69,R,0,,19078,1,1
10,70,L,0,,17116,1,1
10,71,R,1,left,16894,1,1
10,72,L,0,,17656,1,1
10,73,R,0,,20557,1,1
10,74,R,1,right,1805,1,1
10,75,L,1,right,11283,1,1
10,76,R,0,,18497,1,1
10,77,L,1,left,1825,1,1
10,78,L,1,right,13819,1,1
10,79,L,0,,14226,1,1
10,80,L,0,,11585,1,1
10,81,L,0,,13675,1,1
10,82,L,1,left,1755,1,1
10,83,L,1,left,1914,1,1
10,84,L,1,right,6264,1,1
10,85,R,1,left,3675,1,1
10,86,L,1,left,1785,1,1
10,87,R,1,right,1639,1,1
10,88,R,0,,13930,1,1
10,89,R,0,,10276,1,1
10,90,R,1,right,1895,1,1
10,91,L,1,right,14587,0,1
10,92,R,0,,13363,1,1
10,93,L,0,,10326,1,1
10,94,R,1,right,1774,1,1
10,95,R,1,left,13856,0,1
10,96,L,1,right,3444,1,1
10,97,L,0,,18838,1,1
10,98,R,0,,16086,1,1
10,99,R,0,,16276,1,1
10,100,R,1,left,15564,0,1
10,101,R,0,,18496,1,1
10,102,L,0,,19166,1,1
10,103,R,1,right,1755,1,1
10,104,L,1,right,11790,1,1
10,105,R,0,,19907,1,1
10,106,L,1,right,15670,1,1
10,107,R,1,right,1785,1,1
10,108,L,0,,17452,1,1
10,109,R,1,right,1815,1,1
10,110,R,1,right,1794,1,1
10,111,R,0,,20717,1,1
10,112,R,0,,18118,1,1
10,113,R,0,,11986,1,1
10,114,L,0,,10835,1,1
10,115,L,1,left,1726,1,1
10,116,R,1,right,2465,1,1
10,117,L,0,,10786,1,1
10,118,R,1,right,1624,1,1
10,119,R,1,left,9585,1,1
10,120,L,1,right,11446,0,1
10,121,L,0,,10655,1,1
10,122,R,0,,7484,1,1
10,123,R,1,left,6029,1,1
10,124,R,1,right,1664,1,1
10,125,R,1,right,1646,1,1
10,126,L,0,,7095,1,1
10,127,L,1,right,2728,1,1
10,128,L,0,,9326,1,1
10,129,L,0,,7745,1,1
10,130,L,1,right,6663,1,1
10,131,L,1,right,5176,1,1
10,132,L,0,,8016,1,1
10,133,L,1,left,1764,1,1
10,134,R,1,right,1863,1,1
10,135,R,1,left,3425,1,1
10,136,L,1,right,7174,0,1
10,137,L,0,,8216,1,1
10,138,L,0,,8865,1,1
10,139,L,1,right,7865,0,1
10,140,R,0,,9565,1,1
10,141,R,0,,10865,1,1
10,142,R,0,,9354,1,1
10,143,R,0,,9335,1,1
10,144,L,0,,9516,1,1
10,145,L,0,,9709,1,1
10,146,L,0,,7814,1,1
10,147,R,1,left,5339,1,1
10,148,L,1,right,3541,1,1
10,149,R,0,,7425,1,1
10,150,R,1,left,6779,0,1
10,151,R,0,,8173,1,1
10,152,L,1,left,1865,1,1
10,153,R,0,,8004,1,1
10,154,L,0,,8764,1,1
10,155,R,1,left,2495,1,1
10,156,R,0,,6053,1,1
10,157,R,0,,7496,1,1
10,158,R,0,,6585,1,1
10,159,L,0,,7735,1,1
11,1,R,1,right,1949,1,1
11,2,L,0,,2025,1,1
11,3,R,0,,2624,1,1
11,4,R,1,right,1614,1,1
11,5,R,1,right,1623,1,1
11,6,R,0,,2115,1,1
11,7,L,0,,1754,1,1
11,8,R,0,,1754,1,1
11,9,R,1,left,2043,1,1
11,10,R,0,,1782,1,1
11,11,L,1,right,1744,1,1
11,12,L,1,right,1683,0,1
11,13,R,0,,1994,1,1
11,14,R,0,,1930,1,1
11,15,R,0,,2215,1,1
11,16,R,0,,1674,1,1
11,17,L,1,left,1766,1,1
11,18,R,1,left,2503,1,1
11,19,L,0,,2194,1,1
11,20,L,1,right,1944,1,1
11,21,R,1,right,1864,1,1
11,22,R,0,,2194,1,1
11,23,R,0,,2324,1,1
11,24,R,0,,1744,1,1
11,25,L,1,right,2024,1,1
11,26,L,1,left,1815,1,1
11,27,R,0,,1874,1,1
11,28,R,0,,1700,1,1
11,29,R,1,right,1624,1,1
11,30,L,0,,1734,1,1
11,31,L,1,right,1699,0,1
11,32,L,1,left,1634,1,1
11,33,R,0,,2062,1,1
11,34,L,1,left,1684,1,1
11,35,R,0,,2034,1,1
11,36,L,1,right,2439,0,1
11,37,L,0,,2024,1,1
11,38,L,1,left,1636,1,1
11,39,R,1,left,2224,0,1
11,40,L,0,,2383,1,1
11,41,R,0,,2523,1,1
11,42,L,1,left,1525,1,1
11,43,R,1,right,1591,1,1
11,44,L,0,,2093,1,1
11,45,L,0,,1965,1,1
11,46,L,1,left,1604,1,1
11,47,R,0,,2176,1,1
11,48,R,1,left,1753,0,1
11,49,R,1,right,1494,1,1
11,50,R,1,left,1933,1,1
11,51,R,1,right,1593,1,1
11,52,L,0,,1834,1,1
11,53,R,0,,1684,1,1
11,54,R,1,right,1704,1,1
11,55,L,1,right,1834,0,1
11,56,R,1,right,1623,1,1
11,57,R,0,,2108,1,1
11,58,R,1,left,1834,0,1
11,59,L,0,,2394,1,1
11,60,L,0,,1823,1,1
11,61,R,1,right,1604,1,1
11,62,R,0,,2103,1,1
11,63,L,1,right,1754,0,1
11,64,L,0,,1905,1,1
11,65,R,0,,1778,1,1
11,66,L,1,right,1925,1,1
11,67,L,0,,1914,1,1
11,68,L,1,right,2093,1,1
11,69,L,0,,1824,1,1
11,70,R,1,left,1955,0,1
11,71,R,1,left,1915,1,1
11,72,L,0,,1824,1,1
11,73,R,0,,1915,1,1
11,74,R,0,,1844,1,1
11,75,R,0,,1744,1,1
11,76,L,1,left,1555,1,1
11,77,R,1,left,1744,1,1
11,78,R,1,left,1844,0,1
11,79,R,1,right,1654,1,1
11,80,L,1,left,1573,1,1
11,81,R,1,left,1983,1,1
11,82,L,1,right,1774,1,1
11,83,L,0,,1984,1,1
11,84,R,0,,2283,1,1
11,85,L,1,right,1833,1,1
11,86,L,0,,1982,1,1
11,87,R,1,right,1654,1,1
11,88,R,1,right,1694,1,1
11,89,L,1,right,2044,1,1
11,90,R,0,,2135,1,1
11,91,R,0,,2054,1,1
11,92,R,1,right,1554,1,1
11,93,R,1,right,2084,1,1
11,94,R,0,,2163,1,1
11,95,R,0,,1714,1,1
11,96,L,1,left,1634,1,1
11,97,L,0,,1743,1,1
11,98,L,1,right,1944,1,1
11,99,L,0,,2094,1,1
11,100,L,0,,1874,1,1
11,101,R,1,right,1634,1,1
11,102,L,0,,2055,1,1
11,103,R,0,,1804,1,1
11,104,R,0,,1654,1,1
11,105,L,1,right,1944,1,1
11,106,L,0,,1933,1,1
11,107,L,0,,2154,1,1
11,108,R,0,,1883,1,1
11,109,R,1,left,1813,1,1
11,110,L,1,left,1744,1,1
11,111,L,0,,1795,1,1
11,112,R,1,left,1984,1,1
11,113,L,1,left,1723,1,1
11,114,L,0,,2104,1,1
11,115,R,0,,2515,1,1
11,116,L,1,left,1638,1,1
11,117,L,1,right,1923,1,1
11,118,R,0,,1825,1,1
11,119,L,1,left,1575,1,1
11,120,L,0,,2004,1,1
11,121,R,0,,1963,1,1
11,122,L,0,,1764,1,1
11,123,R,0,,1764,1,1
11,124,R,1,left,1725,0,1
11,125,L,1,right,1813,0,1
11,126,L,1,left,1644,1,1
11,127,R,0,,1738,1,1
11,128,L,0,,2065,1,1
11,129,L,1,right,1814,0,1
11,130,R,0,,2044,1,1
11,131,L,0,,1741,1,1
11,132,R,1,right,1542,1,1
11,133,R,0,,2215,1,1
11,134,R,0,,1814,1,1
11,135,R,0,,1584,1,1
11,136,R,1,left,1732,1,1
11,137,L,1,right,1874,1,1
11,138,L,0,,1884,1,1
11,139,R,1,left,2033,0,1
11,140,L,0,,2184,1,1
11,141,L,1,left,1763,1,1
11,142,R,1,left,1764,1,1
11,143,L,1,left,1544,1,1
11,144,L,1,left,1574,1,1
11,145,L,0,,1653,1,1
11,146,L,0,,1908,1,1
11,147,R,1,left,1934,1,1
11,148,L,0,,1784,1,1
11,149,L,1,left,1585,1,1
11,150,L,0,,2005,1,1
11,151,R,1,right,1879,1,1
11,152,L,0,,1795,1,1
11,153,R,0,,2354,1,1
11,154,L,1,left,1553,1,1
11,155,R,1,left,1855,0,1
11,156,L,0,,2489,1,1
11,157,R,0,,1724,1,1
11,158,R,1,left,1789,0,1
11,159,L,1,right,1824,1,1
11,160,L,1,right,1875,1,1
12,1,R,0,,10347,1,1
12,2,R,0,,9654,1,1
12,3,R,0,,10005,1,1
12,4,L,1,left,2374,1,1
12,5,R,1,right,2152,1,1
12,6,R,1,right,2063,1,1
12,7,R,1,left,12324,0,1
12,8,L,1,left,2122,1,1
12,9,L,0,,16566,1,1
12,10,L,0,,11614,1,1
12,11,R,1,right,2094,1,1
12,12,L,1,right,13515,1,1
12,13,L,1,right,6134,1,1
12,14,R,1,right,2332,1,1
12,15,L,0,,10915,1,1
12,16,R,0,,12665,1,1
12,17,L,0,,13445,1,1
12,18,L,1,right,8124,1,1
12,19,L,0,,11495,1,1
12,20,L,0,,11696,1,1
12,21,R,1,right,1854,1,1
12,22,R,1,left,13044,0,1
12,23,R,1,right,1865,1,1
12,24,R,0,,14166,1,1
12,25,L,1,left,1990,1,1
12,26,L,1,left,1827,1,1
12,27,R,0,,14973,1,1
12,28,R,0,,13230,1,1
12,29,R,1,left,11904,0,1
12,30,L,1,left,1936,1,1
12,31,R,1,left,6913,1,1
12,32,L,0,,14685,1,1
12,33,L,1,left,1787,1,1
12,34,L,1,left,1793,1,1
12,35,L,1,left,1943,1,1
12,36,L,0,,19626,1,1
12,37,R,0,,16736,1,1
12,38,L,0,,13485,1,1
12,39,L,1,left,1905,1,1
12,40,L,0,,17204,1,1
12,41,R,1,right,1755,1,1
12,42,R,1,left,8114,1,1
12,43,R,0,,13435,1,1
12,44,R,0,,14775,1,1
12,45,L,1,right,10004,1,1
12,46,L,0,,10795,1,1
12,47,R,0,,18786,1,1
12,48,R,0,,16196,1,1
12,49,L,1,left,2364,1,1
12,50,L,1,right,13695,1,1
12,51,R,0,,16777,1,1
12,52,R,0,,14476,1,1
12,53,L,1,left,1934,1,1
12,54,L,1,left,1654,1,1
12,55,L,0,,14006,1,1
12,56,L,1,left,1653,1,1
12,57,L,0,,12855,1,1
12,58,L,0,,14395,1,1
12,59,R,1,left,12684,0,1
12,60,L,1,right,10175,1,1
12,61,R,1,right,1913,1,1
12,62,R,0,,18239,1,1
12,63,L,0,,13725,1,1
12,64,R,0,,15906,1,1
12,65,R,1,left,13045,1,1
12,66,R,0,,15606,1,1
12,67,R,1,left,19366,0,1
12,68,R,0,,23507,1,1
12,69,R,1,left,5484,1,1
12,70,L,1,left,1723,1,1
12,71,L,1,left,2350,1,1
12,72,L,0,,14795,1,1
12,73,L,0,,15445,1,1
12,74,L,0,,16475,1,1
12,75,L,1,right,14177,1,1
12,76,L,0,,18637,1,1
12,77,R,0,,20236,1,1
12,78,L,1,right,13856,1,1
12,79,R,1,right,1975,1,1
12,80,R,0,,13557,1,1
12,81,R,0,,20296,1,1
12,82,R,0,,11215,1,1
12,83,R,0,,17333,1,1
12,84,R,1,left,18386,0,1
12,85,L,0,,16236,1,1
12,86,L,1,left,1694,1,1
12,87,R,0,,16345,1,1
12,88,R,1,left,14046,0,1
12,89,L,1,right,15646,1,1
12,90,R,0,,18736,1,1
12,91,R,0,,24268,1,1
12,92,L,1,right,19316,0,1
12,93,L,1,left,1816,1,1
12,94,R,1,left,4153,1,1
12,95,L,0,,14296,1,1
12,96,L,0,,14472,1,1
12,97,L,0,,10245,1,1
12,98,L,0,,19207,1,1
12,99,L,1,right,4244,1,1
12,100,R,0,,13185,1,1
12,101,L,1,right,13895,1,1
12,102,L,1,right,6624,1,1
12,103,R,1,right,1843,1,1
12,104,R,0,,17445,1,1
12,105,R,0,,22587,1,1
12,106,R,1,left,16235,1,1
12,107,R,0,,20025,1,1
12,108,R,1,left,12886,0,1
12,109,L,0,,16706,1,1
12,110,L,1,right,3184,1,1
12,111,R,1,left,4094,1,1
12,112,R,1,left,10356,1,1
12,113,L,0,,14949,1,1
12,114,R,0,,10159,1,1
12,115,R,0,,16316,1,1
12,116,R,1,right,1923,1,1
12,117,L,1,right,2301,1,1
12,118,R,0,,14835,1,1
12,119,R,0,,11506,1,1
12,120,L,1,left,1783,1,1
12,121,L,0,,15204,1,1
12,122,L,1,right,17746,0,1
12,123,R,0,,14436,1,1
12,124,R,0,,14265,1,1
12,125,L,0,,13702,1,1
12,126,R,0,,11515,1,1
12,127,R,1,right,2034,1,1
12,128,R,0,,14425,1,1
12,129,R,1,right,2104,1,1
12,130,L,0,,11896,1,1
12,131,R,0,,13107,1,1
12,132,L,1,left,1669,1,1
12,133,L,0,,13646,1,1
12,134,R,1,right,1718,1,1
12,135,L,0,,14335,1,1
12,136,L,1,right,11936,1,1
12,137,R,0,,13345,1,1
12,138,R,0,,11125,1,1
12,139,L,1,left,1964,1,1
12,140,L,1,right,13995,1,1
12,141,R,0,,13696,1,1
12,142,L,1,right,3563,1,1
12,143,R,1,right,1722,1,1
12,144,L,1,right,3264,1,1
12,145,L,0,,10714,1,1
12,146,L,1,right,5488,1,1
12,147,R,1,right,2714,1,1
12,148,R,1,left,15076,0,1
12,149,R,1,right,1693,1,1
12,150,R,1,right,1744,1,1
12,151,L,0,,11619,1,1
12,152,R,1,left,6696,1,1
12,153,L,0,,8771,1,1
12,154,R,1,left,11623,1,1
12,155,L,0,,13919,1,1
12,156,R,1,left,11025,0,1
12,157,L,0,,21576,1,1
12,158,R,0,,11886,1,1
12,159,R,1,right,1714,1,1
12,160,L,0,,12218,1,1
13,1,L,0,,6654,0,1
13,2,R,0,,5525,1,1
13,3,L,0,,5265,0,1
13,4,R,1,right,2607,1,1
13,5,R,0,,4974,1,1
13,6,L,0,,2600,0,1
13,7,R,1,left,2926,1,1
13,8,R,1,right,1604,1,1
13,9,L,0,,4284,1,1
13,10,L,1,left,1545,1,1
13,11,R,1,left,1901,1,1
13,12,R,1,right,1504,1,1
13,13,L,1,left,1572,1,1
13,14,L,0,,4264,1,1
13,15,L,1,right,2285,1,1
13,16,R,0,,4870,1,1
13,17,R,0,,2885,1,1
13,18,L,1,right,1924,1,1
13,19,L,0,,3365,1,1
13,20,R,1,right,1533,1,1
13,21,R,0,,2994,1,1
13,22,R,0,,3485,1,1
13,23,R,1,right,1604,1,1
13,24,L,1,left,1533,1,1
13,25,R,0,,3631,1,1
13,26,L,1,left,1494,1,1
13,27,R,0,,3435,1,1
13,28,L,1,left,1535,1,1
13,29,R,0,,2715,1,1
13,30,L,0,,2804,1,1
13,31,R,1,right,1674,1,1
13,32,L,1,left,1545,1,1
13,33,L,1,right,2584,1,1
13,34,L,1,right,1734,1,1
13,35,L,1,right,2364,1,1
13,36,L,0,,2925,1,1
13,37,R,1,left,1796,1,1
13,38,R,0,,3117,1,1
13,39,L,1,right,2043,1,1
13,40,L,0,,2603,1,1
13,41,R,1,left,1554,1,1
13,42,L,0,,2805,1,1
13,43,L,0,,2724,1,1
13,44,R,0,,3365,1,1
13,45,L,0,,3390,1,1
13,46,L,0,,2765,1,1
13,47,L,1,left,1485,1,1
13,48,R,1,right,1485,0,1
13,49,R,1,left,2074,1,1
13,50,L,0,,2794,1,1
13,51,L,1,left,1514,1,1
13,52,R,0,,2666,1,1
13,53,L,1,right,1916,1,1
13,54,R,1,right,1474,1,1
13,55,R,0,,2534,1,1
13,56,R,1,right,1494,1,1
13,57,R,0,,2841,1,1
13,58,L,1,left,1639,1,1
13,59,R,0,,2529,1,1
13,60,L,0,,2733,1,1
13,61,R,1,left,1853,1,1
13,62,L,1,right,3364,0,1
13,63,R,0,,3884,1,1
13,64,L,0,,2805,1,1
13,65,R,1,right,1518,1,1
13,66,R,0,,2804,1,1
13,67,L,1,right,2543,1,1
13,68,L,1,right,1704,1,1
13,69,L,0,,2765,1,1
13,70,R,1,left,2804,0,1
13,71,R,1,left,3544,1,1
13,72,L,1,right,1875,1,1
13,73,R,1,left,2394,1,1
13,74,R,0,,3255,1,1
13,75,R,0,,3088,1,1
13,76,R,1,left,3334,0,1
13,77,R,0,,4165,1,1
13,78,R,0,,4579,1,1
13,79,L,0,,3595,1,1
13,80,R,0,,3166,1,1
13,81,R,1,left,1975,1,1
13,82,L,0,,2025,0,1
13,83,R,1,left,1673,1,1
13,84,R,1,left,2009,1,1
13,85,R,0,,3475,1,1
13,86,L,0,,3050,1,1
13,87,R,1,left,3084,0,1
13,88,L,1,left,1554,1,1
13,89,R,1,right,1604,1,1
13,90,R,1,right,1512,1,1
13,91,R,0,,2975,1,1
13,92,L,0,,2895,1,1
13,93,L,0,,2994,1,1
13,94,L,0,,2634,1,1
13,95,L,1,left,1605,1,1
13,96,L,1,right,1897,1,1
13,97,R,1,left,2014,1,1
13,98,L,0,,2485,1,1
13,99,R,0,,2394,1,1
13,100,R,0,,2455,1,1
13,101,L,1,left,1472,1,1
13,102,L,0,,3075,1,1
13,103,L,0,,2474,1,1
13,104,R,1,right,1594,1,1
13,105,L,1,right,2106,1,1
13,106,L,1,right,1964,1,1
13,107,R,0,,3434,1,1
13,108,L,1,right,2685,1,1
13,109,R,0,,4627,1,1
13,110,L,1,left,1764,1,1
13,111,R,1,left,3354,1,1
13,112,L,1,right,1695,1,1
13,113,L,0,,3314,1,1
13,114,L,1,right,1634,1,1
13,115,L,1,right,2675,1,1
13,116,R,0,,3355,1,1
13,117,R,0,,2625,1,1
13,118,R,0,,3304,1,1
13,119,R,0,,3453,1,1
13,120,L,1,left,1565,1,1
13,121,L,1,left,1495,1,1
13,122,L,1,left,1504,1,1
13,123,R,1,left,1534,1,1
13,124,L,0,,3784,1,1
13,125,L,0,,2665,1,1
13,126,R,1,right,1566,1,1
13,127,L,1,right,2804,1,1
13,128,R,0,,2715,1,1
13,129,L,0,,3125,1,1
13,130,L,0,,2520,1,1
13,131,L,1,left,1523,1,1
13,132,R,0,,5095,1,1
13,133,L,1,right,1744,1,1
13,134,L,1,left,1466,1,1
13,135,R,1,left,1634,1,1
13,136,R,1,right,1493,1,1
13,137,L,0,,3005,1,1
13,138,R,1,left,2084,1,1
13,139,R,0,,2635,0,1
13,140,R,0,,3094,1,1
13,141,L,0,,2924,1,1
13,142,R,1,left,2004,1,1
13,143,R,1,right,1594,1,1
13,144,L,1,left,1564,1,1
13,145,R,0,,3517,1,1
13,146,R,1,right,1454,1,1
13,147,R,1,right,1514,1,1
13,148,L,0,,4025,1,1
13,149,L,1,left,1725,1,1
13,150,R,1,right,1555,1,1
13,151,R,0,,3394,1,1
13,152,R,0,,2875,1,1
13,153,R,0,,2583,1,1
13,154,L,0,,3133,1,1
13,155,R,0,,2885,1,1
13,156,R,0,,2541,1,1
13,157,L,0,,3396,1,1
13,158,L,0,,3905,1,1
13,159,R,0,,3314,1,1
13,160,L,1,right,2820,0,1
14,1,R,0,,7290,1,1
14,2,R,0,,6997,1,1
14,3,L,1,right,6657,0,1
14,4,L,0,,7212,1,1
14,5,L,1,right,6787,0,1
14,6,R,1,left,2896,1,1
14,7,R,1,right,2656,1,1
14,8,R,1,left,2656,1,1
14,9,R,0,,7274,1,1
14,10,L,1,right,6718,0,1
14,11,L,0,,7737,1,1
14,12,L,1,left,2387,1,1
14,13,L,1,right,7827,0,1
14,14,L,0,,13008,0,1
14,15,R,0,,10338,1,1
14,16,R,1,left,4835,1,1
14,17,L,1,left,1866,1,1
14,18,L,1,left,2611,1,1
14,19,R,0,,8757,1,1
14,20,L,0,,10037,1,1
14,21,R,1,left,7537,0,1
14,22,L,0,,9096,1,1
14,23,L,1,left,2627,1,1
14,24,R,1,right,2037,1,1
14,25,L,0,,10806,1,1
14,26,R,0,,7717,1,1
14,27,R,1,left,3897,1,1
14,28,R,1,left,6478,0,1
14,29,L,0,,6858,1,1
14,30,L,1,left,1876,1,1
14,31,R,0,,8157,1,1
14,32,L,1,left,1836,1,1
14,33,L,1,right,5856,0,1
14,34,R,1,right,1806,1,1
14,35,L,1,left,1798,1,1
14,36,R,1,right,1776,1,1
14,37,R,1,right,1836,1,1
14,38,L,1,right,5467,1,1
14,39,L,0,,5786,1,1
14,40,L,0,,5717,1,1
14,41,R,0,,6818,1,1
14,42,R,1,left,4015,1,1
14,43,L,0,,5966,1,1
14,44,R,0,,5816,1,1
14,45,L,0,,5429,1,1
14,46,R,1,left,7976,0,1
14,47,L,1,left,1806,1,1
14,48,R,1,right,1763,1,1
14,49,L,1,right,6547,0,1
14,50,L,1,left,1772,1,1
14,51,L,0,,7367,1,1
14,52,R,0,,6317,1,1
14,53,R,1,left,6077,0,1
14,54,L,0,,7907,1,1
14,55,L,1,left,2005,1,1
14,56,L,1,left,1646,1,1
14,57,R,1,left,5956,0,1
14,58,L,0,,4187,1,1
14,59,L,0,,6507,1,1
14,60,L,0,,6192,1,1
14,61,R,1,right,1827,1,1
14,62,R,0,,7619,1,1
14,63,L,1,right,4627,0,1
14,64,R,1,left,5762,1,1
14,65,R,1,left,3646,1,1
14,66,R,0,,7547,1,1
14,67,L,1,right,7008,0,1
14,68,R,1,left,6437,1,1
14,69,R,1,right,2057,1,1
14,70,R,0,,10678,1,1
14,71,L,0,,10008,1,1
14,72,L,0,,11017,1,1
14,73,R,0,,6647,1,1
14,74,R,0,,10197,1,1
14,75,R,1,left,3446,1,1
14,76,R,1,left,5027,1,1
14,77,L,1,left,1937,1,1
14,78,L,1,right,8587,1,1
14,79,L,1,right,8597,0,1
14,80,L,1,left,2335,1,1
14,81,R,1,right,2176,1,1
14,82,L,1,left,1816,1,1
14,83,R,1,right,1697,1,1
14,84,R,0,,9316,1,1
14,85,L,0,,7956,1,1
14,86,L,0,,8918,1,1
14,87,L,1,right,3271,1,1
14,88,R,0,,8536,1,1
14,89,R,0,,8749,1,1
14,90,R,0,,8727,1,1
14,91,L,0,,7703,1,1
14,92,R,0,,6814,1,1
14,93,L,1,left,2026,1,1
14,94,R,0,,5968,1,1
14,95,R,0,,6226,1,1
14,96,L,0,,5657,1,1
14,97,R,0,,7786,1,1
14,98,R,1,left,5707,0,1
14,99,L,0,,5213,1,1
14,100,L,0,,6117,1,1
14,101,R,1,right,1856,1,1
14,102,L,1,right,4475,1,1
14,103,L,0,,9457,1,1
14,104,L,1,right,3246,1,1
14,105,L,1,right,8177,0,1
14,106,L,1,left,2506,1,1
14,107,L,1,right,5687,1,1
14,108,R,1,right,1697,1,1
14,109,L,0,,6487,1,1
14,110,L,1,left,2096,1,1
14,111,R,0,,6298,1,1
14,112,R,1,right,1698,1,1
14,113,R,1,left,6657,0,1
14,114,L,1,right,2797,1,1
14,115,R,0,,6727,1,1
14,116,R,1,left,3956,1,1
14,117,R,0,,4713,1,1
14,118,R,0,,5197,1,1
14,119,L,0,,5127,1,1
14,120,L,0,,5457,1,1
14,121,L,0,,6198,1,1
14,122,R,0,,5325,1,1
14,123,R,1,right,1856,1,1
14,124,R,0,,4946,1,1
14,125,L,1,right,6003,0,1
14,126,R,0,,5587,1,1
14,127,R,0,,5907,1,1
14,128,R,0,,7487,1,1
14,129,L,0,,5596,1,1
14,130,R,0,,6236,1,1
14,131,L,1,right,5367,1,1
14,132,R,0,,6587,1,1
14,133,L,0,,7256,1,1
14,134,R,1,right,1765,1,1
14,135,R,0,,5776,1,1
14,136,R,0,,5387,1,1
14,137,R,1,right,1636,1,1
14,138,R,0,,5096,1,1
14,139,R,0,,5321,1,1
14,140,R,1,right,6057,0,1
14,141,L,0,,7397,1,1
14,142,R,0,,8086,1,1
14,143,L,1,right,4678,1,1
14,144,L,0,,6216,1,1
14,145,L,0,,5707,1,1
14,146,R,1,left,4386,1,1
14,147,L,1,left,1767,1,1
14,148,L,1,left,1796,1,1
14,149,R,0,,6347,1,1
14,150,R,1,left,2976,1,1
14,151,L,1,left,2037,1,1
14,152,R,0,,5757,1,1
14,153,R,1,right,1672,1,1
14,154,R,0,,6037,1,1
14,155,L,1,right,4047,0,1
14,156,L,0,,5861,1,1
14,157,R,1,right,5506,1,1
14,158,R,0,,5477,1,1
14,159,L,0,,5756,1,1
14,160,L,0,,6267,1,1
15,1,L,0,,7854,1,1
15,2,L,1,right,6585,1,1
15,3,R,0,,5925,1,1
15,4,L,1,right,2245,1,1
15,5,R,0,,5173,1,1
15,6,L,0,,5494,1,1
15,7,R,1,left,4503,1,1
15,8,L,1,right,6204,1,1
15,9,R,0,,7736,1,1
15,10,L,0,,4684,1,1
15,11,L,0,,4754,1,1
15,12,R,0,,5305,1,1
15,13,L,1,left,2893,1,1
15,14,R,0,,6184,1,1
15,15,L,1,left,2032,1,1
15,16,R,1,left,2084,1,1
15,17,R,0,,5146,1,1
15,18,L,1,right,4742,0,1
15,19,L,0,,6424,1,1
15,20,R,0,,6523,1,1
15,21,L,1,right,4193,1,1
15,22,R,1,left,2774,1,1
15,23,R,0,,6605,1,1
15,24,L,1,left,2180,1,1
15,25,R,1,left,2514,1,1
15,26,L,0,,5404,1,1
15,27,R,1,left,2542,1,1
15,28,R,1,right,4214,0,1
15,29,L,0,,6260,1,1
15,30,R,0,,5234,1,1
15,31,R,1,right,2122,1,1
15,32,R,0,,4462,1,1
15,33,L,1,right,2704,1,1
15,34,R,1,right,1644,1,1
15,35,R,0,,5030,1,1
15,36,L,1,right,3617,1,1
15,37,L,0,,3413,1,1
15,38,R,0,,4273,1,1
15,39,L,1,left,1944,1,1
15,40,R,0,,3456,1,1
15,41,L,0,,4909,1,1
15,42,L,0,,5604,1,1
15,43,L,1,left,1993,1,1
15,44,L,1,right,3200,1,1
15,45,R,0,,5002,1,1
15,46,R,1,right,1614,1,1
15,47,R,1,right,1931,1,1
15,48,R,0,,4064,1,1
15,49,L,1,left,1803,1,1
15,50,R,1,left,3812,1,1
15,51,L,1,right,2253,1,1
15,52,L,1,right,3672,1,1
15,53,R,0,,5084,1,1
15,54,R,0,,3484,1,1
15,55,R,1,right,1618,1,1
15,56,R,0,,4001,1,1
15,57,L,0,,3382,1,1
15,58,R,1,right,1584,1,1
15,59,L,1,left,1835,1,1
15,60,L,1,left,1579,1,1
15,61,R,0,,1643,0,1
15,62,R,0,,3585,1,1
15,63,R,1,left,3674,1,1
15,64,R,0,,3730,1,1
15,65,R,1,right,3828,0,1
15,66,R,1,left,2669,1,1
15,67,L,1,left,1804,1,1
15,68,R,0,,1683,1,1
15,69,L,0,,4584,1,1
15,70,L,0,,5004,1,1
15,71,R,0,,5203,1,1
15,72,R,0,,4264,1,1
15,73,R,1,left,3753,0,1
15,74,L,0,,5284,1,1
15,75,L,1,left,2263,1,1
15,76,L,1,left,1894,1,1
15,77,L,1,left,1843,1,1
15,78,R,1,right,1691,1,1
15,79,L,1,right,6197,0,1
15,80,R,0,,5394,1,1
15,81,L,0,,4974,1,1
15,82,L,1,left,2676,1,1
15,83,R,0,,4614,1,1
15,84,L,1,right,4253,1,1
15,85,R,1,left,4626,0,1
15,86,L,1,left,1753,1,1
15,87,R,0,,1213,1,1
15,88,L,0,,7160,1,1
15,89,L,1,right,4104,1,1
15,90,R,1,left,2874,1,1
15,91,L,1,left,1692,1,1
15,92,L,0,,5617,1,1
15,93,R,0,,7815,1,1
15,94,L,1,right,2955,1,1
15,95,R,1,left,3475,1,1
15,96,L,1,left,1689,1,1
15,97,R,1,left,3413,1,1
15,98,R,1,left,2727,1,1
15,99,L,1,left,1533,1,1
15,100,R,0,,4446,1,1
15,101,L,1,right,2559,1,1
15,102,R,1,right,3971,1,1
15,103,R,1,right,2182,1,1
15,104,L,1,right,6493,1,1
15,105,R,0,,4572,1,1
15,106,L,1,left,1773,1,1
15,107,R,1,left,2882,1,1
15,108,R,1,left,2364,1,1
15,109,R,1,left,2473,1,1
15,110,L,0,,5324,1,1
15,111,R,1,left,3163,1,1
15,112,L,0,,2864,1,1
15,113,L,1,right,4344,1,1
15,114,L,0,,7171,1,1
15,115,R,0,,4364,1,1
15,116,L,0,,1047,1,1
15,117,L,0,,6033,1,1
15,118,L,1,left,1763,1,1
15,119,L,0,,5095,1,1
15,120,L,0,,3879,1,1
15,121,L,0,,3822,1,1
15,122,R,0,,5912,1,1
15,123,R,1,right,2312,1,1
15,124,R,1,right,1656,1,1
15,125,R,1,right,1712,1,1
15,126,L,1,right,2149,1,1
15,127,R,0,,4850,1,1
15,128,R,0,,4622,1,1
15,129,L,0,,3303,1,1
15,130,R,0,,3223,1,1
15,131,L,0,,5784,1,1
15,132,R,1,right,1694,1,1
15,133,R,0,,4415,1,1
15,134,L,1,right,3354,1,1
15,135,L,0,,3613,1,1
15,136,R,0,,4686,1,1
15,137,L,0,,4154,1,1
15,138,R,0,,4630,1,1
15,139,L,0,,746,1,1
15,140,R,1,left,2404,1,1
15,141,R,0,,4842,1,1
15,142,R,1,right,1633,1,1
15,143,L,0,,4393,1,1
15,144,R,1,right,1553,1,1
15,145,R,0,,4893,1,1
15,146,R,1,left,3794,1,1
15,147,R,1,right,1743,1,1
15,148,L,0,,3963,1,1
15,149,L,0,,3462,1,1
15,150,L,0,,4099,1,1
15,151,L,0,,2604,1,1
15,152,R,0,,3344,1,1
15,153,L,0,,3998,1,1
15,154,L,1,right,1833,1,1
15,155,L,1,right,1682,1,1
15,156,L,0,,2892,1,1
15,157,L,1,left,1633,1,1
15,158,R,0,,5606,1,1
15,159,R,1,right,1492,1,1
15,160,R,0,,4576,1,1
16,1,L,0,,10067,1,1
16,2,R,1,left,11016,1,1
16,3,R,0,,13687,1,1
16,4,R,0,,11835,1,1
16,5,L,1,left,8685,1,1
16,6,L,1,right,11796,1,1
16,7,L,1,left,2075,1,1
16,8,L,0,,12036,1,1
16,9,R,0,,13275,1,1
16,10,L,0,,16558,1,1
16,11,R,0,,16386,0,1
16,12,L,0,,17247,1,1
16,13,L,0,,17925,1,1
16,14,R,0,,23437,1,1
16,15,L,1,right,26346,0,1
16,16,R,1,left,25427,0,1
16,17,R,1,right,2453,1,1
16,18,R,0,,16657,1,1
16,19,L,0,,17516,1,1
16,20,L,1,left,2564,1,1
16,21,R,1,left,14080,1,1
16,22,L,1,right,16116,1,1
16,23,L,1,left,2454,1,1
16,24,L,1,left,2224,1,1
16,25,R,0,,17497,1,1
16,26,L,1,left,2044,1,1
16,27,R,0,,14857,1,1
16,28,R,1,left,19567,0,1
16,29,R,1,left,13555,1,1
16,30,L,0,,11139,0,1
16,31,R,0,,19957,1,1
16,32,L,0,,21507,1,1
16,33,R,0,,16955,1,1
16,34,R,0,,20947,1,1
16,35,R,1,left,15667,1,1
16,36,L,0,,22797,1,1
16,37,R,0,,23508,1,1
16,38,L,1,left,2505,1,1
16,39,L,1,right,6745,1,1
16,40,L,0,,21076,1,1
16,41,R,0,,15197,1,1
16,42,L,1,right,16327,0,1
16,43,R,0,,19748,1,1
16,44,R,0,,20595,1,1
16,45,R,0,,19277,1,1
16,46,L,1,right,22077,0,1
16,47,L,0,,19713,1,1
16,48,L,1,left,3344,1,1
16,49,L,1,right,7165,1,1
16,50,R,0,,13865,1,1
16,51,R,0,,13345,1,1
16,52,R,1,right,1985,1,1
16,53,L,1,right,18107,0,1
16,54,L,1,right,14524,0,1
16,55,R,1,right,2214,1,1
16,56,R,1,left,26024,0,1
16,57,R,0,,24147,1,1
16,58,R,1,right,1925,1,1
16,59,R,1,right,1694,1,1
16,60,L,0,,24887,1,1
16,61,R,1,left,3255,1,1
16,62,R,0,,19967,1,1
16,63,R,1,left,25208,0,1
16,64,L,0,,15786,1,1
16,65,R,1,right,1904,1,1
16,66,R,0,,16646,1,1
16,67,L,0,,14826,1,1
16,68,R,0,,19467,1,1
16,69,R,0,,17737,1,1
16,70,R,1,right,1934,1,1
16,71,L,1,right,12205,1,1
16,72,L,0,,20330,1,1
16,73,R,1,left,4325,1,1
16,74,R,0,,14357,1,1
16,75,L,1,left,2384,1,1
16,76,R,0,,15792,1,1
16,77,R,1,left,18037,0,1
16,78,R,1,right,1915,1,1
16,79,R,0,,11486,1,1
16,80,L,0,,15426,1,1
16,81,R,0,,15245,1,1
16,82,L,0,,14216,1,1
16,83,L,1,right,13951,0,1
16,84,L,1,left,1874,1,1
16,85,L,1,left,1753,1,1
16,86,R,1,right,2174,1,1
16,87,L,0,,15695,1,1
16,88,L,0,,14407,1,1
16,89,L,0,,16176,1,1
16,90,R,1,right,1953,1,1
16,91,R,1,right,1676,1,1
16,92,R,0,,16827,1,1
16,93,L,0,,17867,1,1
16,94,L,0,,15666,1,1
16,95,R,1,left,6865,1,1
16,96,R,1,left,5295,1,1
16,97,L,0,,18757,1,1
16,98,L,1,left,1824,1,1
16,99,R,1,right,17447,0,1
16,100,R,1,right,2956,1,1
16,101,R,1,right,1705,1,1
16,102,R,0,,16407,1,1
16,103,R,1,left,7356,1,1
16,104,L,1,left,2434,1,1
16,105,L,1,right,7575,1,1
16,106,L,1,left,5546,1,1
16,107,L,1,left,1775,1,1
16,108,L,0,,13906,1,1
16,109,L,1,right,6007,1,1
16,110,R,1,left,11455,1,1
16,111,R,0,,21757,1,1
16,112,R,1,left,3325,1,1
16,113,R,1,right,2025,1,1
16,114,R,0,,14306,1,1
16,115,L,1,left,1854,1,1
16,116,L,0,,19916,1,1
16,117,L,1,left,1804,1,1
16,118,L,1,right,3924,1,1
16,119,R,0,,16045,1,1
16,120,R,1,right,1715,1,1
16,121,L,1,right,17297,1,1
16,122,L,0,,14075,1,1
16,123,R,1,right,1713,1,1
16,124,R,0,,13296,1,1
16,125,L,0,,17057,1,1
16,126,R,1,left,8715,1,1
16,127,R,0,,14680,1,1
16,128,R,1,left,10367,1,1
16,129,R,0,,14546,1,1
16,130,R,0,,12095,1,1
16,131,L,0,,12809,1,1
16,132,R,0,,10536,1,1
16,133,L,1,right,5074,1,1
16,134,L,1,right,5683,1,1
16,135,R,1,right,2055,1,1
16,136,R,0,,11120,1,1
16,137,R,0,,13886,1,1
16,138,R,1,left,5384,1,1
16,139,L,1,left,1834,1,1
16,140,L,0,,13385,1,1
16,141,L,1,right,3170,1,1
16,142,L,0,,13276,1,1
16,143,L,1,right,3024,1,1
16,144,L,0,,11661,1,1
16,145,L,0,,8985,1,1
16,146,L,1,left,1785,1,1
16,147,R,1,right,1765,1,1
16,148,L,0,,10372,1,1
16,149,L,0,,11576,1,1
16,150,L,1,left,1854,1,1
16,151,L,0,,13956,1,1
16,152,R,0,,12416,1,1
16,153,L,0,,12206,1,1
16,154,R,0,,15276,1,1
16,155,L,0,,16375,1,1
16,156,L,1,right,12185,1,1
16,157,L,1,right,2434,1,1
16,158,R,0,,19957,1,1
16,159,R,0,,13046,1,1
