subNum,trialNo,easySide,targPresent,targSide,RT,accuracy,distractor_range,con,distractor_min,distractor_max,block_no
1,1,,0,,6881,1,30,full,-60,-30,1
1,2,,1,right,5339,1,106,full,-98,8,1
1,3,,0,,5698,1,106,full,-98,8,1
1,4,,1,left,4808,1,106,full,-98,8,1
1,5,,1,right,1799,1,30,full,-60,-30,1
1,6,,1,right,1923,1,106,full,-98,8,1
1,7,,0,,3204,1,30,full,-60,-30,1
1,8,L,1,left,1573,1,,half,,,1
1,9,,0,,3241,1,30,full,-60,-30,1
1,10,,1,right,1568,1,30,full,-60,-30,1
1,11,,1,right,1742,1,106,full,-98,8,1
1,12,,0,,1802,1,30,full,-60,-30,1
1,13,,1,right,2303,1,106,full,-98,8,1
1,14,,1,left,1502,1,30,full,-60,-30,1
1,15,L,0,,7126,1,,half,,,1
1,16,L,1,right,1722,1,,half,,,1
1,17,L,1,left,1513,1,,half,,,1
1,18,,0,,3118,1,30,full,-60,-30,1
1,19,L,1,left,1541,1,,half,,,1
1,20,R,0,,3989,1,,half,,,1
1,21,L,1,left,1511,1,,half,,,1
1,22,,1,right,1733,1,30,full,-60,-30,1
1,23,,0,,2982,1,106,full,-98,8,1
1,24,,0,,3502,1,106,full,-98,8,1
1,25,,0,,4209,1,106,full,-98,8,1
1,26,,1,right,2321,1,106,full,-98,8,1
1,27,,0,,3391,1,106,full,-98,8,1
1,28,L,0,,4694,1,,half,,,1
1,29,,0,,2292,1,30,full,-60,-30,1
1,30,,1,right,2991,1,106,full,-98,8,1
1,31,L,1,right,2132,1,,half,,,1
1,32,R,1,right,1582,1,,half,,,1
1,33,,1,right,1603,1,30,full,-60,-30,1
1,34,R,1,left,3657,1,,half,,,1
1,35,,1,right,1743,1,30,full,-60,-30,1
1,36,,1,right,1515,1,30,full,-60,-30,1
1,37,,1,right,1482,1,30,full,-60,-30,1
1,38,,0,,4045,1,106,full,-98,8,1
1,39,,0,,4220,1,106,full,-98,8,1
1,40,R,0,,4700,1,,half,,,1
1,41,R,0,,3520,1,,half,,,1
1,42,L,0,,6057,1,,half,,,1
1,43,,1,left,1561,1,30,full,-60,-30,1
1,44,,0,,2741,1,106,full,-98,8,1
1,45,R,0,,5768,1,,half,,,1
1,46,L,1,left,1841,1,,half,,,1
1,47,,0,,2623,1,30,full,-60,-30,1
1,48,,1,left,1982,1,106,full,-98,8,1
1,49,,1,left,1613,1,30,full,-60,-30,1
1,50,,1,right,1872,1,30,full,-60,-30,1
1,51,,1,left,2232,1,106,full,-98,8,1
1,52,,0,,5288,1,106,full,-98,8,1
1,53,,0,,3810,1,106,full,-98,8,1
1,54,L,1,left,1702,1,,half,,,1
1,55,,1,right,2132,1,106,full,-98,8,1
1,56,,1,right,1523,1,30,full,-60,-30,1
1,57,,1,left,2165,1,106,full,-98,8,1
1,58,R,1,left,1632,1,,half,,,1
1,59,,1,right,1493,1,30,full,-60,-30,1
1,60,L,1,right,2771,1,,half,,,1
1,61,,1,left,1759,1,106,full,-98,8,1
1,62,,0,,3721,1,106,full,-98,8,1
1,63,R,1,left,1538,1,,half,,,1
1,64,R,1,right,1551,1,,half,,,1
1,65,,1,right,2012,0,30,full,-60,-30,1
1,66,,0,,2871,1,30,full,-60,-30,1
1,67,R,1,left,1742,1,,half,,,1
1,68,,0,,2362,1,30,full,-60,-30,1
1,69,R,0,,4111,1,,half,,,1
1,70,R,1,right,1661,1,,half,,,1
1,71,,0,,3761,1,106,full,-98,8,1
1,72,,1,right,2501,1,106,full,-98,8,1
1,73,L,0,,4520,1,,half,,,1
1,74,L,0,,5046,1,,half,,,1
1,75,,0,,2312,1,30,full,-60,-30,1
1,76,,1,left,1833,1,30,full,-60,-30,1
1,77,R,1,right,1553,1,,half,,,1
1,78,,1,right,1872,1,106,full,-98,8,1
1,79,,0,,1992,1,30,full,-60,-30,1
1,80,R,1,right,1512,1,,half,,,1
1,81,,1,left,2575,1,106,full,-98,8,1
1,82,,1,right,1471,1,30,full,-60,-30,1
1,83,,0,,1743,1,30,full,-60,-30,1
1,84,R,0,,3240,1,,half,,,1
1,85,L,1,left,1521,1,,half,,,1
1,86,,0,,2221,1,30,full,-60,-30,1
1,87,R,0,,4660,1,,half,,,1
1,88,L,0,,4160,1,,half,,,1
1,89,,0,,2202,1,30,full,-60,-30,1
1,90,,0,,7697,1,106,full,-98,8,1
1,91,R,0,,3291,1,,half,,,1
1,92,,0,,3161,1,106,full,-98,8,1
1,93,,1,left,1721,1,30,full,-60,-30,1
1,94,L,0,,2923,1,,half,,,1
1,95,,1,right,3559,0,106,full,-98,8,1
1,96,,0,,5289,1,106,full,-98,8,1
1,97,,0,,1871,1,30,full,-60,-30,1
1,98,,0,,2001,1,30,full,-60,-30,1
1,99,,0,,1712,1,30,full,-60,-30,1
1,100,,0,,2431,1,30,full,-60,-30,1
1,101,R,1,right,2140,1,,half,,,1
1,102,,0,,3780,1,106,full,-98,8,1
1,103,R,1,right,1562,1,,half,,,1
1,104,L,0,,3850,1,,half,,,1
1,105,L,0,,3602,1,,half,,,1
1,106,L,1,right,4051,0,,half,,,1
1,107,,1,right,1671,1,30,full,-60,-30,1
1,108,,1,right,1902,1,106,full,-98,8,1
1,109,,0,,2421,1,30,full,-60,-30,1
1,110,,0,,2691,1,30,full,-60,-30,1
1,111,,0,,2513,1,30,full,-60,-30,1
1,112,,0,,2338,0,106,full,-98,8,1
1,113,,0,,2132,1,30,full,-60,-30,1
1,114,L,1,right,2431,1,,half,,,1
1,115,L,1,left,1531,1,,half,,,1
1,116,R,0,,3690,1,,half,,,1
1,117,L,0,,3831,1,,half,,,1
1,118,R,1,right,1493,1,,half,,,1
1,119,R,0,,5079,1,,half,,,1
1,120,,1,left,1601,1,30,full,-60,-30,1
1,121,,0,,2671,1,30,full,-60,-30,1
1,122,,1,right,1668,1,30,full,-60,-30,1
1,123,,1,left,1473,1,30,full,-60,-30,1
1,124,,1,left,3431,0,106,full,-98,8,1
1,125,R,0,,7987,1,,half,,,1
1,126,,1,left,1532,1,30,full,-60,-30,1
1,127,,0,,1762,1,30,full,-60,-30,1
1,128,,1,left,1612,1,106,full,-98,8,1
1,129,,0,,2122,1,30,full,-60,-30,1
1,130,,0,,5249,0,106,full,-98,8,1
1,131,,1,left,1646,1,30,full,-60,-30,1
1,132,R,0,,4301,1,,half,,,1
1,133,,0,,3590,1,106,full,-98,8,1
1,134,L,1,right,3480,0,,half,,,1
1,135,,0,,3940,0,106,full,-98,8,1
1,136,R,0,,5643,1,,half,,,1
1,137,R,0,,2811,1,,half,,,1
1,138,,1,left,1613,1,30,full,-60,-30,1
1,139,R,1,left,3221,1,,half,,,1
1,140,,0,,3021,0,106,full,-98,8,1
1,141,,0,,2083,1,30,full,-60,-30,1
1,142,R,0,,5450,1,,half,,,1
1,143,R,1,right,1624,1,,half,,,1
1,144,,0,,3710,1,106,full,-98,8,1
1,145,,0,,2880,1,106,full,-98,8,1
1,146,,1,left,1512,1,30,full,-60,-30,1
1,147,,1,left,1886,1,106,full,-98,8,1
1,148,,0,,3142,1,106,full,-98,8,1
1,149,,1,right,1703,1,30,full,-60,-30,1
1,150,,0,,2152,1,30,full,-60,-30,1
1,151,,1,left,1862,1,30,full,-60,-30,1
1,152,R,1,left,1771,1,,half,,,1
1,153,,0,,3412,1,106,full,-98,8,1
1,154,,0,,2991,1,106,full,-98,8,1
1,155,L,1,right,2862,0,,half,,,1
1,156,,0,,1814,1,30,full,-60,-30,1
1,157,,1,right,3330,1,106,full,-98,8,1
1,158,,1,left,6037,0,106,full,-98,8,1
1,159,,1,left,1543,1,30,full,-60,-30,1
1,160,R,0,,5679,1,,half,,,1
1,161,L,0,,3372,1,,half,,,1
1,162,,1,left,1872,1,30,full,-60,-30,1
1,163,,1,right,1782,1,30,full,-60,-30,1
1,164,,0,,4421,1,106,full,-98,8,1
1,165,,1,left,3790,1,106,full,-98,8,1
1,166,L,1,left,1589,1,,half,,,1
1,167,,1,right,2363,1,106,full,-98,8,1
1,168,,0,,4989,1,106,full,-98,8,1
1,169,,0,,2272,1,106,full,-98,8,1
1,170,L,0,,4479,1,,half,,,1
1,171,,0,,3281,1,106,full,-98,8,1
1,172,,0,,2761,1,106,full,-98,8,1
1,173,,0,,2792,1,106,full,-98,8,1
1,174,L,0,,2509,1,,half,,,1
1,175,,1,left,1702,1,106,full,-98,8,1
1,176,,1,right,2402,1,106,full,-98,8,1
1,177,R,1,right,1592,1,,half,,,1
1,178,,1,right,1623,1,30,full,-60,-30,1
1,179,,1,left,2002,1,106,full,-98,8,1
1,180,,1,left,1923,1,106,full,-98,8,1
1,181,L,1,left,1471,1,,half,,,1
1,182,,1,right,1742,1,106,full,-98,8,1
1,183,L,0,,3031,1,,half,,,1
1,184,L,0,,2931,1,,half,,,1
1,185,L,0,,2011,1,,half,,,1
1,186,,1,left,1502,1,30,full,-60,-30,1
1,187,,0,,2772,1,106,full,-98,8,1
1,188,L,1,left,1473,1,,half,,,1
1,189,,1,right,3041,1,106,full,-98,8,1
1,190,,0,,4849,1,106,full,-98,8,1
1,191,L,0,,1911,1,,half,,,1
1,192,,0,,1871,1,30,full,-60,-30,1
1,193,,1,left,1942,1,106,full,-98,8,1
1,194,L,0,,3251,1,,half,,,1
1,195,,1,left,2840,1,106,full,-98,8,1
1,196,,0,,4240,1,106,full,-98,8,1
1,197,,1,right,1813,1,106,full,-98,8,1
1,198,,1,left,2152,1,106,full,-98,8,1
1,199,,0,,2083,1,30,full,-60,-30,1
1,200,L,0,,1652,0,,half,,,1
1,201,,0,,1655,1,30,full,-60,-30,1
1,202,,0,,1772,1,30,full,-60,-30,1
1,203,,1,left,1518,1,30,full,-60,-30,1
1,204,L,1,left,1473,1,,half,,,1
1,205,,1,left,1522,1,30,full,-60,-30,1
1,206,,0,,3021,1,106,full,-98,8,1
1,207,,0,,1794,1,30,full,-60,-30,1
1,208,R,0,,2987,1,,half,,,1
1,209,,1,left,1561,1,30,full,-60,-30,1
1,210,,1,left,1422,1,30,full,-60,-30,1
1,211,,0,,1602,1,30,full,-60,-30,1
1,212,,0,,1983,0,106,full,-98,8,1
1,213,,1,right,1573,1,30,full,-60,-30,1
1,214,,1,right,1832,1,106,full,-98,8,1
1,215,,0,,1633,1,30,full,-60,-30,1
1,216,,1,right,1793,1,30,full,-60,-30,1
1,217,R,0,,1723,1,,half,,,1
1,218,L,1,left,1503,1,,half,,,1
1,219,,0,,1792,1,30,full,-60,-30,1
1,220,L,1,left,1512,1,,half,,,1
1,221,,1,right,1602,1,106,full,-98,8,1
1,222,,0,,1853,1,106,full,-98,8,1
1,223,,1,right,1693,1,106,full,-98,8,1
1,224,,0,,2202,0,106,full,-98,8,1
1,225,L,1,right,1482,1,,half,,,1
1,226,,0,,1672,1,30,full,-60,-30,1
1,227,,1,left,2202,0,106,full,-98,8,1
1,228,,1,right,1462,1,30,full,-60,-30,1
1,229,L,1,right,1822,0,,half,,,1
1,230,,1,left,2182,1,106,full,-98,8,1
1,231,R,0,,1762,1,,half,,,1
1,232,,0,,5529,1,106,full,-98,8,1
1,233,,1,left,2791,1,106,full,-98,8,1
1,234,,1,left,1472,1,30,full,-60,-30,1
1,235,L,0,,2222,1,,half,,,1
1,236,,0,,1791,1,30,full,-60,-30,1
1,237,R,1,right,1709,1,,half,,,1
1,238,,0,,1742,1,30,full,-60,-30,1
1,239,,0,,1783,1,30,full,-60,-30,1
1,240,L,0,,3451,1,,half,,,1
2,1,,1,left,10471,1,30,full,-60,-30,1
2,2,,0,,5259,1,30,full,-60,-30,1
2,3,L,1,right,7346,1,,half,,,1
2,4,,1,right,2261,1,30,full,-60,-30,1
2,5,L,1,right,10040,1,,half,,,1
2,6,,1,left,2640,1,30,full,-60,-30,1
2,7,,0,,19156,1,106,full,-98,8,1
2,8,,1,left,10535,1,106,full,-98,8,1
2,9,,1,right,7605,1,106,full,-98,8,1
2,10,R,0,,15698,1,,half,,,1
2,11,,1,right,17143,0,106,full,-98,8,1
2,12,,1,right,2910,1,106,full,-98,8,1
2,13,L,0,,10124,1,,half,,,1
2,14,,0,,6486,1,30,full,-60,-30,1
2,15,,1,right,8560,1,106,full,-98,8,1
2,16,,1,right,2370,1,30,full,-60,-30,1
2,17,,1,left,4570,1,106,full,-98,8,1
2,18,,0,,5068,1,30,full,-60,-30,1
2,19,,0,,4658,1,30,full,-60,-30,1
2,20,,1,right,2135,1,30,full,-60,-30,1
2,21,,0,,6128,1,30,full,-60,-30,1
2,22,,1,left,2179,1,30,full,-60,-30,1
2,23,,0,,5947,1,30,full,-60,-30,1
2,24,,1,right,2011,1,30,full,-60,-30,1
2,25,,1,left,13891,1,106,full,-98,8,1
2,26,,0,,19666,1,106,full,-98,8,1
2,27,,1,left,2151,1,30,full,-60,-30,1
2,28,R,0,,10884,1,,half,,,1
2,29,,0,,6770,1,30,full,-60,-30,1
2,30,,0,,5704,1,30,full,-60,-30,1
2,31,L,1,left,2271,1,,half,,,1
2,32,R,0,,15849,1,,half,,,1
2,33,,1,right,6147,1,106,full,-98,8,1
2,34,,0,,5798,1,30,full,-60,-30,1
2,35,,1,left,17244,0,106,full,-98,8,1
2,36,L,1,right,10983,1,,half,,,1
2,37,L,1,right,14731,1,,half,,,1
2,38,L,1,left,2226,1,,half,,,1
2,39,L,0,,9549,0,,half,,,1
2,40,,0,,8156,1,30,full,-60,-30,1
2,41,,0,,8625,1,30,full,-60,-30,1
2,42,L,0,,24756,1,,half,,,1
2,43,R,1,right,5677,1,,half,,,1
2,44,L,1,left,2121,1,,half,,,1
2,45,L,0,,15470,1,,half,,,1
2,46,L,0,,16409,1,,half,,,1
2,47,,1,right,1972,1,30,full,-60,-30,1
2,48,,1,left,1785,1,30,full,-60,-30,1
2,49,L,1,left,2021,1,,half,,,1
2,50,,1,left,1711,1,30,full,-60,-30,1
2,51,R,1,right,1882,1,,half,,,1
2,52,R,1,right,1860,1,,half,,,1
2,53,R,0,,18506,1,,half,,,1
2,54,,1,right,1941,1,30,full,-60,-30,1
2,55,,0,,10075,1,30,full,-60,-30,1
2,56,,0,,18986,1,106,full,-98,8,1
2,57,,0,,16685,1,106,full,-98,8,1
2,58,,0,,3200,1,30,full,-60,-30,1
2,59,,1,right,2210,0,30,full,-60,-30,1
2,60,,0,,3499,1,30,full,-60,-30,1
2,61,,0,,19070,0,106,full,-98,8,1
2,62,,1,left,18473,0,106,full,-98,8,1
2,63,,0,,10622,0,106,full,-98,8,1
2,64,,1,right,32334,0,106,full,-98,8,1
2,65,,1,right,1970,1,30,full,-60,-30,1
2,66,,1,left,25921,1,106,full,-98,8,1
2,67,,0,,40706,1,106,full,-98,8,1
2,68,,0,,27291,1,106,full,-98,8,1
2,69,L,0,,5864,0,,half,,,1
2,70,L,0,,22863,0,,half,,,1
2,71,,1,left,5706,1,106,full,-98,8,1
2,72,,1,right,2042,1,30,full,-60,-30,1
2,73,,1,right,3280,1,106,full,-98,8,1
2,74,L,1,left,2047,1,,half,,,1
2,75,,0,,23164,1,106,full,-98,8,1
2,76,,0,,14220,1,106,full,-98,8,1
2,77,,0,,4939,1,30,full,-60,-30,1
2,78,,1,left,17676,0,106,full,-98,8,1
2,79,,0,,2928,1,30,full,-60,-30,1
2,80,,1,left,9694,1,106,full,-98,8,1
2,81,,1,left,2061,1,30,full,-60,-30,1
2,82,L,1,left,1962,1,,half,,,1
2,83,,0,,19767,1,106,full,-98,8,1
2,84,R,1,left,4329,1,,half,,,1
2,85,L,0,,14620,1,,half,,,1
2,86,,0,,3429,1,30,full,-60,-30,1
2,87,,0,,20369,1,106,full,-98,8,1
2,88,,0,,3289,1,30,full,-60,-30,1
2,89,,0,,4010,1,30,full,-60,-30,1
2,90,R,1,right,2000,1,,half,,,1
2,91,,1,left,2191,1,30,full,-60,-30,1
2,92,,0,,3019,1,30,full,-60,-30,1
2,93,,1,right,1920,1,30,full,-60,-30,1
2,94,L,0,,11053,1,,half,,,1
2,95,R,1,left,6928,1,,half,,,1
2,96,,1,left,1991,1,30,full,-60,-30,1
2,97,,1,left,12202,0,106,full,-98,8,1
2,98,,1,right,26600,0,106,full,-98,8,1
2,99,R,1,right,2360,1,,half,,,1
2,100,R,1,right,1817,1,,half,,,1
2,101,,1,left,2367,1,30,full,-60,-30,1
2,102,L,0,,17488,0,,half,,,1
2,103,,0,,3159,0,106,full,-98,8,1
2,104,,0,,3310,1,30,full,-60,-30,1
2,105,R,0,,14727,0,,half,,,1
2,106,R,1,left,15121,1,,half,,,1
2,107,R,0,,25641,1,,half,,,1
2,108,,0,,10822,1,106,full,-98,8,1
2,109,L,1,left,2581,1,,half,,,1
2,110,R,1,left,17408,0,,half,,,1
2,111,R,1,right,1879,1,,half,,,1
2,112,L,1,left,1935,1,,half,,,1
2,113,,1,right,2104,1,30,full,-60,-30,1
2,114,,0,,29727,1,106,full,-98,8,1
2,115,,1,left,2062,1,30,full,-60,-30,1
2,116,,0,,11563,1,106,full,-98,8,1
2,117,,1,right,4400,1,106,full,-98,8,1
2,118,L,1,left,2101,1,,half,,,1
2,119,,1,left,1891,1,30,full,-60,-30,1
2,120,,0,,7726,0,106,full,-98,8,1
2,121,,0,,24792,1,106,full,-98,8,1
2,122,,1,left,15001,0,106,full,-98,8,1
2,123,,0,,3382,1,30,full,-60,-30,1
2,124,,0,,2851,1,30,full,-60,-30,1
2,125,L,0,,18916,1,,half,,,1
2,126,,0,,2071,1,30,full,-60,-30,1
2,127,,0,,10084,0,106,full,-98,8,1
2,128,,1,right,2034,1,30,full,-60,-30,1
2,129,,1,right,1902,1,30,full,-60,-30,1
2,130,,0,,2251,1,30,full,-60,-30,1
2,131,,0,,15219,1,106,full,-98,8,1
2,132,,0,,2370,1,30,full,-60,-30,1
2,133,,0,,13060,1,106,full,-98,8,1
2,134,L,0,,13232,1,,half,,,1
2,135,,0,,2012,1,30,full,-60,-30,1
2,136,,1,right,2701,1,106,full,-98,8,1
2,137,L,1,left,2075,1,,half,,,1
2,138,R,0,,20235,1,,half,,,1
2,139,,1,left,1877,1,30,full,-60,-30,1
2,140,R,0,,16318,1,,half,,,1
2,141,,0,,20430,1,106,full,-98,8,1
2,142,L,0,,12131,1,,half,,,1
2,143,,0,,2121,1,30,full,-60,-30,1
2,144,L,0,,14890,1,,half,,,1
2,145,L,0,,17137,1,,half,,,1
2,146,R,1,right,1932,1,,half,,,1
2,147,,0,,9726,1,106,full,-98,8,1
2,148,R,1,right,1981,1,,half,,,1
2,149,,0,,9684,1,106,full,-98,8,1
2,150,,1,left,15920,0,106,full,-98,8,1
2,151,,1,right,1932,1,30,full,-60,-30,1
2,152,,0,,2587,1,30,full,-60,-30,1
2,153,R,0,,10363,1,,half,,,1
2,154,R,0,,12502,1,,half,,,1
2,155,R,0,,14042,1,,half,,,1
2,156,,1,left,9175,0,106,full,-98,8,1
2,157,,1,left,1900,1,30,full,-60,-30,1
2,158,L,0,,11432,1,,half,,,1
2,159,,0,,17049,1,106,full,-98,8,1
2,160,,0,,12415,0,106,full,-98,8,1
2,161,R,1,left,8616,0,,half,,,1
2,162,,1,left,12682,1,106,full,-98,8,1
2,163,L,1,left,1982,1,,half,,,1
2,164,,0,,16798,1,106,full,-98,8,1
2,165,,0,,17076,1,106,full,-98,8,1
2,166,,1,right,12233,0,106,full,-98,8,1
2,167,,1,left,11592,1,106,full,-98,8,1
2,168,,1,left,20075,1,106,full,-98,8,1
2,169,,1,right,11043,0,106,full,-98,8,1
2,170,,1,right,3591,1,106,full,-98,8,1
2,171,R,0,,14652,1,,half,,,1
2,172,,0,,2012,1,30,full,-60,-30,1
2,173,,1,left,1920,1,30,full,-60,-30,1
2,174,,0,,17886,1,106,full,-98,8,1
2,175,,0,,2002,1,30,full,-60,-30,1
2,176,,1,right,12203,1,106,full,-98,8,1
2,177,,1,right,4402,1,106,full,-98,8,1
2,178,,1,left,1991,1,30,full,-60,-30,1
2,179,,1,left,1779,1,30,full,-60,-30,1
2,180,L,1,right,12642,0,,half,,,1
2,181,,1,left,1861,1,30,full,-60,-30,1
2,182,,0,,2161,1,30,full,-60,-30,1
2,183,R,0,,11832,1,,half,,,1
2,184,,0,,2002,1,30,full,-60,-30,1
2,185,,0,,2291,1,30,full,-60,-30,1
2,186,,1,right,18316,0,106,full,-98,8,1
2,187,,0,,12934,1,106,full,-98,8,1
2,188,,1,right,1880,1,30,full,-60,-30,1
2,189,,1,left,18177,0,106,full,-98,8,1
2,190,L,1,right,8732,0,,half,,,1
2,191,,1,right,1920,1,30,full,-60,-30,1
2,192,L,1,right,5208,1,,half,,,1
2,193,,0,,6926,0,106,full,-98,8,1
2,194,,0,,2560,1,30,full,-60,-30,1
2,195,,0,,19248,1,106,full,-98,8,1
2,196,,1,left,7288,1,106,full,-98,8,1
2,197,,1,left,1971,1,30,full,-60,-30,1
2,198,L,0,,6797,1,,half,,,1
2,199,,0,,1982,1,30,full,-60,-30,1
2,200,,1,right,1800,1,30,full,-60,-30,1
2,201,,1,right,1960,1,106,full,-98,8,1
2,202,L,1,left,1761,1,,half,,,1
2,203,L,0,,13271,0,,half,,,1
2,204,,1,right,2857,1,106,full,-98,8,1
2,205,R,0,,10485,1,,half,,,1
2,206,,1,left,11888,0,106,full,-98,8,1
2,207,,1,right,1812,1,30,full,-60,-30,1
2,208,,0,,19752,1,106,full,-98,8,1
2,209,R,1,right,1925,1,,half,,,1
2,210,,0,,18303,1,106,full,-98,8,1
2,211,R,0,,15129,1,,half,,,1
2,212,R,0,,13001,1,,half,,,1
2,213,L,1,right,8796,1,,half,,,1
2,214,R,0,,14015,1,,half,,,1
2,215,L,1,left,1795,1,,half,,,1
2,216,,0,,24459,1,106,full,-98,8,1
2,217,R,0,,17989,1,,half,,,1
2,218,L,0,,11983,1,,half,,,1
2,219,,0,,30178,1,106,full,-98,8,1
2,220,,1,left,1847,1,30,full,-60,-30,1
2,221,,0,,12172,1,106,full,-98,8,1
2,222,R,1,right,1891,1,,half,,,1
2,223,R,0,,12343,1,,half,,,1
2,224,L,0,,11803,1,,half,,,1
2,225,,0,,2122,1,30,full,-60,-30,1
2,226,L,1,left,1762,1,,half,,,1
2,227,,1,right,20036,0,106,full,-98,8,1
2,228,,1,left,16970,0,106,full,-98,8,1
2,229,L,0,,8859,1,,half,,,1
2,230,,1,right,1872,1,30,full,-60,-30,1
2,231,,0,,2181,1,30,full,-60,-30,1
2,232,,0,,1980,1,30,full,-60,-30,1
2,233,R,1,left,7516,1,,half,,,1
2,234,,0,,16808,1,106,full,-98,8,1
2,235,,0,,17978,1,106,full,-98,8,1
2,236,,1,right,1731,1,30,full,-60,-30,1
2,237,,1,right,10025,0,106,full,-98,8,1
2,238,,0,,1841,1,30,full,-60,-30,1
2,239,,0,,13392,1,106,full,-98,8,1
2,240,L,1,right,11094,0,,half,,,1
3,1,R,0,,8272,1,,half,,,1
3,2,,1,right,2470,1,106,full,-98,8,1
3,3,L,1,left,4478,1,,half,,,1
3,4,,0,,3131,1,30,full,-60,-30,1
3,5,L,1,right,4736,0,,half,,,1
3,6,,0,,8925,1,106,full,-98,8,1
3,7,,1,right,2300,1,30,full,-60,-30,1
3,8,,0,,3060,1,30,full,-60,-30,1
3,9,R,1,left,2281,1,,half,,,1
3,10,L,0,,8995,1,,half,,,1
3,11,,1,left,2245,1,106,full,-98,8,1
3,12,L,1,right,2071,1,,half,,,1
3,13,,1,right,2601,1,106,full,-98,8,1
3,14,L,1,right,2101,1,,half,,,1
3,15,R,1,left,2711,1,,half,,,1
3,16,,1,left,2880,1,106,full,-98,8,1
3,17,,1,right,5727,1,106,full,-98,8,1
3,18,L,1,left,3171,1,,half,,,1
3,19,,0,,7208,1,106,full,-98,8,1
3,20,,1,left,1992,1,106,full,-98,8,1
3,21,L,1,left,1721,1,,half,,,1
3,22,,1,right,1632,1,30,full,-60,-30,1
3,23,R,1,right,1721,1,,half,,,1
3,24,,0,,2560,1,30,full,-60,-30,1
3,25,R,0,,5068,1,,half,,,1
3,26,,1,right,1690,1,30,full,-60,-30,1
3,27,,1,right,1842,1,106,full,-98,8,1
3,28,,1,left,6047,0,106,full,-98,8,1
3,29,,1,left,1691,1,30,full,-60,-30,1
3,30,R,1,left,7156,0,,half,,,1
3,31,L,0,,9185,1,,half,,,1
3,32,L,0,,6766,1,,half,,,1
3,33,,1,left,8426,0,106,full,-98,8,1
3,34,,1,left,1780,1,30,full,-60,-30,1
3,35,L,0,,8766,1,,half,,,1
3,36,,1,right,8366,1,106,full,-98,8,1
3,37,,1,left,1687,1,30,full,-60,-30,1
3,38,L,0,,7358,1,,half,,,1
3,39,L,0,,8697,1,,half,,,1
3,40,,1,left,3793,1,106,full,-98,8,1
3,41,L,1,left,1621,1,,half,,,1
3,42,,1,right,1682,1,30,full,-60,-30,1
3,43,,0,,2272,1,30,full,-60,-30,1
3,44,,0,,2011,1,30,full,-60,-30,1
3,45,L,1,right,1943,1,,half,,,1
3,46,,0,,7367,1,106,full,-98,8,1
3,47,,1,left,1573,1,30,full,-60,-30,1
3,48,,1,left,5899,0,106,full,-98,8,1
3,49,R,1,right,1681,1,,half,,,1
3,50,L,1,left,1552,1,,half,,,1
3,51,R,1,left,5108,1,,half,,,1
3,52,,0,,1875,1,30,full,-60,-30,1
3,53,L,0,,7816,1,,half,,,1
3,54,R,1,right,1645,1,,half,,,1
3,55,,0,,6598,1,106,full,-98,8,1
3,56,,0,,7256,1,106,full,-98,8,1
3,57,L,1,right,1962,1,,half,,,1
3,58,,0,,5588,1,106,full,-98,8,1
3,59,L,0,,6998,1,,half,,,1
3,60,L,0,,7686,1,,half,,,1
3,61,,0,,7150,1,106,full,-98,8,1
3,62,R,1,right,1641,1,,half,,,1
3,63,R,0,,7297,1,,half,,,1
3,64,,1,right,1543,1,30,full,-60,-30,1
3,65,,0,,7237,1,106,full,-98,8,1
3,66,L,0,,5438,1,,half,,,1
3,67,,1,left,1650,1,30,full,-60,-30,1
3,68,,0,,1931,1,30,full,-60,-30,1
3,69,,1,right,1561,1,30,full,-60,-30,1
3,70,,0,,2111,1,30,full,-60,-30,1
3,71,,0,,13431,1,106,full,-98,8,1
3,72,,1,right,11253,0,106,full,-98,8,1
3,73,L,1,right,9934,0,,half,,,1
3,74,L,1,right,4009,1,,half,,,1
3,75,L,0,,8715,1,,half,,,1
3,76,,0,,7556,1,106,full,-98,8,1
3,77,,1,right,1832,1,106,full,-98,8,1
3,78,R,0,,7656,1,,half,,,1
3,79,,0,,7377,1,106,full,-98,8,1
3,80,,1,right,5318,0,106,full,-98,8,1
3,81,R,1,right,1601,1,,half,,,1
3,82,,1,left,1631,1,30,full,-60,-30,1
3,83,,1,left,1871,1,106,full,-98,8,1
3,84,R,1,right,1505,1,,half,,,1
3,85,,0,,1903,1,30,full,-60,-30,1
3,86,,0,,2571,1,30,full,-60,-30,1
3,87,,0,,10915,1,106,full,-98,8,1
3,88,,1,left,2451,1,106,full,-98,8,1
3,89,,0,,1791,1,30,full,-60,-30,1
3,90,L,1,left,1713,1,,half,,,1
3,91,,0,,8297,1,106,full,-98,8,1
3,92,,0,,8356,1,106,full,-98,8,1
3,93,,0,,1842,1,30,full,-60,-30,1
3,94,,1,left,3310,1,106,full,-98,8,1
3,95,,1,right,1921,1,106,full,-98,8,1
3,96,,0,,5388,1,106,full,-98,8,1
3,97,,0,,5988,1,106,full,-98,8,1
3,98,,1,left,5738,0,106,full,-98,8,1
3,99,R,0,,6088,1,,half,,,1
3,100,R,0,,5819,1,,half,,,1
3,101,,0,,1892,1,30,full,-60,-30,1
3,102,,1,right,1781,1,106,full,-98,8,1
3,103,R,1,left,4090,1,,half,,,1
3,104,,0,,1740,1,30,full,-60,-30,1
3,105,,1,right,1821,1,106,full,-98,8,1
3,106,R,1,right,1542,1,,half,,,1
3,107,,0,,2042,1,30,full,-60,-30,1
3,108,,0,,1721,1,30,full,-60,-30,1
3,109,,0,,6268,1,106,full,-98,8,1
3,110,,1,right,1590,1,30,full,-60,-30,1
3,111,L,0,,7748,1,,half,,,1
3,112,,0,,6487,1,106,full,-98,8,1
3,113,,0,,6800,1,106,full,-98,8,1
3,114,,0,,2091,1,30,full,-60,-30,1
3,115,,1,right,10206,0,106,full,-98,8,1
3,116,,1,right,11548,1,106,full,-98,8,1
3,117,,1,left,1763,1,30,full,-60,-30,1
3,118,,0,,1781,1,30,full,-60,-30,1
3,119,,1,right,1502,1,30,full,-60,-30,1
3,120,,1,right,1643,1,106,full,-98,8,1
3,121,,1,left,1532,1,30,full,-60,-30,1
3,122,L,0,,8666,1,,half,,,1
3,123,R,0,,6230,1,,half,,,1
3,124,,1,right,1682,1,30,full,-60,-30,1
3,125,,1,left,2051,1,106,full,-98,8,1
3,126,L,1,left,1581,1,,half,,,1
3,127,,1,right,1911,1,106,full,-98,8,1
3,128,,0,,1832,1,30,full,-60,-30,1
3,129,,1,left,1533,1,30,full,-60,-30,1
3,130,R,0,,5228,1,,half,,,1
3,131,,1,left,1842,1,106,full,-98,8,1
3,132,,1,right,1542,1,30,full,-60,-30,1
3,133,,1,left,1532,1,30,full,-60,-30,1
3,134,L,0,,7237,1,,half,,,1
3,135,,0,,2172,1,30,full,-60,-30,1
3,136,,0,,6428,1,106,full,-98,8,1
3,137,,0,,1671,1,30,full,-60,-30,1
3,138,,0,,1811,1,30,full,-60,-30,1
3,139,,0,,7134,1,106,full,-98,8,1
3,140,,0,,1652,1,30,full,-60,-30,1
3,141,,1,left,1609,1,30,full,-60,-30,1
3,142,L,1,left,1553,1,,half,,,1
3,143,,1,right,1782,1,106,full,-98,8,1
3,144,,0,,1791,1,30,full,-60,-30,1
3,145,,0,,5748,1,106,full,-98,8,1
3,146,,1,left,1502,1,30,full,-60,-30,1
3,147,,0,,6939,1,106,full,-98,8,1
3,148,R,0,,4830,1,,half,,,1
3,149,,1,right,1565,1,30,full,-60,-30,1
3,150,,1,right,1513,1,30,full,-60,-30,1
3,151,R,0,,5682,1,,half,,,1
3,152,L,0,,6218,1,,half,,,1
3,153,L,1,right,3010,1,,half,,,1
3,154,,0,,8455,1,106,full,-98,8,1
3,155,R,0,,5898,1,,half,,,1
3,156,,1,left,1663,1,30,full,-60,-30,1
3,157,,0,,1905,1,30,full,-60,-30,1
3,158,,1,right,1533,1,30,full,-60,-30,1
3,159,,1,left,1503,1,30,full,-60,-30,1
3,160,L,0,,5199,1,,half,,,1
3,161,,0,,5529,1,106,full,-98,8,1
3,162,,1,left,2012,1,106,full,-98,8,1
3,163,R,1,right,1545,1,,half,,,1
3,164,,0,,5719,1,106,full,-98,8,1
3,165,,1,left,4480,1,106,full,-98,8,1
3,166,,1,right,1532,1,30,full,-60,-30,1
3,167,R,0,,5229,1,,half,,,1
3,168,,0,,1842,1,30,full,-60,-30,1
3,169,,1,left,1762,1,106,full,-98,8,1
3,170,,0,,5728,1,106,full,-98,8,1
3,171,,0,,5869,1,106,full,-98,8,1
3,172,,0,,1769,1,30,full,-60,-30,1
3,173,,0,,4959,1,106,full,-98,8,1
3,174,L,0,,5362,1,,half,,,1
3,175,,1,right,1649,1,106,full,-98,8,1
3,176,R,0,,4702,1,,half,,,1
3,177,,0,,5837,1,106,full,-98,8,1
3,178,,0,,1683,1,30,full,-60,-30,1
3,179,,1,right,1632,1,30,full,-60,-30,1
3,180,L,1,left,1543,1,,half,,,1
3,181,L,1,left,1531,1,,half,,,1
3,182,,0,,2221,1,30,full,-60,-30,1
3,183,R,0,,5595,1,,half,,,1
3,184,R,1,right,1550,1,,half,,,1
3,185,,0,,4056,1,106,full,-98,8,1
3,186,L,1,right,1873,1,,half,,,1
3,187,L,1,left,1572,1,,half,,,1
3,188,,1,left,1473,1,30,full,-60,-30,1
3,189,,1,right,1474,1,30,full,-60,-30,1
3,190,,1,right,1529,1,30,full,-60,-30,1
3,191,,0,,5718,1,106,full,-98,8,1
3,192,,0,,2051,1,30,full,-60,-30,1
3,193,,0,,1822,1,30,full,-60,-30,1
3,194,,1,left,1731,1,106,full,-98,8,1
3,195,,0,,5379,1,106,full,-98,8,1
3,196,,1,left,1562,1,30,full,-60,-30,1
3,197,,1,left,5709,0,106,full,-98,8,1
3,198,,1,left,7023,0,106,full,-98,8,1
3,199,,0,,1802,1,30,full,-60,-30,1
3,200,,0,,11604,1,106,full,-98,8,1
3,201,L,1,left,1631,1,,half,,,1
3,202,L,0,,6548,1,,half,,,1
3,203,,0,,1712,1,30,full,-60,-30,1
3,204,,0,,1672,1,30,full,-60,-30,1
3,205,,1,right,3817,1,106,full,-98,8,1
3,206,L,0,,4999,1,,half,,,1
3,207,,0,,9487,1,106,full,-98,8,1
3,208,R,1,right,1722,1,,half,,,1
3,209,,1,right,1590,1,30,full,-60,-30,1
3,210,,1,right,2013,1,106,full,-98,8,1
3,211,,1,right,1464,1,30,full,-60,-30,1
3,212,,0,,4971,1,106,full,-98,8,1
3,213,,0,,1762,1,30,full,-60,-30,1
3,214,,0,,1599,1,30,full,-60,-30,1
3,215,R,1,left,4550,1,,half,,,1
3,216,,1,right,10012,0,106,full,-98,8,1
3,217,R,0,,8016,1,,half,,,1
3,218,R,0,,6401,1,,half,,,1
3,219,,1,left,2189,1,106,full,-98,8,1
3,220,L,1,left,1649,1,,half,,,1
3,221,,0,,1722,1,30,full,-60,-30,1
3,222,,1,left,1542,0,30,full,-60,-30,1
3,223,L,0,,8885,1,,half,,,1
3,224,R,0,,6405,1,,half,,,1
3,225,L,1,left,1621,1,,half,,,1
3,226,,0,,1548,1,30,full,-60,-30,1
3,227,,0,,5886,1,106,full,-98,8,1
3,228,,1,left,1562,1,30,full,-60,-30,1
3,229,,1,right,1501,1,30,full,-60,-30,1
3,230,,1,left,1482,1,30,full,-60,-30,1
3,231,R,0,,8415,1,,half,,,1
3,232,R,1,right,1597,1,,half,,,1
3,233,,0,,8427,1,106,full,-98,8,1
3,234,,0,,1724,1,30,full,-60,-30,1
3,235,,0,,1702,1,30,full,-60,-30,1
3,236,L,0,,6467,1,,half,,,1
3,237,,0,,12043,1,106,full,-98,8,1
3,238,,1,left,1633,1,30,full,-60,-30,1
3,239,R,0,,6977,1,,half,,,1
3,240,,0,,8726,1,106,full,-98,8,1
4,1,,1,left,8305,1,106,full,-98,8,1
4,2,,1,left,4548,1,30,full,-60,-30,1
4,3,,0,,5567,1,30,full,-60,-30,1
4,4,,0,,10187,1,106,full,-98,8,1
4,5,,1,left,8196,0,106,full,-98,8,1
4,6,,1,left,3590,1,30,full,-60,-30,1
4,7,R,1,right,5348,0,,half,,,1
4,8,L,0,,8555,1,,half,,,1
4,9,R,1,right,2402,1,,half,,,1
4,10,,1,right,2430,1,30,full,-60,-30,1
4,11,,0,,8676,1,106,full,-98,8,1
4,12,,0,,7156,1,30,full,-60,-30,1
4,13,,0,,7119,1,106,full,-98,8,1
4,14,,0,,7231,1,106,full,-98,8,1
4,15,R,0,,4782,1,,half,,,1
4,16,,1,right,1951,1,30,full,-60,-30,1
4,17,,1,right,1851,1,30,full,-60,-30,1
4,18,,1,left,2231,1,30,full,-60,-30,1
4,19,L,0,,5930,1,,half,,,1
4,20,,1,right,4750,0,106,full,-98,8,1
4,21,R,0,,5829,1,,half,,,1
4,22,R,1,right,2181,1,,half,,,1
4,23,,0,,9476,1,106,full,-98,8,1
4,24,,0,,3541,1,30,full,-60,-30,1
4,25,,1,right,2572,1,30,full,-60,-30,1
4,26,,1,right,1862,1,30,full,-60,-30,1
4,27,,0,,3608,1,106,full,-98,8,1
4,28,,1,right,3186,1,106,full,-98,8,1
4,29,R,0,,6675,1,,half,,,1
4,30,L,0,,5499,1,,half,,,1
4,31,,0,,3291,1,30,full,-60,-30,1
4,32,,0,,2752,1,30,full,-60,-30,1
4,33,R,1,right,2022,1,,half,,,1
4,34,L,1,right,5679,0,,half,,,1
4,35,,1,left,1804,0,30,full,-60,-30,1
4,36,,1,left,1872,1,30,full,-60,-30,1
4,37,,0,,2183,1,30,full,-60,-30,1
4,38,,0,,3700,1,30,full,-60,-30,1
4,39,,1,left,4309,0,106,full,-98,8,1
4,40,,0,,4160,1,30,full,-60,-30,1
4,41,,1,right,2700,1,30,full,-60,-30,1
4,42,,0,,4420,1,30,full,-60,-30,1
4,43,,1,left,2968,1,30,full,-60,-30,1
4,44,L,1,left,1763,1,,half,,,1
4,45,,1,right,1856,1,30,full,-60,-30,1
4,46,,1,right,1762,1,30,full,-60,-30,1
4,47,R,0,,3919,1,,half,,,1
4,48,,0,,5258,1,106,full,-98,8,1
4,49,L,1,right,4389,0,,half,,,1
4,50,L,1,left,1976,1,,half,,,1
4,51,L,0,,5389,1,,half,,,1
4,52,,0,,4365,1,106,full,-98,8,1
4,53,,0,,3769,1,106,full,-98,8,1
4,54,,0,,2031,1,106,full,-98,8,1
4,55,R,0,,3410,1,,half,,,1
4,56,,1,right,1831,1,30,full,-60,-30,1
4,57,,1,right,4955,0,106,full,-98,8,1
4,58,,0,,2678,1,30,full,-60,-30,1
4,59,,0,,3870,1,30,full,-60,-30,1
4,60,,0,,4595,1,106,full,-98,8,1
4,61,,0,,5700,1,106,full,-98,8,1
4,62,,1,right,1802,1,30,full,-60,-30,1
4,63,,1,left,1851,1,30,full,-60,-30,1
4,64,R,0,,5040,1,,half,,,1
4,65,,0,,5369,1,30,full,-60,-30,1
4,66,,1,right,4239,1,106,full,-98,8,1
4,67,R,0,,6537,1,,half,,,1
4,68,,0,,4763,1,106,full,-98,8,1
4,69,,1,right,4050,0,106,full,-98,8,1
4,70,,0,,5998,1,106,full,-98,8,1
4,71,L,1,left,2394,1,,half,,,1
4,72,,0,,10184,1,30,full,-60,-30,1
4,73,,1,right,2077,1,106,full,-98,8,1
4,74,,1,left,1647,1,30,full,-60,-30,1
4,75,,1,left,1642,1,30,full,-60,-30,1
4,76,L,0,,4849,1,,half,,,1
4,77,,0,,2961,1,30,full,-60,-30,1
4,78,,1,right,2031,1,106,full,-98,8,1
4,79,L,1,left,1595,1,,half,,,1
4,80,R,0,,2821,1,,half,,,1
4,81,,0,,3120,1,106,full,-98,8,1
4,82,L,0,,3929,1,,half,,,1
4,83,L,1,left,1733,1,,half,,,1
4,84,R,1,left,2381,0,,half,,,1
4,85,,1,right,4109,1,106,full,-98,8,1
4,86,,1,right,4672,0,106,full,-98,8,1
4,87,,0,,5449,1,106,full,-98,8,1
4,88,,1,right,110,0,30,full,-60,-30,1
4,89,R,0,,5532,1,,half,,,1
4,90,L,1,left,1676,1,,half,,,1
4,91,,1,left,4219,1,106,full,-98,8,1
4,92,,1,right,1693,1,30,full,-60,-30,1
4,93,L,0,,3282,1,,half,,,1
4,94,,1,right,3270,1,106,full,-98,8,1
4,95,,1,right,2691,1,106,full,-98,8,1
4,96,,1,left,3001,1,106,full,-98,8,1
4,97,L,1,right,2931,0,,half,,,1
4,98,L,1,left,1682,1,,half,,,1
4,99,L,0,,4000,1,,half,,,1
4,100,,0,,4669,1,106,full,-98,8,1
4,101,,0,,3221,1,30,full,-60,-30,1
4,102,,0,,4110,1,30,full,-60,-30,1
4,103,,1,right,1698,1,30,full,-60,-30,1
4,104,R,1,right,1742,1,,half,,,1
4,105,,1,left,2182,0,106,full,-98,8,1
4,106,L,0,,2422,1,,half,,,1
4,107,,1,right,2071,1,106,full,-98,8,1
4,108,,0,,4594,1,106,full,-98,8,1
4,109,,0,,4460,1,106,full,-98,8,1
4,110,,1,left,4310,0,106,full,-98,8,1
4,111,,0,,2600,1,106,full,-98,8,1
4,112,,0,,2521,1,30,full,-60,-30,1
4,113,,1,right,1611,1,30,full,-60,-30,1
4,114,R,0,,2909,1,,half,,,1
4,115,,1,right,4270,0,106,full,-98,8,1
4,116,,0,,2122,1,30,full,-60,-30,1
4,117,,1,left,2670,1,30,full,-60,-30,1
4,118,L,1,right,3610,0,,half,,,1
4,119,,0,,2072,1,30,full,-60,-30,1
4,120,R,0,,4450,1,,half,,,1
4,121,,0,,5668,1,106,full,-98,8,1
4,122,L,1,left,1662,1,,half,,,1
4,123,,0,,2930,1,30,full,-60,-30,1
4,124,,1,right,1612,1,30,full,-60,-30,1
4,125,L,0,,2590,1,,half,,,1
4,126,,1,right,1593,1,30,full,-60,-30,1
4,127,,0,,2392,1,106,full,-98,8,1
4,128,,0,,4271,1,106,full,-98,8,1
4,129,L,0,,3152,1,,half,,,1
4,130,R,1,right,1545,1,,half,,,1
4,131,,1,left,1593,1,30,full,-60,-30,1
4,132,R,1,left,1872,0,,half,,,1
4,133,,0,,4249,1,106,full,-98,8,1
4,134,,0,,2472,1,30,full,-60,-30,1
4,135,,0,,2353,1,30,full,-60,-30,1
4,136,,1,left,1672,1,30,full,-60,-30,1
4,137,,0,,2262,1,106,full,-98,8,1
4,138,,1,left,1712,1,106,full,-98,8,1
4,139,,1,right,1685,1,30,full,-60,-30,1
4,140,,1,left,1582,1,30,full,-60,-30,1
4,141,,0,,1842,1,30,full,-60,-30,1
4,142,L,0,,2151,1,,half,,,1
4,143,,0,,2324,1,30,full,-60,-30,1
4,144,,1,right,2542,1,106,full,-98,8,1
4,145,,1,left,2711,0,106,full,-98,8,1
4,146,R,0,,3060,1,,half,,,1
4,147,,0,,4240,1,106,full,-98,8,1
4,148,,0,,2143,1,30,full,-60,-30,1
4,149,,0,,2671,1,106,full,-98,8,1
4,150,,0,,2531,1,30,full,-60,-30,1
4,151,,0,,3690,1,106,full,-98,8,1
4,152,L,0,,3660,1,,half,,,1
4,153,,1,right,1637,1,30,full,-60,-30,1
4,154,L,0,,2142,1,,half,,,1
4,155,L,1,right,3521,0,,half,,,1
4,156,,1,left,1592,1,30,full,-60,-30,1
4,157,,0,,2811,1,30,full,-60,-30,1
4,158,,0,,4538,1,106,full,-98,8,1
4,159,,1,left,1988,1,30,full,-60,-30,1
4,160,R,1,left,2237,1,,half,,,1
4,161,,1,left,1556,1,30,full,-60,-30,1
4,162,R,1,right,1762,1,,half,,,1
4,163,,1,right,2550,1,106,full,-98,8,1
4,164,R,1,right,1542,1,,half,,,1
4,165,,1,left,2673,1,106,full,-98,8,1
4,166,,1,left,2771,1,106,full,-98,8,1
4,167,,0,,3830,1,30,full,-60,-30,1
4,168,R,0,,3640,1,,half,,,1
4,169,,1,left,3091,1,106,full,-98,8,1
4,170,L,1,left,1751,1,,half,,,1
4,171,,0,,2242,1,30,full,-60,-30,1
4,172,L,0,,2783,1,,half,,,1
4,173,,0,,1843,1,30,full,-60,-30,1
4,174,,0,,2035,1,30,full,-60,-30,1
4,175,,0,,1721,1,30,full,-60,-30,1
4,176,,0,,1712,1,30,full,-60,-30,1
4,177,R,0,,3360,1,,half,,,1
4,178,,1,right,1702,0,106,full,-98,8,1
4,179,,1,left,1922,1,106,full,-98,8,1
4,180,,0,,2477,1,30,full,-60,-30,1
4,181,R,1,left,2651,0,,half,,,1
4,182,,0,,2541,1,106,full,-98,8,1
4,183,,0,,2210,0,30,full,-60,-30,1
4,184,L,1,left,1710,1,,half,,,1
4,185,R,0,,2236,1,,half,,,1
4,186,,1,right,3121,1,106,full,-98,8,1
4,187,,1,left,1582,1,30,full,-60,-30,1
4,188,,0,,1919,1,106,full,-98,8,1
4,189,R,1,right,1941,1,,half,,,1
4,190,,0,,3690,1,106,full,-98,8,1
4,191,,1,left,2830,1,106,full,-98,8,1
4,192,L,0,,2096,1,,half,,,1
4,193,L,1,left,1573,1,,half,,,1
4,194,L,1,right,2939,1,,half,,,1
4,195,,1,left,1739,1,106,full,-98,8,1
4,196,,0,,2991,1,30,full,-60,-30,1
4,197,L,1,left,1603,1,,half,,,1
4,198,,1,left,1591,1,30,full,-60,-30,1
4,199,R,1,right,1592,1,,half,,,1
4,200,,1,right,1962,0,106,full,-98,8,1
4,201,,0,,3251,1,106,full,-98,8,1
4,202,R,0,,2481,1,,half,,,1
4,203,R,1,right,1681,1,,half,,,1
4,204,R,1,left,1823,0,,half,,,1
4,205,,0,,2682,1,106,full,-98,8,1
4,206,,0,,1892,1,30,full,-60,-30,1
4,207,,1,right,1602,1,30,full,-60,-30,1
4,208,,1,right,3035,0,106,full,-98,8,1
4,209,L,0,,1905,1,,half,,,1
4,210,R,0,,3347,1,,half,,,1
4,211,L,1,left,2341,1,,half,,,1
4,212,,0,,1862,1,106,full,-98,8,1
4,213,,0,,3970,1,106,full,-98,8,1
4,214,R,1,left,2850,0,,half,,,1
4,215,,1,left,2579,0,106,full,-98,8,1
4,216,L,0,,2765,1,,half,,,1
4,217,L,1,right,4379,0,,half,,,1
4,218,,0,,3560,1,30,full,-60,-30,1
4,219,,1,left,1621,1,30,full,-60,-30,1
4,220,,1,left,5285,0,106,full,-98,8,1
4,221,,0,,2382,1,106,full,-98,8,1
4,222,,0,,3561,1,30,full,-60,-30,1
4,223,L,1,left,1701,1,,half,,,1
4,224,,1,right,1903,1,106,full,-98,8,1
4,225,R,0,,3817,1,,half,,,1
4,226,R,0,,3741,1,,half,,,1
4,227,L,1,right,1812,1,,half,,,1
4,228,,0,,3150,1,30,full,-60,-30,1
4,229,,1,left,4330,0,106,full,-98,8,1
4,230,,0,,5251,1,106,full,-98,8,1
4,231,,0,,3999,1,106,full,-98,8,1
4,232,L,1,right,3381,0,,half,,,1
4,233,,0,,4509,0,106,full,-98,8,1
4,234,,1,right,1731,1,30,full,-60,-30,1
4,235,,1,left,2322,1,106,full,-98,8,1
4,236,,1,left,2354,1,106,full,-98,8,1
4,237,L,0,,4141,1,,half,,,1
4,238,L,0,,3510,1,,half,,,1
4,239,,1,left,1493,1,30,full,-60,-30,1
4,240,L,0,,3959,1,,half,,,1
5,1,R,1,right,12533,1,,half,,,1
5,2,,0,,32314,1,106,full,-98,8,1
5,3,,0,,6523,1,30,full,-60,-30,1
5,4,L,0,,5923,1,,half,,,1
5,5,,1,left,5103,1,30,full,-60,-30,1
5,6,,0,,4719,1,30,full,-60,-30,1
5,7,L,1,left,2330,1,,half,,,1
5,8,,0,,7886,1,106,full,-98,8,1
5,9,,0,,4568,1,30,full,-60,-30,1
5,10,,1,right,3949,0,106,full,-98,8,1
5,11,,1,right,2739,1,30,full,-60,-30,1
5,12,,0,,4665,1,106,full,-98,8,1
5,13,,0,,4519,1,30,full,-60,-30,1
5,14,R,0,,4509,1,,half,,,1
5,15,,0,,6417,1,106,full,-98,8,1
5,16,,0,,7116,0,106,full,-98,8,1
5,17,R,0,,11233,1,,half,,,1
5,18,,1,left,2361,1,30,full,-60,-30,1
5,19,,0,,6067,1,106,full,-98,8,1
5,20,L,1,right,7067,0,,half,,,1
5,21,L,1,left,2749,1,,half,,,1
5,22,,1,right,8923,0,106,full,-98,8,1
5,23,,1,right,2061,1,30,full,-60,-30,1
5,24,,0,,4460,1,30,full,-60,-30,1
5,25,,0,,4969,1,106,full,-98,8,1
5,26,,1,left,6106,0,106,full,-98,8,1
5,27,,0,,7846,1,30,full,-60,-30,1
5,28,,1,left,6797,1,106,full,-98,8,1
5,29,L,0,,7976,1,,half,,,1
5,30,,1,left,2018,0,30,full,-60,-30,1
5,31,L,1,left,2581,1,,half,,,1
5,32,L,0,,5689,0,,half,,,1
5,33,,0,,9411,1,106,full,-98,8,1
5,34,R,1,left,6506,0,,half,,,1
5,35,,0,,9704,1,30,full,-60,-30,1
5,36,L,0,,3431,0,,half,,,1
5,37,L,1,left,2515,1,,half,,,1
5,38,,1,left,2610,1,30,full,-60,-30,1
5,39,,1,right,2232,1,30,full,-60,-30,1
5,40,R,0,,2620,0,,half,,,1
5,41,,1,right,1851,1,30,full,-60,-30,1
5,42,,1,right,8114,0,106,full,-98,8,1
5,43,,0,,8965,1,30,full,-60,-30,1
5,44,,1,right,3017,0,106,full,-98,8,1
5,45,R,1,right,2099,1,,half,,,1
5,46,,0,,7786,1,106,full,-98,8,1
5,47,R,1,right,2432,1,,half,,,1
5,48,,0,,6858,1,106,full,-98,8,1
5,49,L,1,right,2493,1,,half,,,1
5,50,,1,left,11573,0,106,full,-98,8,1
5,51,,1,right,7315,0,106,full,-98,8,1
5,52,L,1,left,7816,0,,half,,,1
5,53,,0,,6796,1,30,full,-60,-30,1
5,54,,1,left,7715,0,106,full,-98,8,1
5,55,R,0,,9472,0,,half,,,1
5,56,,0,,7627,1,30,full,-60,-30,1
5,57,,0,,8336,1,106,full,-98,8,1
5,58,,1,left,7966,0,106,full,-98,8,1
5,59,,1,right,2322,1,106,full,-98,8,1
5,60,,0,,7644,1,106,full,-98,8,1
5,61,,1,left,823,0,106,full,-98,8,1
5,62,,1,left,1970,0,30,full,-60,-30,1
5,63,L,1,left,2080,1,,half,,,1
5,64,,0,,6098,1,106,full,-98,8,1
5,65,,1,left,5346,0,106,full,-98,8,1
5,66,,1,right,2019,1,106,full,-98,8,1
5,67,R,1,right,2141,1,,half,,,1
5,68,R,1,left,2990,1,,half,,,1
5,69,R,1,right,1721,1,,half,,,1
5,70,,1,left,2436,1,106,full,-98,8,1
5,71,,1,left,1772,1,30,full,-60,-30,1
5,72,,1,right,2162,1,106,full,-98,8,1
5,73,,1,right,2022,1,30,full,-60,-30,1
5,74,,0,,5030,1,106,full,-98,8,1
5,75,,0,,5907,1,106,full,-98,8,1
5,76,,0,,4879,1,30,full,-60,-30,1
5,77,,1,right,2146,0,30,full,-60,-30,1
5,78,R,1,right,1865,1,,half,,,1
5,79,,0,,3802,1,30,full,-60,-30,1
5,80,L,1,left,2111,1,,half,,,1
5,81,,0,,4139,1,30,full,-60,-30,1
5,82,R,0,,5806,1,,half,,,1
5,83,,1,right,4449,0,106,full,-98,8,1
5,84,R,1,right,2951,1,,half,,,1
5,85,,0,,8565,1,106,full,-98,8,1
5,86,R,0,,5299,1,,half,,,1
5,87,L,0,,4149,1,,half,,,1
5,88,L,0,,5569,1,,half,,,1
5,89,L,0,,6047,1,,half,,,1
5,90,L,0,,5545,1,,half,,,1
5,91,,1,right,2002,1,30,full,-60,-30,1
5,92,,1,right,1891,1,30,full,-60,-30,1
5,93,,1,left,1740,1,30,full,-60,-30,1
5,94,,1,right,2251,1,106,full,-98,8,1
5,95,,0,,4279,1,106,full,-98,8,1
5,96,L,0,,4279,1,,half,,,1
5,97,,0,,3303,1,30,full,-60,-30,1
5,98,R,0,,3308,1,,half,,,1
5,99,R,1,right,2631,1,,half,,,1
5,100,,1,left,894,0,30,full,-60,-30,1
5,101,,1,left,3665,1,106,full,-98,8,1
5,102,,0,,5640,1,30,full,-60,-30,1
5,103,,0,,2874,1,30,full,-60,-30,1
5,104,,0,,4057,1,30,full,-60,-30,1
5,105,L,1,left,3001,1,,half,,,1
5,106,,1,right,1831,1,30,full,-60,-30,1
5,107,R,0,,4888,1,,half,,,1
5,108,,0,,10473,1,106,full,-98,8,1
5,109,,1,right,2082,1,106,full,-98,8,1
5,110,,0,,4181,1,106,full,-98,8,1
5,111,,0,,3921,0,30,full,-60,-30,1
5,112,L,0,,5713,1,,half,,,1
5,113,R,1,left,6048,0,,half,,,1
5,114,R,0,,7315,1,,half,,,1
5,115,,1,right,1920,1,30,full,-60,-30,1
5,116,,0,,4450,1,106,full,-98,8,1
5,117,,1,left,551,0,30,full,-60,-30,1
5,118,,0,,4208,1,106,full,-98,8,1
5,119,,1,left,4499,0,106,full,-98,8,1
5,120,R,1,left,3280,1,,half,,,1
5,121,,1,left,1810,1,30,full,-60,-30,1
5,122,,0,,5634,1,106,full,-98,8,1
5,123,L,1,right,1871,1,,half,,,1
5,124,,0,,5199,1,106,full,-98,8,1
5,125,,0,,4819,1,30,full,-60,-30,1
5,126,,0,,4227,1,30,full,-60,-30,1
5,127,,0,,4230,1,30,full,-60,-30,1
5,128,,0,,5099,1,106,full,-98,8,1
5,129,,1,right,2240,1,106,full,-98,8,1
5,130,L,0,,6497,1,,half,,,1
5,131,,1,left,5018,0,106,full,-98,8,1
5,132,,1,left,8656,0,106,full,-98,8,1
5,133,,0,,10145,1,30,full,-60,-30,1
5,134,L,1,right,5697,0,,half,,,1
5,135,,0,,8386,1,30,full,-60,-30,1
5,136,,1,right,4643,0,106,full,-98,8,1
5,137,R,1,left,8765,0,,half,,,1
5,138,L,1,left,1922,1,,half,,,1
5,139,,0,,4117,1,30,full,-60,-30,1
5,140,,0,,7296,1,106,full,-98,8,1
5,141,,1,left,6466,0,106,full,-98,8,1
5,142,L,1,right,2079,1,,half,,,1
5,143,,0,,5158,1,30,full,-60,-30,1
5,144,,1,right,5532,0,106,full,-98,8,1
5,145,,1,left,1992,1,30,full,-60,-30,1
5,146,,1,left,2879,1,30,full,-60,-30,1
5,147,,0,,3629,1,30,full,-60,-30,1
5,148,L,0,,4518,1,,half,,,1
5,149,R,0,,4959,1,,half,,,1
5,150,,0,,3849,1,30,full,-60,-30,1
5,151,L,1,right,4909,0,,half,,,1
5,152,,1,left,2130,1,106,full,-98,8,1
5,153,R,0,,3739,1,,half,,,1
5,154,,1,right,5118,0,106,full,-98,8,1
5,155,,0,,7865,1,106,full,-98,8,1
5,156,,0,,4309,1,106,full,-98,8,1
5,157,,1,right,2290,1,30,full,-60,-30,1
5,158,,1,right,1790,1,30,full,-60,-30,1
5,159,,1,left,1852,1,30,full,-60,-30,1
5,160,L,0,,8045,1,,half,,,1
5,161,L,0,,5126,1,,half,,,1
5,162,R,0,,4625,0,,half,,,1
5,163,,1,right,3399,1,106,full,-98,8,1
5,164,,0,,7066,1,106,full,-98,8,1
5,165,,0,,4189,1,30,full,-60,-30,1
5,166,L,1,left,1730,1,,half,,,1
5,167,,0,,2979,1,30,full,-60,-30,1
5,168,,1,right,1859,1,30,full,-60,-30,1
5,169,,1,right,1681,1,30,full,-60,-30,1
5,170,,0,,4788,1,106,full,-98,8,1
5,171,,0,,3305,1,30,full,-60,-30,1
5,172,,0,,4928,1,106,full,-98,8,1
5,173,L,1,right,2448,1,,half,,,1
5,174,L,0,,5898,1,,half,,,1
5,175,R,0,,4409,1,,half,,,1
5,176,R,0,,4511,1,,half,,,1
5,177,,1,right,2030,1,30,full,-60,-30,1
5,178,,1,left,5389,0,106,full,-98,8,1
5,179,R,0,,4668,1,,half,,,1
5,180,,1,left,1839,1,30,full,-60,-30,1
5,181,,0,,4038,1,106,full,-98,8,1
5,182,,1,left,1811,1,30,full,-60,-30,1
5,183,L,0,,3079,1,,half,,,1
5,184,R,0,,4059,1,,half,,,1
5,185,,0,,2428,1,30,full,-60,-30,1
5,186,,1,left,1731,1,30,full,-60,-30,1
5,187,,0,,5918,1,106,full,-98,8,1
5,188,,0,,4129,1,106,full,-98,8,1
5,189,,1,right,1781,1,30,full,-60,-30,1
5,190,R,0,,2870,1,,half,,,1
5,191,R,0,,5089,1,,half,,,1
5,192,L,1,left,1732,1,,half,,,1
5,193,,0,,2332,1,30,full,-60,-30,1
5,194,,1,left,1732,1,30,full,-60,-30,1
5,195,R,1,right,1748,1,,half,,,1
5,196,,1,right,1662,1,30,full,-60,-30,1
5,197,,1,left,1752,1,30,full,-60,-30,1
5,198,,0,,2681,1,106,full,-98,8,1
5,199,,1,left,3509,0,106,full,-98,8,1
5,200,R,1,right,1688,1,,half,,,1
5,201,L,0,,5918,1,,half,,,1
5,202,L,0,,2872,1,,half,,,1
5,203,,1,left,2547,1,106,full,-98,8,1
5,204,L,1,left,2450,1,,half,,,1
5,205,,0,,2581,1,30,full,-60,-30,1
5,206,,1,left,1751,1,30,full,-60,-30,1
5,207,,0,,3211,1,106,full,-98,8,1
5,208,,0,,4200,1,106,full,-98,8,1
5,209,R,1,left,4790,0,,half,,,1
5,210,L,0,,4838,1,,half,,,1
5,211,,0,,2749,1,30,full,-60,-30,1
5,212,L,1,right,5929,0,,half,,,1
5,213,,1,right,2740,1,30,full,-60,-30,1
5,214,,0,,5166,1,106,full,-98,8,1
5,215,,1,right,4457,0,106,full,-98,8,1
5,216,L,1,right,5447,0,,half,,,1
5,217,,0,,10493,1,106,full,-98,8,1
5,218,,0,,5530,1,30,full,-60,-30,1
5,219,,1,right,4818,0,106,full,-98,8,1
5,220,,0,,3750,1,30,full,-60,-30,1
5,221,,0,,3159,1,30,full,-60,-30,1
5,222,,0,,4269,1,106,full,-98,8,1
5,223,R,0,,3531,1,,half,,,1
5,224,,1,left,1862,1,30,full,-60,-30,1
5,225,R,1,right,1941,1,,half,,,1
5,226,,0,,4079,1,30,full,-60,-30,1
5,227,L,1,left,1742,1,,half,,,1
5,228,,1,right,1692,1,30,full,-60,-30,1
5,229,L,1,left,1639,1,,half,,,1
5,230,,1,right,1901,1,106,full,-98,8,1
5,231,,1,right,1642,1,30,full,-60,-30,1
5,232,,0,,2411,1,30,full,-60,-30,1
5,233,,0,,4269,1,106,full,-98,8,1
5,234,L,0,,2851,1,,half,,,1
5,235,L,0,,3110,1,,half,,,1
5,236,,0,,2290,1,30,full,-60,-30,1
5,237,,1,left,2341,1,106,full,-98,8,1
5,238,,1,right,2882,1,106,full,-98,8,1
5,239,,1,left,3250,1,106,full,-98,8,1
5,240,,1,left,1799,1,106,full,-98,8,1
6,1,,1,right,11184,1,30,full,-60,-30,1
6,2,R,0,,9597,1,,half,,,1
6,3,,0,,11153,1,106,full,-98,8,1
6,4,,1,right,4701,1,30,full,-60,-30,1
6,5,,0,,4832,1,30,full,-60,-30,1
6,6,L,0,,11233,1,,half,,,1
6,7,L,0,,10693,1,,half,,,1
6,8,,1,left,2095,1,30,full,-60,-30,1
6,9,,0,,4688,1,30,full,-60,-30,1
6,10,R,1,left,4335,0,,half,,,1
6,11,,1,right,6088,0,106,full,-98,8,1
6,12,,1,left,2025,1,30,full,-60,-30,1
6,13,L,0,,7118,1,,half,,,1
6,14,,0,,6370,1,30,full,-60,-30,1
6,15,,0,,3290,1,106,full,-98,8,1
6,16,,0,,3257,1,30,full,-60,-30,1
6,17,,1,left,2010,0,106,full,-98,8,1
6,18,,1,right,2191,1,30,full,-60,-30,1
6,19,,1,right,1920,1,30,full,-60,-30,1
6,20,,1,right,2729,1,106,full,-98,8,1
6,21,,0,,4719,1,30,full,-60,-30,1
6,22,,1,left,10829,0,106,full,-98,8,1
6,23,R,0,,11193,1,,half,,,1
6,24,,0,,15279,1,106,full,-98,8,1
6,25,R,1,right,2908,1,,half,,,1
6,26,,0,,4930,1,30,full,-60,-30,1
6,27,,0,,9679,1,106,full,-98,8,1
6,28,,0,,1109,1,106,full,-98,8,1
6,29,,1,right,2481,1,30,full,-60,-30,1
6,30,,0,,4429,1,30,full,-60,-30,1
6,31,,0,,5189,1,30,full,-60,-30,1
6,32,,0,,5029,1,30,full,-60,-30,1
6,33,,1,right,2000,1,30,full,-60,-30,1
6,34,,1,left,1961,1,30,full,-60,-30,1
6,35,,0,,9010,1,106,full,-98,8,1
6,36,,1,left,8068,0,106,full,-98,8,1
6,37,,1,left,1911,1,30,full,-60,-30,1
6,38,,1,right,6710,0,106,full,-98,8,1
6,39,L,0,,6417,1,,half,,,1
6,40,L,1,left,2279,1,,half,,,1
6,41,,0,,4946,1,30,full,-60,-30,1
6,42,,1,left,1818,1,30,full,-60,-30,1
6,43,,1,right,10116,0,106,full,-98,8,1
6,44,,1,left,6930,0,106,full,-98,8,1
6,45,L,1,right,7896,0,,half,,,1
6,46,,1,left,5557,1,106,full,-98,8,1
6,47,,0,,10073,1,106,full,-98,8,1
6,48,,1,left,1881,1,30,full,-60,-30,1
6,49,,0,,4729,1,30,full,-60,-30,1
6,50,R,0,,9976,1,,half,,,1
6,51,,0,,4179,1,30,full,-60,-30,1
6,52,,0,,8366,1,106,full,-98,8,1
6,53,L,0,,6698,1,,half,,,1
6,54,R,0,,5399,1,,half,,,1
6,55,,0,,5098,1,30,full,-60,-30,1
6,56,R,0,,7908,1,,half,,,1
6,57,,1,left,10164,0,106,full,-98,8,1
6,58,,1,right,8646,0,106,full,-98,8,1
6,59,R,1,left,4908,1,,half,,,1
6,60,,0,,4469,1,30,full,-60,-30,1
6,61,R,0,,8502,1,,half,,,1
6,62,,0,,10447,1,106,full,-98,8,1
6,63,R,0,,9064,1,,half,,,1
6,64,,0,,6930,1,106,full,-98,8,1
6,65,,0,,3540,1,30,full,-60,-30,1
6,66,,0,,10353,1,106,full,-98,8,1
6,67,,0,,12243,1,106,full,-98,8,1
6,68,,0,,11043,1,106,full,-98,8,1
6,69,,0,,10114,1,106,full,-98,8,1
6,70,,1,left,2110,1,30,full,-60,-30,1
6,71,,0,,5688,1,30,full,-60,-30,1
6,72,,1,left,1961,1,30,full,-60,-30,1
6,73,L,1,left,1681,1,,half,,,1
6,74,,1,left,7156,0,106,full,-98,8,1
6,75,,1,right,9266,0,106,full,-98,8,1
6,76,,0,,4152,1,30,full,-60,-30,1
6,77,L,1,right,2531,1,,half,,,1
6,78,,1,left,1630,1,30,full,-60,-30,1
6,79,L,1,left,1707,1,,half,,,1
6,80,R,1,left,5809,0,,half,,,1
6,81,L,1,left,1911,1,,half,,,1
6,82,,1,left,6707,0,106,full,-98,8,1
6,83,,0,,6207,1,106,full,-98,8,1
6,84,,0,,3029,1,30,full,-60,-30,1
6,85,,1,right,2021,1,30,full,-60,-30,1
6,86,,1,right,1790,1,30,full,-60,-30,1
6,87,,0,,7007,1,106,full,-98,8,1
6,88,L,1,left,2039,1,,half,,,1
6,89,R,1,right,1657,1,,half,,,1
6,90,R,0,,7607,1,,half,,,1
6,91,R,0,,5795,1,,half,,,1
6,92,,1,left,1610,1,30,full,-60,-30,1
6,93,R,1,right,1691,1,,half,,,1
6,94,L,0,,7064,1,,half,,,1
6,95,,1,right,2295,1,106,full,-98,8,1
6,96,,0,,2839,1,30,full,-60,-30,1
6,97,,0,,3030,1,30,full,-60,-30,1
6,98,,1,left,1640,1,30,full,-60,-30,1
6,99,L,0,,4989,1,,half,,,1
6,100,,0,,6757,1,106,full,-98,8,1
6,101,L,1,right,4082,0,,half,,,1
6,102,,1,left,1632,1,30,full,-60,-30,1
6,103,,1,left,8002,0,106,full,-98,8,1
6,104,R,0,,8396,1,,half,,,1
6,105,,0,,2931,1,30,full,-60,-30,1
6,106,,1,left,3948,1,106,full,-98,8,1
6,107,L,0,,7536,1,,half,,,1
6,108,,1,right,1752,1,30,full,-60,-30,1
6,109,,1,left,6581,0,106,full,-98,8,1
6,110,,0,,9749,1,106,full,-98,8,1
6,111,,0,,3938,1,30,full,-60,-30,1
6,112,,1,right,1791,1,30,full,-60,-30,1
6,113,,1,left,5108,0,106,full,-98,8,1
6,114,,1,left,1770,1,30,full,-60,-30,1
6,115,,1,right,3340,0,106,full,-98,8,1
6,116,,1,right,1571,1,30,full,-60,-30,1
6,117,L,1,left,1761,1,,half,,,1
6,118,,0,,5339,1,106,full,-98,8,1
6,119,,0,,2716,1,30,full,-60,-30,1
6,120,,0,,2540,1,30,full,-60,-30,1
6,121,,1,left,8731,0,106,full,-98,8,1
6,122,L,1,right,6654,0,,half,,,1
6,123,,0,,6905,1,106,full,-98,8,1
6,124,,1,right,6317,1,106,full,-98,8,1
6,125,,1,right,1701,1,30,full,-60,-30,1
6,126,L,1,left,1651,1,,half,,,1
6,127,L,1,right,4889,1,,half,,,1
6,128,,1,right,7456,0,106,full,-98,8,1
6,129,,1,left,2227,1,30,full,-60,-30,1
6,130,,1,left,1620,1,30,full,-60,-30,1
6,131,R,0,,3841,1,,half,,,1
6,132,,0,,2421,1,30,full,-60,-30,1
6,133,R,0,,5495,1,,half,,,1
6,134,,0,,2440,1,30,full,-60,-30,1
6,135,L,0,,5169,1,,half,,,1
6,136,,1,right,1751,1,30,full,-60,-30,1
6,137,,0,,2940,1,30,full,-60,-30,1
6,138,L,0,,7225,1,,half,,,1
6,139,L,1,left,1922,1,,half,,,1
6,140,L,0,,4908,1,,half,,,1
6,141,,0,,1969,1,30,full,-60,-30,1
6,142,,1,right,2410,1,106,full,-98,8,1
6,143,L,0,,2804,1,,half,,,1
6,144,,1,left,1811,1,106,full,-98,8,1
6,145,,1,right,4235,1,106,full,-98,8,1
6,146,,0,,6974,1,106,full,-98,8,1
6,147,,1,right,1856,1,30,full,-60,-30,1
6,148,R,0,,5527,1,,half,,,1
6,149,,1,right,1710,1,30,full,-60,-30,1
6,150,L,1,left,1758,1,,half,,,1
6,151,R,1,right,1615,1,,half,,,1
6,152,,0,,7651,1,106,full,-98,8,1
6,153,,0,,2781,1,30,full,-60,-30,1
6,154,R,1,left,5188,0,,half,,,1
6,155,,0,,3630,1,30,full,-60,-30,1
6,156,R,1,right,1681,1,,half,,,1
6,157,,1,right,1820,1,106,full,-98,8,1
6,158,R,1,left,6263,0,,half,,,1
6,159,,1,left,6298,0,106,full,-98,8,1
6,160,,0,,5346,1,106,full,-98,8,1
6,161,,0,,3840,1,106,full,-98,8,1
6,162,L,0,,5767,1,,half,,,1
6,163,L,1,right,3390,1,,half,,,1
6,164,L,1,left,1964,1,,half,,,1
6,165,,0,,9296,1,106,full,-98,8,1
6,166,,0,,5128,1,106,full,-98,8,1
6,167,L,1,left,1891,1,,half,,,1
6,168,R,0,,5138,1,,half,,,1
6,169,,0,,6228,1,106,full,-98,8,1
6,170,L,1,left,1932,1,,half,,,1
6,171,,1,left,1810,1,30,full,-60,-30,1
6,172,,0,,8516,1,106,full,-98,8,1
6,173,,1,left,2308,1,106,full,-98,8,1
6,174,L,0,,4929,1,,half,,,1
6,175,,0,,4513,1,106,full,-98,8,1
6,176,,1,right,1761,1,30,full,-60,-30,1
6,177,,1,left,3979,0,106,full,-98,8,1
6,178,,1,left,1630,1,30,full,-60,-30,1
6,179,,0,,2450,1,30,full,-60,-30,1
6,180,R,0,,4900,1,,half,,,1
6,181,,0,,4809,1,106,full,-98,8,1
6,182,,1,left,1701,1,30,full,-60,-30,1
6,183,R,0,,4609,1,,half,,,1
6,184,,1,left,4238,0,106,full,-98,8,1
6,185,,0,,5678,1,106,full,-98,8,1
6,186,R,1,right,1730,1,,half,,,1
6,187,,0,,4360,1,106,full,-98,8,1
6,188,L,0,,2490,1,,half,,,1
6,189,,0,,1946,1,30,full,-60,-30,1
6,190,R,0,,5247,1,,half,,,1
6,191,,1,right,2001,1,106,full,-98,8,1
6,192,L,1,right,1920,1,,half,,,1
6,193,,0,,2032,1,30,full,-60,-30,1
6,194,,1,right,1881,1,106,full,-98,8,1
6,195,,1,right,1591,1,30,full,-60,-30,1
6,196,L,0,,6058,1,,half,,,1
6,197,,1,left,1798,1,30,full,-60,-30,1
6,198,,0,,2130,1,30,full,-60,-30,1
6,199,,0,,1883,1,30,full,-60,-30,1
6,200,R,1,right,1841,1,,half,,,1
6,201,,1,left,1940,1,30,full,-60,-30,1
6,202,,1,left,4539,0,106,full,-98,8,1
6,203,,0,,2017,0,106,full,-98,8,1
6,204,,1,left,3327,1,106,full,-98,8,1
6,205,L,0,,6346,1,,half,,,1
6,206,R,0,,4878,1,,half,,,1
6,207,,0,,4752,1,106,full,-98,8,1
6,208,,0,,2680,1,30,full,-60,-30,1
6,209,R,1,right,1858,1,,half,,,1
6,210,,0,,1722,1,30,full,-60,-30,1
6,211,,1,right,1980,1,106,full,-98,8,1
6,212,L,1,right,2071,1,,half,,,1
6,213,,1,right,1631,1,30,full,-60,-30,1
6,214,,0,,5239,1,106,full,-98,8,1
6,215,R,1,right,1820,1,,half,,,1
6,216,R,1,left,3339,0,,half,,,1
6,217,L,0,,5040,1,,half,,,1
6,218,L,0,,6209,1,,half,,,1
6,219,R,1,right,1681,1,,half,,,1
6,220,,0,,3867,1,106,full,-98,8,1
6,221,L,1,left,2407,1,,half,,,1
6,222,L,1,left,1612,1,,half,,,1
6,223,,1,right,1592,1,30,full,-60,-30,1
6,224,,1,right,1570,1,30,full,-60,-30,1
6,225,R,0,,4059,1,,half,,,1
6,226,,0,,2149,1,30,full,-60,-30,1
6,227,,0,,1921,1,30,full,-60,-30,1
6,228,R,1,right,1751,1,,half,,,1
6,229,,1,right,4697,0,106,full,-98,8,1
6,230,L,1,right,7058,1,,half,,,1
6,231,,1,right,3123,1,106,full,-98,8,1
6,232,,0,,5953,1,106,full,-98,8,1
6,233,L,0,,4489,1,,half,,,1
6,234,,1,right,5465,0,106,full,-98,8,1
6,235,,0,,4498,1,106,full,-98,8,1
6,236,L,0,,3280,1,,half,,,1
6,237,,0,,3500,1,106,full,-98,8,1
6,238,,0,,6646,1,106,full,-98,8,1
6,239,,1,right,3665,0,106,full,-98,8,1
6,240,,0,,1951,1,30,full,-60,-30,1
7,1,,0,,13731,1,106,full,-98,8,1
7,2,,0,,10932,1,106,full,-98,8,1
7,3,,0,,5618,1,30,full,-60,-30,1
7,4,L,0,,5710,1,,half,,,1
7,5,,1,right,8506,1,30,full,-60,-30,1
7,6,L,0,,10234,1,,half,,,1
7,7,,1,right,3031,1,30,full,-60,-30,1
7,8,,1,right,2142,1,30,full,-60,-30,1
7,9,L,1,left,3920,1,,half,,,1
7,10,,1,left,2121,1,30,full,-60,-30,1
7,11,,0,,2442,1,30,full,-60,-30,1
7,12,,1,right,2101,1,30,full,-60,-30,1
7,13,R,1,left,3727,0,,half,,,1
7,14,,0,,4140,1,106,full,-98,8,1
7,15,R,1,right,2022,1,,half,,,1
7,16,,0,,4051,1,30,full,-60,-30,1
7,17,L,0,,3761,1,,half,,,1
7,18,,1,left,5117,0,106,full,-98,8,1
7,19,R,0,,3042,1,,half,,,1
7,20,,0,,3455,1,30,full,-60,-30,1
7,21,,1,left,4419,0,106,full,-98,8,1
7,22,,0,,6417,1,106,full,-98,8,1
7,23,,0,,5538,1,106,full,-98,8,1
7,24,L,1,right,7548,0,,half,,,1
7,25,,0,,7327,1,106,full,-98,8,1
7,26,,0,,7997,1,106,full,-98,8,1
7,27,,1,right,1835,1,30,full,-60,-30,1
7,28,,0,,4851,1,30,full,-60,-30,1
7,29,,1,left,7078,0,106,full,-98,8,1
7,30,L,1,left,2325,1,,half,,,1
7,31,,1,right,1942,1,30,full,-60,-30,1
7,32,,1,left,2022,1,30,full,-60,-30,1
7,33,,0,,3180,1,30,full,-60,-30,1
7,34,R,0,,7217,1,,half,,,1
7,35,,1,left,2052,1,30,full,-60,-30,1
7,36,,0,,3661,1,30,full,-60,-30,1
7,37,,0,,5948,1,106,full,-98,8,1
7,38,,1,left,5249,0,106,full,-98,8,1
7,39,,0,,4906,1,106,full,-98,8,1
7,40,R,0,,4020,1,,half,,,1
7,41,,1,right,1792,1,30,full,-60,-30,1
7,42,L,1,right,2981,0,,half,,,1
7,43,,0,,4129,1,30,full,-60,-30,1
7,44,R,0,,8976,1,,half,,,1
7,45,L,1,left,3826,1,,half,,,1
7,46,R,0,,5259,1,,half,,,1
7,47,,0,,6705,1,106,full,-98,8,1
7,48,,1,right,6322,0,106,full,-98,8,1
7,49,,1,right,1901,1,30,full,-60,-30,1
7,50,L,1,left,2031,1,,half,,,1
7,51,R,0,,3978,1,,half,,,1
7,52,R,0,,7047,1,,half,,,1
7,53,L,1,left,7118,0,,half,,,1
7,54,L,1,right,6307,0,,half,,,1
7,55,,1,left,1828,1,30,full,-60,-30,1
7,56,,0,,2854,1,30,full,-60,-30,1
7,57,R,1,right,2242,1,,half,,,1
7,58,,1,left,3800,0,106,full,-98,8,1
7,59,R,1,left,4598,1,,half,,,1
7,60,,0,,3740,1,30,full,-60,-30,1
7,61,,0,,6399,1,106,full,-98,8,1
7,62,,1,left,1888,1,30,full,-60,-30,1
7,63,L,0,,2931,1,,half,,,1
7,64,L,0,,6118,1,,half,,,1
7,65,,1,left,2841,1,106,full,-98,8,1
7,66,L,1,left,4680,0,,half,,,1
7,67,,1,right,2631,1,30,full,-60,-30,1
7,68,R,0,,5649,1,,half,,,1
7,69,,0,,6697,1,30,full,-60,-30,1
7,70,,0,,5689,1,106,full,-98,8,1
7,71,L,1,right,5428,0,,half,,,1
7,72,,1,left,1902,1,30,full,-60,-30,1
7,73,,1,right,3404,1,106,full,-98,8,1
7,74,R,1,right,2411,1,,half,,,1
7,75,L,0,,3970,1,,half,,,1
7,76,,1,left,2102,1,30,full,-60,-30,1
7,77,,0,,1862,0,106,full,-98,8,1
7,78,,1,right,1852,1,30,full,-60,-30,1
7,79,,1,right,3401,0,106,full,-98,8,1
7,80,,1,left,1732,1,30,full,-60,-30,1
7,81,,0,,3540,1,106,full,-98,8,1
7,82,R,1,left,3910,0,,half,,,1
7,83,L,1,left,1942,1,,half,,,1
7,84,,0,,3020,1,30,full,-60,-30,1
7,85,L,1,right,4021,0,,half,,,1
7,86,,0,,3932,1,106,full,-98,8,1
7,87,,0,,4160,1,106,full,-98,8,1
7,88,L,0,,3047,1,,half,,,1
7,89,,0,,2653,1,30,full,-60,-30,1
7,90,,0,,3341,1,30,full,-60,-30,1
7,91,,1,left,2021,1,106,full,-98,8,1
7,92,,0,,2671,0,106,full,-98,8,1
7,93,,1,right,1724,1,30,full,-60,-30,1
7,94,,0,,2901,1,106,full,-98,8,1
7,95,R,0,,3389,1,,half,,,1
7,96,,1,right,2831,1,106,full,-98,8,1
7,97,R,0,,3611,1,,half,,,1
7,98,L,1,left,1892,1,,half,,,1
7,99,,1,right,3071,1,106,full,-98,8,1
7,100,,1,right,2782,1,30,full,-60,-30,1
7,101,,0,,4090,1,106,full,-98,8,1
7,102,,1,right,3890,0,106,full,-98,8,1
7,103,,0,,2958,1,30,full,-60,-30,1
7,104,L,0,,3449,1,,half,,,1
7,105,,0,,2880,1,106,full,-98,8,1
7,106,R,1,right,1643,1,,half,,,1
7,107,,1,left,2581,1,30,full,-60,-30,1
7,108,,1,left,3421,0,106,full,-98,8,1
7,109,,0,,3031,1,30,full,-60,-30,1
7,110,,1,left,1611,1,30,full,-60,-30,1
7,111,,1,right,2233,1,30,full,-60,-30,1
7,112,R,0,,2240,1,,half,,,1
7,113,,1,left,2132,1,106,full,-98,8,1
7,114,,0,,1992,1,30,full,-60,-30,1
7,115,,1,right,1679,1,30,full,-60,-30,1
7,116,,1,left,2398,1,30,full,-60,-30,1
7,117,,0,,1781,0,30,full,-60,-30,1
7,118,L,1,left,2042,1,,half,,,1
7,119,R,1,left,4046,0,,half,,,1
7,120,,0,,4710,1,30,full,-60,-30,1
7,121,,0,,3100,1,30,full,-60,-30,1
7,122,,1,right,2041,1,30,full,-60,-30,1
7,123,R,1,right,2220,1,,half,,,1
7,124,,1,right,2713,0,106,full,-98,8,1
7,125,,0,,2892,1,106,full,-98,8,1
7,126,L,1,right,2926,0,,half,,,1
7,127,,0,,2377,1,30,full,-60,-30,1
7,128,,1,left,3032,0,106,full,-98,8,1
7,129,,0,,1909,0,106,full,-98,8,1
7,130,,0,,1882,1,106,full,-98,8,1
7,131,,0,,3140,1,106,full,-98,8,1
7,132,,0,,4049,1,106,full,-98,8,1
7,133,,0,,3280,1,106,full,-98,8,1
7,134,,1,left,3930,0,106,full,-98,8,1
7,135,L,0,,4170,1,,half,,,1
7,136,,1,right,6468,0,106,full,-98,8,1
7,137,,1,left,1971,1,30,full,-60,-30,1
7,138,L,0,,2511,1,,half,,,1
7,139,,0,,5209,1,30,full,-60,-30,1
7,140,,1,left,4997,0,106,full,-98,8,1
7,141,,1,right,1822,1,30,full,-60,-30,1
7,142,R,0,,2329,1,,half,,,1
7,143,R,1,right,1751,1,,half,,,1
7,144,,1,right,3118,0,106,full,-98,8,1
7,145,,1,left,2082,1,30,full,-60,-30,1
7,146,,1,right,1608,1,30,full,-60,-30,1
7,147,,1,left,3599,1,106,full,-98,8,1
7,148,,0,,3621,1,30,full,-60,-30,1
7,149,L,1,left,1726,1,,half,,,1
7,150,L,0,,2645,1,,half,,,1
7,151,,1,left,3041,0,106,full,-98,8,1
7,152,,1,left,1868,0,106,full,-98,8,1
7,153,L,0,,1911,1,,half,,,1
7,154,R,0,,3399,1,,half,,,1
7,155,,0,,1937,1,30,full,-60,-30,1
7,156,,1,left,1643,1,30,full,-60,-30,1
7,157,L,1,left,2191,1,,half,,,1
7,158,L,0,,2790,1,,half,,,1
7,159,,1,right,2660,0,106,full,-98,8,1
7,160,,0,,2651,1,106,full,-98,8,1
7,161,,0,,2430,1,106,full,-98,8,1
7,162,,0,,1952,1,30,full,-60,-30,1
7,163,,1,right,1851,0,106,full,-98,8,1
7,164,,1,right,2062,0,106,full,-98,8,1
7,165,,1,left,2123,1,30,full,-60,-30,1
7,166,R,1,right,1920,1,,half,,,1
7,167,,1,right,2103,0,106,full,-98,8,1
7,168,,1,right,2061,0,106,full,-98,8,1
7,169,R,1,right,2069,1,,half,,,1
7,170,,1,right,1732,1,30,full,-60,-30,1
7,171,,0,,2801,1,106,full,-98,8,1
7,172,L,1,right,3760,0,,half,,,1
7,173,,1,left,2479,0,106,full,-98,8,1
7,174,L,0,,2347,1,,half,,,1
7,175,,0,,2232,1,106,full,-98,8,1
7,176,,1,left,2470,0,106,full,-98,8,1
7,177,R,1,right,1701,1,,half,,,1
7,178,,1,left,1991,1,30,full,-60,-30,1
7,179,,0,,2252,1,30,full,-60,-30,1
7,180,L,1,left,1761,1,,half,,,1
7,181,,0,,2491,1,106,full,-98,8,1
7,182,L,0,,2850,1,,half,,,1
7,183,L,0,,1942,1,,half,,,1
7,184,R,0,,2282,1,,half,,,1
7,185,,0,,3171,1,106,full,-98,8,1
7,186,,1,right,1762,1,30,full,-60,-30,1
7,187,,0,,1971,1,30,full,-60,-30,1
7,188,R,1,left,2170,0,,half,,,1
7,189,,0,,2141,1,30,full,-60,-30,1
7,190,,0,,6342,1,106,full,-98,8,1
7,191,,1,left,2691,0,106,full,-98,8,1
7,192,L,0,,2159,1,,half,,,1
7,193,L,0,,2169,1,,half,,,1
7,194,,1,left,1842,1,30,full,-60,-30,1
7,195,,1,right,2482,0,106,full,-98,8,1
7,196,,0,,1851,1,106,full,-98,8,1
7,197,,0,,1942,0,106,full,-98,8,1
7,198,,0,,1787,1,30,full,-60,-30,1
7,199,,0,,1863,1,106,full,-98,8,1
7,200,,0,,2712,1,106,full,-98,8,1
7,201,L,1,right,3379,1,,half,,,1
7,202,,0,,1823,1,30,full,-60,-30,1
7,203,,0,,1952,1,106,full,-98,8,1
7,204,R,0,,2049,1,,half,,,1
7,205,,0,,1881,1,30,full,-60,-30,1
7,206,,1,right,1790,0,106,full,-98,8,1
7,207,,1,left,1462,1,106,full,-98,8,1
7,208,,0,,1772,1,30,full,-60,-30,1
7,209,,1,right,1741,0,106,full,-98,8,1
7,210,,0,,1701,1,30,full,-60,-30,1
7,211,L,0,,3110,1,,half,,,1
7,212,R,0,,1746,1,,half,,,1
7,213,,0,,1690,1,30,full,-60,-30,1
7,214,,1,right,1823,0,106,full,-98,8,1
7,215,R,1,left,1617,0,,half,,,1
7,216,,0,,1621,1,30,full,-60,-30,1
7,217,,1,right,1605,1,30,full,-60,-30,1
7,218,,1,right,1692,0,106,full,-98,8,1
7,219,L,0,,1761,1,,half,,,1
7,220,,0,,1622,1,106,full,-98,8,1
7,221,L,1,left,1742,0,,half,,,1
7,222,R,0,,1861,1,,half,,,1
7,223,,0,,1662,1,106,full,-98,8,1
7,224,,1,left,1632,1,30,full,-60,-30,1
7,225,R,1,right,1790,1,,half,,,1
7,226,,0,,2019,1,30,full,-60,-30,1
7,227,,1,left,1611,1,30,full,-60,-30,1
7,228,,0,,1682,1,30,full,-60,-30,1
7,229,L,0,,1772,1,,half,,,1
7,230,L,1,left,1682,0,,half,,,1
7,231,R,0,,2441,1,,half,,,1
7,232,,0,,2031,1,30,full,-60,-30,1
7,233,,1,left,3289,0,106,full,-98,8,1
7,234,,1,left,1652,1,30,full,-60,-30,1
7,235,,1,right,1862,0,106,full,-98,8,1
7,236,,0,,2402,1,30,full,-60,-30,1
7,237,R,0,,2591,1,,half,,,1
7,238,R,1,right,1651,1,,half,,,1
7,239,,0,,2128,1,30,full,-60,-30,1
7,240,L,1,right,2041,0,,half,,,1
8,1,L,1,left,6359,1,,half,,,1
8,2,,1,right,2909,1,30,full,-60,-30,1
8,3,,1,left,2601,1,30,full,-60,-30,1
8,4,R,0,,7766,0,,half,,,1
8,5,R,1,right,2557,1,,half,,,1
8,6,,1,right,1992,1,30,full,-60,-30,1
8,7,R,0,,6769,1,,half,,,1
8,8,,0,,5928,1,106,full,-98,8,1
8,9,,0,,3397,0,30,full,-60,-30,1
8,10,,1,right,2264,1,30,full,-60,-30,1
8,11,,1,left,2404,1,106,full,-98,8,1
8,12,,0,,4658,1,30,full,-60,-30,1
8,13,,1,left,4864,1,106,full,-98,8,1
8,14,,1,right,2339,1,106,full,-98,8,1
8,15,,0,,2774,0,30,full,-60,-30,1
8,16,,0,,3951,1,106,full,-98,8,1
8,17,,1,right,2280,1,106,full,-98,8,1
8,18,L,1,left,2553,1,,half,,,1
8,19,,0,,5619,1,106,full,-98,8,1
8,20,,0,,3432,0,106,full,-98,8,1
8,21,,0,,3060,0,30,full,-60,-30,1
8,22,,0,,2986,1,30,full,-60,-30,1
8,23,,1,right,2500,1,30,full,-60,-30,1
8,24,,0,,3510,1,30,full,-60,-30,1
8,25,R,1,left,4937,1,,half,,,1
8,26,L,0,,4190,0,,half,,,1
8,27,,0,,3050,0,106,full,-98,8,1
8,28,,0,,3020,0,30,full,-60,-30,1
8,29,,0,,3888,0,106,full,-98,8,1
8,30,L,0,,3098,0,,half,,,1
8,31,,0,,3389,1,106,full,-98,8,1
8,32,,0,,4778,1,30,full,-60,-30,1
8,33,,1,left,2131,1,30,full,-60,-30,1
8,34,,1,left,4129,1,106,full,-98,8,1
8,35,,1,left,1969,1,30,full,-60,-30,1
8,36,,1,left,1751,1,30,full,-60,-30,1
8,37,,1,right,4438,1,106,full,-98,8,1
8,38,L,0,,3860,0,,half,,,1
8,39,,0,,4279,1,106,full,-98,8,1
8,40,,0,,2280,0,30,full,-60,-30,1
8,41,L,0,,5718,1,,half,,,1
8,42,L,0,,3969,1,,half,,,1
8,43,,1,right,4629,0,106,full,-98,8,1
8,44,,1,right,3072,1,106,full,-98,8,1
8,45,,1,left,2072,1,30,full,-60,-30,1
8,46,L,1,right,2350,1,,half,,,1
8,47,L,0,,4958,1,,half,,,1
8,48,R,0,,3950,1,,half,,,1
8,49,,1,right,3151,1,106,full,-98,8,1
8,50,R,1,left,2682,1,,half,,,1
8,51,,1,right,4046,0,106,full,-98,8,1
8,52,,0,,3118,0,30,full,-60,-30,1
8,53,,0,,4709,0,106,full,-98,8,1
8,54,,1,left,2374,1,106,full,-98,8,1
8,55,R,0,,3801,1,,half,,,1
8,56,,0,,2692,1,30,full,-60,-30,1
8,57,L,0,,3520,1,,half,,,1
8,58,,1,right,4009,0,106,full,-98,8,1
8,59,,0,,4721,1,106,full,-98,8,1
8,60,,0,,4398,0,106,full,-98,8,1
8,61,,0,,3459,1,106,full,-98,8,1
8,62,,0,,2480,1,30,full,-60,-30,1
8,63,R,0,,3295,0,,half,,,1
8,64,,0,,3360,1,30,full,-60,-30,1
8,65,R,0,,3849,1,,half,,,1
8,66,L,1,left,2401,1,,half,,,1
8,67,L,1,left,2051,1,,half,,,1
8,68,,0,,2711,1,106,full,-98,8,1
8,69,,1,left,1766,1,30,full,-60,-30,1
8,70,,1,right,1742,1,30,full,-60,-30,1
8,71,,1,left,1843,1,30,full,-60,-30,1
8,72,R,0,,3221,1,,half,,,1
8,73,,0,,2791,1,30,full,-60,-30,1
8,74,,0,,4263,1,30,full,-60,-30,1
8,75,,0,,2860,1,30,full,-60,-30,1
8,76,L,0,,3120,0,,half,,,1
8,77,R,1,left,4176,0,,half,,,1
8,78,,0,,3777,1,30,full,-60,-30,1
8,79,L,1,right,3889,0,,half,,,1
8,80,,1,left,1839,1,30,full,-60,-30,1
8,81,,1,right,2242,1,106,full,-98,8,1
8,82,L,1,right,3670,0,,half,,,1
8,83,L,0,,3910,1,,half,,,1
8,84,L,0,,3720,1,,half,,,1
8,85,,1,left,2581,1,106,full,-98,8,1
8,86,,0,,3341,1,30,full,-60,-30,1
8,87,,0,,4547,1,106,full,-98,8,1
8,88,,0,,4031,1,106,full,-98,8,1
8,89,,1,left,1992,1,30,full,-60,-30,1
8,90,,1,right,1821,1,30,full,-60,-30,1
8,91,,1,left,3319,0,106,full,-98,8,1
8,92,,0,,3939,1,106,full,-98,8,1
8,93,,1,right,5069,1,106,full,-98,8,1
8,94,,1,left,2716,0,106,full,-98,8,1
8,95,,1,left,2181,1,30,full,-60,-30,1
8,96,R,1,right,2132,1,,half,,,1
8,97,,1,right,1870,1,30,full,-60,-30,1
8,98,L,1,left,1970,1,,half,,,1
8,99,,1,right,1682,1,30,full,-60,-30,1
8,100,,0,,2491,1,30,full,-60,-30,1
8,101,,0,,4139,1,106,full,-98,8,1
8,102,R,1,right,1890,1,,half,,,1
8,103,,0,,2557,1,106,full,-98,8,1
8,104,,0,,3170,1,30,full,-60,-30,1
8,105,,0,,3792,1,106,full,-98,8,1
8,106,,0,,2942,1,30,full,-60,-30,1
8,107,,1,right,1842,1,30,full,-60,-30,1
8,108,,0,,2381,1,106,full,-98,8,1
8,109,L,1,left,2033,1,,half,,,1
8,110,,0,,2314,1,30,full,-60,-30,1
8,111,,0,,2451,1,106,full,-98,8,1
8,112,R,1,right,1820,1,,half,,,1
8,113,,1,left,2159,0,106,full,-98,8,1
8,114,,0,,2231,1,30,full,-60,-30,1
8,115,R,0,,2708,1,,half,,,1
8,116,,1,left,2837,1,106,full,-98,8,1
8,117,L,1,right,2851,0,,half,,,1
8,118,,0,,3661,1,106,full,-98,8,1
8,119,L,1,left,1877,1,,half,,,1
8,120,,1,right,2297,0,106,full,-98,8,1
8,121,,1,right,1848,1,30,full,-60,-30,1
8,122,,1,left,2301,1,106,full,-98,8,1
8,123,,0,,2133,1,30,full,-60,-30,1
8,124,,0,,2799,1,106,full,-98,8,1
8,125,,0,,4978,1,106,full,-98,8,1
8,126,,1,right,2128,1,106,full,-98,8,1
8,127,,1,right,1659,1,30,full,-60,-30,1
8,128,L,1,left,1696,1,,half,,,1
8,129,,0,,2469,1,106,full,-98,8,1
8,130,L,1,left,1802,1,,half,,,1
8,131,,0,,2140,1,106,full,-98,8,1
8,132,L,0,,2851,1,,half,,,1
8,133,L,1,left,1801,1,,half,,,1
8,134,,0,,2150,1,106,full,-98,8,1
8,135,R,0,,2402,1,,half,,,1
8,136,,0,,2758,1,30,full,-60,-30,1
8,137,L,1,left,2047,1,,half,,,1
8,138,,1,left,2564,0,106,full,-98,8,1
8,139,,1,left,1832,1,30,full,-60,-30,1
8,140,,1,left,2470,1,106,full,-98,8,1
8,141,,0,,3170,1,106,full,-98,8,1
8,142,,1,left,1977,1,106,full,-98,8,1
8,143,,1,left,1810,1,30,full,-60,-30,1
8,144,,0,,2138,1,30,full,-60,-30,1
8,145,L,1,right,2980,0,,half,,,1
8,146,,0,,2050,1,30,full,-60,-30,1
8,147,,1,left,2261,1,106,full,-98,8,1
8,148,R,0,,2624,1,,half,,,1
8,149,,1,right,3085,1,106,full,-98,8,1
8,150,,1,right,2032,1,106,full,-98,8,1
8,151,,1,right,1640,1,30,full,-60,-30,1
8,152,R,1,right,1827,1,,half,,,1
8,153,,0,,2162,1,30,full,-60,-30,1
8,154,,0,,2409,1,30,full,-60,-30,1
8,155,L,0,,4071,1,,half,,,1
8,156,,0,,2564,0,106,full,-98,8,1
8,157,R,1,left,2918,1,,half,,,1
8,158,R,0,,3488,1,,half,,,1
8,159,L,0,,3620,1,,half,,,1
8,160,R,1,right,1831,1,,half,,,1
8,161,,1,left,1702,1,30,full,-60,-30,1
8,162,L,1,left,3100,1,,half,,,1
8,163,,1,left,1721,1,30,full,-60,-30,1
8,164,,1,left,2640,1,106,full,-98,8,1
8,165,,1,left,2230,1,30,full,-60,-30,1
8,166,,0,,2149,1,30,full,-60,-30,1
8,167,,1,left,1661,1,30,full,-60,-30,1
8,168,R,1,left,2241,1,,half,,,1
8,169,,0,,3070,1,106,full,-98,8,1
8,170,,1,right,1726,1,30,full,-60,-30,1
8,171,,0,,2091,1,30,full,-60,-30,1
8,172,,1,right,1692,0,30,full,-60,-30,1
8,173,L,1,right,3055,0,,half,,,1
8,174,,1,right,2771,1,106,full,-98,8,1
8,175,,0,,3470,1,106,full,-98,8,1
8,176,R,1,right,1881,1,,half,,,1
8,177,R,1,right,1690,1,,half,,,1
8,178,,1,left,1982,1,106,full,-98,8,1
8,179,,0,,3070,1,106,full,-98,8,1
8,180,,1,right,1837,1,30,full,-60,-30,1
8,181,L,0,,3041,1,,half,,,1
8,182,R,1,right,1859,1,,half,,,1
8,183,,0,,2253,1,30,full,-60,-30,1
8,184,,0,,2981,1,106,full,-98,8,1
8,185,,0,,2031,1,30,full,-60,-30,1
8,186,,1,left,1933,1,106,full,-98,8,1
8,187,L,0,,3081,1,,half,,,1
8,188,,0,,6188,1,106,full,-98,8,1
8,189,R,0,,3977,1,,half,,,1
8,190,,0,,4024,1,106,full,-98,8,1
8,191,R,0,,2550,1,,half,,,1
8,192,L,1,left,1866,1,,half,,,1
8,193,,1,right,1655,1,30,full,-60,-30,1
8,194,,1,right,2361,0,106,full,-98,8,1
8,195,,1,left,1732,1,30,full,-60,-30,1
8,196,L,1,right,2271,1,,half,,,1
8,197,L,0,,2951,1,,half,,,1
8,198,,0,,2340,1,30,full,-60,-30,1
8,199,,1,right,2011,1,30,full,-60,-30,1
8,200,,1,right,1843,1,30,full,-60,-30,1
8,201,,1,right,3381,0,106,full,-98,8,1
8,202,,0,,3830,1,106,full,-98,8,1
8,203,,1,right,4538,0,106,full,-98,8,1
8,204,R,1,left,4212,0,,half,,,1
8,205,R,0,,4163,1,,half,,,1
8,206,L,0,,4259,1,,half,,,1
8,207,R,0,,2551,1,,half,,,1
8,208,,1,right,2328,1,106,full,-98,8,1
8,209,,1,right,1901,1,30,full,-60,-30,1
8,210,,1,left,1817,1,30,full,-60,-30,1
8,211,,0,,2538,1,30,full,-60,-30,1
8,212,L,0,,3170,1,,half,,,1
8,213,,0,,2081,1,30,full,-60,-30,1
8,214,,1,left,2141,1,106,full,-98,8,1
8,215,L,0,,3759,1,,half,,,1
8,216,,0,,2029,1,30,full,-60,-30,1
8,217,,0,,3764,1,106,full,-98,8,1
8,218,L,0,,3979,1,,half,,,1
8,219,,1,left,1980,1,30,full,-60,-30,1
8,220,R,1,right,1851,1,,half,,,1
8,221,R,1,right,1749,1,,half,,,1
8,222,L,1,right,1911,1,,half,,,1
8,223,,0,,2010,1,30,full,-60,-30,1
8,224,,0,,4658,1,106,full,-98,8,1
8,225,,0,,4506,1,106,full,-98,8,1
8,226,,0,,2919,1,106,full,-98,8,1
8,227,R,0,,3743,1,,half,,,1
8,228,L,0,,4947,1,,half,,,1
8,229,,1,left,2336,1,106,full,-98,8,1
8,230,,0,,2104,1,30,full,-60,-30,1
8,231,R,0,,4219,1,,half,,,1
8,232,,0,,1997,1,30,full,-60,-30,1
8,233,L,1,right,2910,0,,half,,,1
8,234,L,1,left,2111,1,,half,,,1
8,235,,1,left,2800,1,106,full,-98,8,1
8,236,,1,right,1754,1,30,full,-60,-30,1
8,237,R,0,,4159,1,,half,,,1
8,238,,1,left,1851,1,30,full,-60,-30,1
8,239,,1,right,3653,1,106,full,-98,8,1
8,240,R,0,,3326,1,,half,,,1
9,1,,1,left,6312,1,106,full,-98,8,1
9,2,,0,,5909,1,30,full,-60,-30,1
9,3,,1,right,6736,0,106,full,-98,8,1
9,4,,1,right,2139,1,30,full,-60,-30,1
9,5,,0,,3107,1,30,full,-60,-30,1
9,6,R,0,,4323,1,,half,,,1
9,7,R,0,,3420,1,,half,,,1
9,8,,0,,3651,1,106,full,-98,8,1
9,9,,0,,2661,1,30,full,-60,-30,1
9,10,,1,right,2431,0,30,full,-60,-30,1
9,11,L,1,left,1931,1,,half,,,1
9,12,,0,,2922,1,30,full,-60,-30,1
9,13,,1,left,2430,1,106,full,-98,8,1
9,14,,1,right,1922,1,30,full,-60,-30,1
9,15,,0,,3901,1,106,full,-98,8,1
9,16,,1,left,2109,1,106,full,-98,8,1
9,17,R,1,left,4340,0,,half,,,1
9,18,L,0,,3189,1,,half,,,1
9,19,L,1,right,4349,0,,half,,,1
9,20,R,0,,5559,1,,half,,,1
9,21,L,1,right,5179,0,,half,,,1
9,22,,1,right,3157,1,30,full,-60,-30,1
9,23,,1,left,2741,1,106,full,-98,8,1
9,24,,1,right,5851,1,106,full,-98,8,1
9,25,R,1,right,1682,1,,half,,,1
9,26,,1,right,1721,1,30,full,-60,-30,1
9,27,,0,,2861,1,30,full,-60,-30,1
9,28,L,0,,5336,1,,half,,,1
9,29,,0,,4064,1,106,full,-98,8,1
9,30,,0,,4730,1,106,full,-98,8,1
9,31,R,0,,6058,1,,half,,,1
9,32,,1,right,4446,1,106,full,-98,8,1
9,33,,1,right,5761,0,106,full,-98,8,1
9,34,,0,,2859,1,30,full,-60,-30,1
9,35,R,0,,3936,1,,half,,,1
9,36,L,0,,5230,1,,half,,,1
9,37,L,1,left,1900,1,,half,,,1
9,38,,1,right,2771,1,30,full,-60,-30,1
9,39,,0,,5330,1,106,full,-98,8,1
9,40,L,1,right,5139,0,,half,,,1
9,41,,0,,6506,1,106,full,-98,8,1
9,42,,1,left,3961,0,106,full,-98,8,1
9,43,R,1,right,4418,1,,half,,,1
9,44,R,0,,6336,1,,half,,,1
9,45,,1,left,1832,1,30,full,-60,-30,1
9,46,L,0,,5619,1,,half,,,1
9,47,,1,left,2990,1,106,full,-98,8,1
9,48,L,1,right,4840,0,,half,,,1
9,49,,0,,4829,1,106,full,-98,8,1
9,50,,0,,2957,1,30,full,-60,-30,1
9,51,,0,,3207,1,30,full,-60,-30,1
9,52,,1,right,5141,0,106,full,-98,8,1
9,53,,1,left,2230,1,106,full,-98,8,1
9,54,,0,,3791,1,30,full,-60,-30,1
9,55,,0,,5470,1,106,full,-98,8,1
9,56,,1,right,1912,1,30,full,-60,-30,1
9,57,,1,right,1573,1,30,full,-60,-30,1
9,58,,1,right,1563,1,30,full,-60,-30,1
9,59,L,0,,2891,1,,half,,,1
9,60,,1,right,1712,1,30,full,-60,-30,1
9,61,L,0,,6288,1,,half,,,1
9,62,L,1,left,2811,1,,half,,,1
9,63,,0,,3220,1,30,full,-60,-30,1
9,64,,0,,4780,1,106,full,-98,8,1
9,65,,1,left,2477,0,30,full,-60,-30,1
9,66,L,0,,3089,1,,half,,,1
9,67,,0,,3392,1,106,full,-98,8,1
9,68,,0,,4849,1,106,full,-98,8,1
9,69,,0,,3002,1,30,full,-60,-30,1
9,70,,1,left,4691,0,106,full,-98,8,1
9,71,,0,,3101,1,30,full,-60,-30,1
9,72,R,1,left,3424,0,,half,,,1
9,73,R,0,,4600,1,,half,,,1
9,74,,1,left,1743,1,30,full,-60,-30,1
9,75,R,1,right,2002,1,,half,,,1
9,76,L,0,,6288,1,,half,,,1
9,77,,1,left,1629,1,30,full,-60,-30,1
9,78,,1,right,2026,1,106,full,-98,8,1
9,79,,0,,3587,1,30,full,-60,-30,1
9,80,,0,,2781,1,30,full,-60,-30,1
9,81,,0,,3929,1,30,full,-60,-30,1
9,82,,0,,3291,1,30,full,-60,-30,1
9,83,R,0,,3871,1,,half,,,1
9,84,,0,,3773,1,30,full,-60,-30,1
9,85,,0,,4377,0,106,full,-98,8,1
9,86,,1,left,5269,0,106,full,-98,8,1
9,87,,1,right,4389,0,106,full,-98,8,1
9,88,,1,right,2610,1,106,full,-98,8,1
9,89,R,1,left,4069,1,,half,,,1
9,90,,1,right,1583,1,30,full,-60,-30,1
9,91,,1,right,6130,1,106,full,-98,8,1
9,92,L,0,,5667,1,,half,,,1
9,93,,0,,4517,1,106,full,-98,8,1
9,94,,0,,4739,1,106,full,-98,8,1
9,95,,0,,5367,1,106,full,-98,8,1
9,96,,1,left,1679,1,30,full,-60,-30,1
9,97,,1,left,3537,0,106,full,-98,8,1
9,98,,1,left,1824,1,30,full,-60,-30,1
9,99,,0,,4503,1,30,full,-60,-30,1
9,100,R,0,,6796,1,,half,,,1
9,101,,0,,7118,1,106,full,-98,8,1
9,102,L,1,left,2411,1,,half,,,1
9,103,,0,,3081,1,30,full,-60,-30,1
9,104,,1,left,1803,1,30,full,-60,-30,1
9,105,,0,,2611,1,30,full,-60,-30,1
9,106,,1,left,1639,1,30,full,-60,-30,1
9,107,,0,,6278,1,106,full,-98,8,1
9,108,L,1,right,4952,0,,half,,,1
9,109,L,1,right,1952,1,,half,,,1
9,110,,1,left,1633,1,30,full,-60,-30,1
9,111,,0,,2971,1,30,full,-60,-30,1
9,112,R,0,,6185,1,,half,,,1
9,113,R,0,,6200,1,,half,,,1
9,114,,0,,3130,1,30,full,-60,-30,1
9,115,,1,left,2345,1,30,full,-60,-30,1
9,116,,0,,8672,1,106,full,-98,8,1
9,117,,1,left,1801,1,30,full,-60,-30,1
9,118,,1,right,6714,0,106,full,-98,8,1
9,119,,1,left,6292,0,106,full,-98,8,1
9,120,L,1,right,8056,0,,half,,,1
9,121,R,1,right,1721,1,,half,,,1
9,122,,0,,2860,1,30,full,-60,-30,1
9,123,,1,left,1733,1,30,full,-60,-30,1
9,124,,0,,2282,1,30,full,-60,-30,1
9,125,,0,,4570,1,106,full,-98,8,1
9,126,R,1,right,1788,1,,half,,,1
9,127,,1,left,1978,1,106,full,-98,8,1
9,128,,1,right,1593,1,30,full,-60,-30,1
9,129,L,1,left,1583,1,,half,,,1
9,130,,0,,2811,1,30,full,-60,-30,1
9,131,L,1,left,1644,1,,half,,,1
9,132,,0,,3495,1,30,full,-60,-30,1
9,133,,0,,2076,1,30,full,-60,-30,1
9,134,,1,left,3164,1,106,full,-98,8,1
9,135,L,0,,4289,1,,half,,,1
9,136,,1,left,1751,1,30,full,-60,-30,1
9,137,,0,,3391,1,30,full,-60,-30,1
9,138,L,0,,6368,1,,half,,,1
9,139,,0,,3866,1,30,full,-60,-30,1
9,140,,0,,5884,1,106,full,-98,8,1
9,141,,1,right,1762,1,30,full,-60,-30,1
9,142,,0,,4364,1,106,full,-98,8,1
9,143,R,1,right,1620,1,,half,,,1
9,144,R,1,right,1662,1,,half,,,1
9,145,,1,right,1855,1,106,full,-98,8,1
9,146,R,0,,5546,1,,half,,,1
9,147,,1,right,2801,1,106,full,-98,8,1
9,148,,1,right,1621,1,30,full,-60,-30,1
9,149,L,0,,5609,1,,half,,,1
9,150,,1,right,1583,1,30,full,-60,-30,1
9,151,R,1,left,2648,1,,half,,,1
9,152,,1,left,1685,1,30,full,-60,-30,1
9,153,L,0,,5279,1,,half,,,1
9,154,,0,,6139,1,106,full,-98,8,1
9,155,,1,right,1832,1,30,full,-60,-30,1
9,156,L,0,,5234,1,,half,,,1
9,157,R,0,,4649,1,,half,,,1
9,158,,1,left,3091,1,106,full,-98,8,1
9,159,,1,right,1706,1,30,full,-60,-30,1
9,160,L,1,left,1593,1,,half,,,1
9,161,R,0,,4006,1,,half,,,1
9,162,L,1,right,3971,0,,half,,,1
9,163,R,0,,3495,1,,half,,,1
9,164,,0,,3191,1,106,full,-98,8,1
9,165,,0,,2811,1,30,full,-60,-30,1
9,166,L,1,left,1702,1,,half,,,1
9,167,R,1,right,3560,1,,half,,,1
9,168,,0,,2266,1,30,full,-60,-30,1
9,169,,0,,3460,1,106,full,-98,8,1
9,170,,0,,5011,1,106,full,-98,8,1
9,171,L,1,left,1715,1,,half,,,1
9,172,,1,right,1772,1,30,full,-60,-30,1
9,173,,1,right,4620,0,106,full,-98,8,1
9,174,,0,,6004,0,106,full,-98,8,1
9,175,,0,,2861,1,30,full,-60,-30,1
9,176,,1,right,1593,1,30,full,-60,-30,1
9,177,,0,,4101,1,106,full,-98,8,1
9,178,,1,right,3541,0,106,full,-98,8,1
9,179,,0,,5147,1,106,full,-98,8,1
9,180,,1,right,5879,0,106,full,-98,8,1
9,181,L,0,,4591,1,,half,,,1
9,182,,1,left,5781,0,106,full,-98,8,1
9,183,,1,left,4788,0,106,full,-98,8,1
9,184,R,0,,7196,1,,half,,,1
9,185,,0,,1901,1,30,full,-60,-30,1
9,186,,1,left,5810,1,106,full,-98,8,1
9,187,,1,right,6666,0,106,full,-98,8,1
9,188,L,0,,5678,1,,half,,,1
9,189,,0,,7496,1,106,full,-98,8,1
9,190,,0,,2082,1,30,full,-60,-30,1
9,191,,1,right,6405,0,106,full,-98,8,1
9,192,R,0,,7027,1,,half,,,1
9,193,R,1,left,5566,0,,half,,,1
9,194,,0,,3690,1,106,full,-98,8,1
9,195,,0,,2869,1,30,full,-60,-30,1
9,196,R,1,right,1792,1,,half,,,1
9,197,L,1,right,6629,0,,half,,,1
9,198,,0,,10043,1,106,full,-98,8,1
9,199,,0,,6532,1,106,full,-98,8,1
9,200,,0,,9966,1,106,full,-98,8,1
9,201,L,1,left,1901,1,,half,,,1
9,202,R,1,right,2824,1,,half,,,1
9,203,R,0,,6507,1,,half,,,1
9,204,,1,left,2272,1,30,full,-60,-30,1
9,205,,0,,8846,1,106,full,-98,8,1
9,206,L,1,left,1907,1,,half,,,1
9,207,R,1,right,2162,1,,half,,,1
9,208,,1,right,5010,1,106,full,-98,8,1
9,209,,0,,9065,1,106,full,-98,8,1
9,210,L,1,left,2095,1,,half,,,1
9,211,L,0,,7310,0,,half,,,1
9,212,L,0,,4846,1,,half,,,1
9,213,,1,left,1662,1,30,full,-60,-30,1
9,214,L,0,,4939,1,,half,,,1
9,215,,1,left,1583,1,30,full,-60,-30,1
9,216,,0,,2671,1,30,full,-60,-30,1
9,217,,0,,2113,1,30,full,-60,-30,1
9,218,,1,left,1851,1,30,full,-60,-30,1
9,219,,0,,1962,1,30,full,-60,-30,1
9,220,,0,,7687,1,106,full,-98,8,1
9,221,R,0,,6313,1,,half,,,1
9,222,L,0,,6319,1,,half,,,1
9,223,,1,left,1656,1,30,full,-60,-30,1
9,224,L,1,left,1752,1,,half,,,1
9,225,L,1,left,1662,1,,half,,,1
9,226,,1,right,1618,1,30,full,-60,-30,1
9,227,,0,,1943,1,30,full,-60,-30,1
9,228,,1,left,1582,1,30,full,-60,-30,1
9,229,L,0,,4161,1,,half,,,1
9,230,,1,left,1693,1,106,full,-98,8,1
9,231,,1,left,2292,1,106,full,-98,8,1
9,232,,0,,3331,1,106,full,-98,8,1
9,233,,0,,2080,1,30,full,-60,-30,1
9,234,,1,right,3974,0,106,full,-98,8,1
9,235,,1,right,4919,0,106,full,-98,8,1
9,236,R,1,left,4478,0,,half,,,1
9,237,,1,left,6321,1,106,full,-98,8,1
9,238,,0,,11871,0,106,full,-98,8,1
9,239,,0,,10488,1,106,full,-98,8,1
9,240,,0,,8367,1,106,full,-98,8,1
10,1,,1,right,5820,1,106,full,-98,8,1
10,2,R,1,right,7815,1,,half,,,1
10,3,,1,right,2270,1,30,full,-60,-30,1
10,4,,1,right,4108,1,106,full,-98,8,1
10,5,,0,,5559,1,30,full,-60,-30,1
10,6,,0,,4078,1,30,full,-60,-30,1
10,7,,0,,6078,1,30,full,-60,-30,1
10,8,R,1,right,2031,1,,half,,,1
10,9,,1,left,9115,0,106,full,-98,8,1
10,10,,0,,8326,1,106,full,-98,8,1
10,11,,1,right,1741,1,30,full,-60,-30,1
10,12,L,1,right,8255,1,,half,,,1
10,13,L,1,right,2079,1,,half,,,1
10,14,,0,,5230,1,30,full,-60,-30,1
10,15,,0,,7247,1,106,full,-98,8,1
10,16,R,0,,6817,1,,half,,,1
10,17,,0,,4070,1,30,full,-60,-30,1
10,18,,0,,7726,1,106,full,-98,8,1
10,19,,1,right,1889,1,30,full,-60,-30,1
10,20,,0,,6168,1,106,full,-98,8,1
10,21,,0,,5888,1,106,full,-98,8,1
10,22,,0,,3330,1,30,full,-60,-30,1
10,23,,1,left,1962,1,30,full,-60,-30,1
10,24,L,0,,5869,1,,half,,,1
10,25,,0,,5959,1,106,full,-98,8,1
10,26,L,1,right,7287,0,,half,,,1
10,27,R,1,left,4550,0,,half,,,1
10,28,,1,left,1881,1,30,full,-60,-30,1
10,29,,1,left,1852,1,30,full,-60,-30,1
10,30,,1,left,10430,1,106,full,-98,8,1
10,31,L,0,,6077,1,,half,,,1
10,32,,0,,5939,0,106,full,-98,8,1
10,33,R,0,,7354,1,,half,,,1
10,34,L,1,left,2211,1,,half,,,1
10,35,L,0,,5846,1,,half,,,1
10,36,,0,,2340,1,30,full,-60,-30,1
10,37,,1,right,2051,1,30,full,-60,-30,1
10,38,,1,right,2771,1,106,full,-98,8,1
10,39,,0,,2561,1,30,full,-60,-30,1
10,40,,1,left,1821,1,30,full,-60,-30,1
10,41,,1,right,6508,0,106,full,-98,8,1
10,42,,0,,2441,1,30,full,-60,-30,1
10,43,,1,left,13351,0,106,full,-98,8,1
10,44,,1,left,15050,0,106,full,-98,8,1
10,45,,0,,2440,1,30,full,-60,-30,1
10,46,,0,,6348,0,106,full,-98,8,1
10,47,,0,,2311,1,30,full,-60,-30,1
10,48,,1,right,13032,0,106,full,-98,8,1
10,49,R,1,right,2236,1,,half,,,1
10,50,,0,,10595,0,106,full,-98,8,1
10,51,,1,left,2021,1,30,full,-60,-30,1
10,52,L,0,,7517,1,,half,,,1
10,53,,1,left,6917,0,106,full,-98,8,1
10,54,,1,left,4619,1,106,full,-98,8,1
10,55,L,0,,5606,0,,half,,,1
10,56,L,1,left,2090,1,,half,,,1
10,57,,0,,13571,1,106,full,-98,8,1
10,58,,1,right,5689,0,106,full,-98,8,1
10,59,,0,,7522,1,106,full,-98,8,1
10,60,,0,,8216,1,106,full,-98,8,1
10,61,,1,right,1901,1,30,full,-60,-30,1
10,62,,1,left,1982,1,30,full,-60,-30,1
10,63,R,1,left,2051,1,,half,,,1
10,64,R,1,right,2171,1,,half,,,1
10,65,L,0,,5278,1,,half,,,1
10,66,,0,,3372,1,30,full,-60,-30,1
10,67,L,0,,5260,1,,half,,,1
10,68,,1,left,1851,1,30,full,-60,-30,1
10,69,,0,,2092,1,30,full,-60,-30,1
10,70,R,0,,3831,1,,half,,,1
10,71,,0,,5346,1,106,full,-98,8,1
10,72,,0,,3631,0,106,full,-98,8,1
10,73,,0,,2321,1,30,full,-60,-30,1
10,74,,0,,1842,1,30,full,-60,-30,1
10,75,R,0,,4560,1,,half,,,1
10,76,,1,right,6896,0,106,full,-98,8,1
10,77,,1,left,1921,1,30,full,-60,-30,1
10,78,,0,,1860,0,30,full,-60,-30,1
10,79,R,1,right,2151,1,,half,,,1
10,80,,0,,2012,1,30,full,-60,-30,1
10,81,,1,left,1841,1,30,full,-60,-30,1
10,82,R,0,,3511,1,,half,,,1
10,83,L,1,left,1894,1,,half,,,1
10,84,R,1,right,1942,1,,half,,,1
10,85,,0,,4240,1,106,full,-98,8,1
10,86,,0,,3291,1,30,full,-60,-30,1
10,87,L,0,,5859,1,,half,,,1
10,88,,1,left,6309,0,106,full,-98,8,1
10,89,,0,,1861,1,30,full,-60,-30,1
10,90,L,1,left,1913,1,,half,,,1
10,91,,1,left,2643,1,106,full,-98,8,1
10,92,R,0,,5826,1,,half,,,1
10,93,R,1,right,2042,1,,half,,,1
10,94,,1,left,1962,1,30,full,-60,-30,1
10,95,R,1,right,1790,1,,half,,,1
10,96,,1,left,1932,1,30,full,-60,-30,1
10,97,,1,right,1777,1,30,full,-60,-30,1
10,98,,0,,6618,1,106,full,-98,8,1
10,99,,1,right,6165,0,106,full,-98,8,1
10,100,,0,,6127,1,106,full,-98,8,1
10,101,R,0,,3254,1,,half,,,1
10,102,L,1,left,1872,1,,half,,,1
10,103,,1,left,6988,0,106,full,-98,8,1
10,104,,0,,2801,1,106,full,-98,8,1
10,105,R,0,,7486,1,,half,,,1
10,106,,1,left,1781,1,30,full,-60,-30,1
10,107,,0,,4429,1,106,full,-98,8,1
10,108,,1,left,1750,1,30,full,-60,-30,1
10,109,,1,left,1893,1,30,full,-60,-30,1
10,110,L,1,left,1772,1,,half,,,1
10,111,,1,left,2770,0,106,full,-98,8,1
10,112,,1,right,1901,1,30,full,-60,-30,1
10,113,L,1,left,1882,1,,half,,,1
10,114,,1,right,2571,1,106,full,-98,8,1
10,115,R,1,left,5389,0,,half,,,1
10,116,R,1,right,2471,1,,half,,,1
10,117,,0,,2299,1,30,full,-60,-30,1
10,118,,0,,6608,1,106,full,-98,8,1
10,119,,0,,2481,1,30,full,-60,-30,1
10,120,L,0,,6129,1,,half,,,1
10,121,L,0,,3890,1,,half,,,1
10,122,L,1,right,2811,0,,half,,,1
10,123,,0,,7707,1,106,full,-98,8,1
10,124,,0,,7334,1,106,full,-98,8,1
10,125,,0,,1921,1,30,full,-60,-30,1
10,126,,0,,5239,1,106,full,-98,8,1
10,127,L,0,,5609,1,,half,,,1
10,128,,1,right,1972,1,30,full,-60,-30,1
10,129,,0,,2559,1,30,full,-60,-30,1
10,130,,1,right,2342,1,30,full,-60,-30,1
10,131,,0,,1852,1,30,full,-60,-30,1
10,132,,1,left,3119,1,106,full,-98,8,1
10,133,,0,,1903,1,30,full,-60,-30,1
10,134,,1,left,2831,0,106,full,-98,8,1
10,135,,0,,2031,1,30,full,-60,-30,1
10,136,,1,left,1692,1,30,full,-60,-30,1
10,137,,0,,1917,1,30,full,-60,-30,1
10,138,,1,right,1742,1,30,full,-60,-30,1
10,139,L,0,,5103,1,,half,,,1
10,140,R,0,,6416,1,,half,,,1
10,141,,0,,3889,1,106,full,-98,8,1
10,142,R,0,,5668,1,,half,,,1
10,143,L,1,left,1902,1,,half,,,1
10,144,R,1,left,3910,0,,half,,,1
10,145,L,1,right,4389,0,,half,,,1
10,146,R,0,,4680,1,,half,,,1
10,147,,0,,6219,1,106,full,-98,8,1
10,148,,1,right,2410,1,30,full,-60,-30,1
10,149,R,0,,2382,1,,half,,,1
10,150,,0,,2255,1,106,full,-98,8,1
10,151,L,1,left,1881,1,,half,,,1
10,152,,1,left,4478,0,106,full,-98,8,1
10,153,,0,,6468,1,106,full,-98,8,1
10,154,L,0,,4872,1,,half,,,1
10,155,,1,right,1801,1,30,full,-60,-30,1
10,156,L,1,right,4189,0,,half,,,1
10,157,,1,right,1668,1,30,full,-60,-30,1
10,158,,0,,1968,1,30,full,-60,-30,1
10,159,R,0,,7197,1,,half,,,1
10,160,,0,,4628,1,106,full,-98,8,1
10,161,,1,right,1792,1,30,full,-60,-30,1
10,162,,1,right,2121,0,106,full,-98,8,1
10,163,,1,left,1931,1,30,full,-60,-30,1
10,164,,0,,3330,1,106,full,-98,8,1
10,165,,1,right,1648,1,30,full,-60,-30,1
10,166,,1,right,1902,1,30,full,-60,-30,1
10,167,,0,,1832,1,30,full,-60,-30,1
10,168,,1,left,1722,1,30,full,-60,-30,1
10,169,,0,,1842,1,30,full,-60,-30,1
10,170,R,1,right,1942,1,,half,,,1
10,171,L,1,left,1882,1,,half,,,1
10,172,,0,,4420,1,106,full,-98,8,1
10,173,L,0,,3511,1,,half,,,1
10,174,R,0,,2891,1,,half,,,1
10,175,L,0,,2470,0,,half,,,1
10,176,,0,,2350,1,30,full,-60,-30,1
10,177,,1,right,3068,0,106,full,-98,8,1
10,178,,1,right,2795,0,106,full,-98,8,1
10,179,,0,,3700,1,106,full,-98,8,1
10,180,,0,,1921,1,30,full,-60,-30,1
10,181,,1,left,4120,0,106,full,-98,8,1
10,182,R,0,,4069,1,,half,,,1
10,183,,1,right,1843,1,30,full,-60,-30,1
10,184,,1,left,1862,1,30,full,-60,-30,1
10,185,R,1,left,5869,0,,half,,,1
10,186,,0,,5319,1,106,full,-98,8,1
10,187,R,0,,2681,1,,half,,,1
10,188,,1,left,3820,0,106,full,-98,8,1
10,189,L,1,right,2960,0,,half,,,1
10,190,,0,,6888,1,106,full,-98,8,1
10,191,,0,,2123,1,30,full,-60,-30,1
10,192,,1,left,2691,1,106,full,-98,8,1
10,193,L,1,left,1978,1,,half,,,1
10,194,,0,,1962,1,30,full,-60,-30,1
10,195,,0,,2271,1,106,full,-98,8,1
10,196,,1,right,2560,0,106,full,-98,8,1
10,197,R,0,,3270,1,,half,,,1
10,198,,0,,2590,1,106,full,-98,8,1
10,199,,0,,1933,1,106,full,-98,8,1
10,200,L,1,left,1812,1,,half,,,1
10,201,R,1,right,1714,1,,half,,,1
10,202,,1,left,2620,0,106,full,-98,8,1
10,203,,1,right,1792,0,106,full,-98,8,1
10,204,,1,left,2340,1,106,full,-98,8,1
10,205,L,0,,3111,1,,half,,,1
10,206,L,1,left,1691,1,,half,,,1
10,207,,0,,3010,1,106,full,-98,8,1
10,208,R,1,left,2362,0,,half,,,1
10,209,R,0,,4518,1,,half,,,1
10,210,R,0,,2965,1,,half,,,1
10,211,,1,right,2100,1,30,full,-60,-30,1
10,212,,1,right,1941,0,106,full,-98,8,1
10,213,,1,right,4549,1,106,full,-98,8,1
10,214,,0,,2002,1,30,full,-60,-30,1
10,215,L,1,right,3671,0,,half,,,1
10,216,,0,,1861,1,30,full,-60,-30,1
10,217,,1,right,7005,0,106,full,-98,8,1
10,218,L,0,,3007,1,,half,,,1
10,219,L,0,,1932,1,,half,,,1
10,220,,1,right,2911,0,106,full,-98,8,1
10,221,,0,,2491,1,106,full,-98,8,1
10,222,L,1,right,3401,0,,half,,,1
10,223,,1,right,5269,0,106,full,-98,8,1
10,224,L,1,left,1792,1,,half,,,1
10,225,,1,right,3701,0,106,full,-98,8,1
10,226,,0,,1921,1,30,full,-60,-30,1
10,227,,1,right,1862,1,30,full,-60,-30,1
10,228,,0,,2231,1,106,full,-98,8,1
10,229,,1,left,1702,1,30,full,-60,-30,1
10,230,,0,,1886,1,30,full,-60,-30,1
10,231,,1,left,2272,0,106,full,-98,8,1
10,232,,0,,2782,1,106,full,-98,8,1
10,233,L,0,,3611,1,,half,,,1
10,234,,0,,1809,1,30,full,-60,-30,1
10,235,L,0,,3221,1,,half,,,1
10,236,L,0,,1911,1,,half,,,1
10,237,,1,left,2021,1,106,full,-98,8,1
10,238,,1,right,1801,1,30,full,-60,-30,1
10,239,,1,left,1580,1,30,full,-60,-30,1
10,240,,0,,2003,1,30,full,-60,-30,1
11,1,R,1,left,8636,1,,half,,,1
11,2,L,0,,8425,1,,half,,,1
11,3,,1,right,3230,0,30,full,-60,-30,1
11,4,R,1,right,3089,1,,half,,,1
11,5,,1,right,2840,1,30,full,-60,-30,1
11,6,,1,left,5682,0,106,full,-98,8,1
11,7,,1,left,2531,1,30,full,-60,-30,1
11,8,,1,left,2535,1,30,full,-60,-30,1
11,9,R,0,,7006,1,,half,,,1
11,10,,1,right,2282,1,30,full,-60,-30,1
11,11,L,0,,7777,1,,half,,,1
11,12,L,0,,5978,1,,half,,,1
11,13,,0,,6059,1,106,full,-98,8,1
11,14,R,0,,6858,1,,half,,,1
11,15,,1,right,3440,1,106,full,-98,8,1
11,16,,0,,6285,1,30,full,-60,-30,1
11,17,,0,,5309,1,30,full,-60,-30,1
11,18,,1,left,7298,0,106,full,-98,8,1
11,19,,0,,5419,1,30,full,-60,-30,1
11,20,,0,,6948,1,30,full,-60,-30,1
11,21,,1,right,2650,1,30,full,-60,-30,1
11,22,,0,,7109,1,30,full,-60,-30,1
11,23,,0,,6632,1,106,full,-98,8,1
11,24,,1,right,3969,1,106,full,-98,8,1
11,25,L,0,,8496,1,,half,,,1
11,26,L,1,left,2471,1,,half,,,1
11,27,,0,,4920,1,30,full,-60,-30,1
11,28,L,1,left,2361,1,,half,,,1
11,29,L,0,,7216,1,,half,,,1
11,30,,0,,5569,1,30,full,-60,-30,1
11,31,L,0,,9314,1,,half,,,1
11,32,,1,left,11263,0,106,full,-98,8,1
11,33,,1,left,13701,0,106,full,-98,8,1
11,34,,0,,11373,1,106,full,-98,8,1
11,35,,0,,5669,1,30,full,-60,-30,1
11,36,,1,left,4252,1,106,full,-98,8,1
11,37,L,1,right,6957,0,,half,,,1
11,38,,1,right,2271,1,30,full,-60,-30,1
11,39,L,0,,7467,1,,half,,,1
11,40,R,1,right,2062,1,,half,,,1
11,41,,0,,8114,1,106,full,-98,8,1
11,42,R,0,,9232,1,,half,,,1
11,43,,0,,11444,1,106,full,-98,8,1
11,44,,0,,10601,1,106,full,-98,8,1
11,45,R,1,right,2170,1,,half,,,1
11,46,L,0,,8965,1,,half,,,1
11,47,,1,right,7803,0,106,full,-98,8,1
11,48,R,1,right,2042,1,,half,,,1
11,49,,0,,3840,1,30,full,-60,-30,1
11,50,R,0,,8035,1,,half,,,1
11,51,,1,right,2421,1,30,full,-60,-30,1
11,52,,1,right,9244,1,106,full,-98,8,1
11,53,,1,right,7726,1,106,full,-98,8,1
11,54,,0,,10195,1,106,full,-98,8,1
11,55,,0,,9486,1,106,full,-98,8,1
11,56,,1,right,10430,0,106,full,-98,8,1
11,57,R,1,right,1990,1,,half,,,1
11,58,,1,right,3570,1,30,full,-60,-30,1
11,59,,1,right,2091,1,30,full,-60,-30,1
11,60,,1,left,2282,1,30,full,-60,-30,1
11,61,,1,left,1901,1,30,full,-60,-30,1
11,62,,0,,5639,1,30,full,-60,-30,1
11,63,,1,left,3600,1,106,full,-98,8,1
11,64,,0,,3332,1,30,full,-60,-30,1
11,65,,1,right,2280,1,106,full,-98,8,1
11,66,,1,left,2052,1,30,full,-60,-30,1
11,67,,0,,11903,1,106,full,-98,8,1
11,68,,1,right,2282,1,106,full,-98,8,1
11,69,L,1,left,1917,1,,half,,,1
11,70,L,0,,5073,1,,half,,,1
11,71,,1,right,6798,0,106,full,-98,8,1
11,72,,1,left,2402,1,30,full,-60,-30,1
11,73,,0,,6070,1,106,full,-98,8,1
11,74,,0,,6836,1,30,full,-60,-30,1
11,75,,1,left,2371,1,106,full,-98,8,1
11,76,,0,,5149,1,30,full,-60,-30,1
11,77,L,1,left,1982,1,,half,,,1
11,78,,0,,6937,1,106,full,-98,8,1
11,79,R,0,,5798,0,,half,,,1
11,80,,0,,7965,1,106,full,-98,8,1
11,81,,1,left,1961,1,30,full,-60,-30,1
11,82,,1,left,3980,1,106,full,-98,8,1
11,83,,1,right,1881,1,30,full,-60,-30,1
11,84,,1,left,1761,1,106,full,-98,8,1
11,85,,0,,4100,1,30,full,-60,-30,1
11,86,,0,,8226,1,106,full,-98,8,1
11,87,,0,,4252,1,30,full,-60,-30,1
11,88,,1,right,4048,1,106,full,-98,8,1
11,89,R,0,,8976,1,,half,,,1
11,90,L,1,left,1860,1,,half,,,1
11,91,,1,left,1952,1,30,full,-60,-30,1
11,92,,0,,9695,1,106,full,-98,8,1
11,93,,1,right,10229,0,106,full,-98,8,1
11,94,R,1,left,4307,1,,half,,,1
11,95,,1,left,2127,1,30,full,-60,-30,1
11,96,L,1,right,10630,0,,half,,,1
11,97,,1,left,2182,1,106,full,-98,8,1
11,98,,0,,3773,0,30,full,-60,-30,1
11,99,,1,left,2342,1,30,full,-60,-30,1
11,100,L,0,,5318,1,,half,,,1
11,101,,1,right,2501,1,30,full,-60,-30,1
11,102,R,1,right,1861,1,,half,,,1
11,103,,0,,3161,1,30,full,-60,-30,1
11,104,L,1,left,2709,1,,half,,,1
11,105,,0,,10645,1,106,full,-98,8,1
11,106,,1,left,2390,1,106,full,-98,8,1
11,107,,0,,5479,1,106,full,-98,8,1
11,108,L,1,left,1792,1,,half,,,1
11,109,L,0,,7357,1,,half,,,1
11,110,R,1,right,2495,1,,half,,,1
11,111,L,1,left,2096,1,,half,,,1
11,112,L,0,,4409,1,,half,,,1
11,113,,0,,9386,1,106,full,-98,8,1
11,114,L,1,left,1912,1,,half,,,1
11,115,,1,left,1821,1,30,full,-60,-30,1
11,116,R,0,,4499,1,,half,,,1
11,117,,0,,7987,1,106,full,-98,8,1
11,118,R,1,right,2681,1,,half,,,1
11,119,L,0,,4469,1,,half,,,1
11,120,R,0,,5258,1,,half,,,1
11,121,,1,left,2752,1,106,full,-98,8,1
11,122,R,0,,5119,1,,half,,,1
11,123,,0,,6109,1,106,full,-98,8,1
11,124,L,0,,6870,1,,half,,,1
11,125,,1,right,2960,1,30,full,-60,-30,1
11,126,,0,,5237,1,30,full,-60,-30,1
11,127,,1,left,2162,1,106,full,-98,8,1
11,128,,1,left,2146,1,106,full,-98,8,1
11,129,,1,right,7420,0,106,full,-98,8,1
11,130,,1,right,12183,1,106,full,-98,8,1
11,131,,0,,10304,1,106,full,-98,8,1
11,132,,0,,6508,1,30,full,-60,-30,1
11,133,,0,,3340,1,30,full,-60,-30,1
11,134,L,1,right,7969,0,,half,,,1
11,135,,1,left,3030,1,106,full,-98,8,1
11,136,,0,,3120,1,30,full,-60,-30,1
11,137,,0,,12531,1,106,full,-98,8,1
11,138,,0,,8707,1,106,full,-98,8,1
11,139,L,0,,6118,1,,half,,,1
11,140,,0,,2509,1,30,full,-60,-30,1
11,141,L,0,,9524,1,,half,,,1
11,142,L,1,left,2381,1,,half,,,1
11,143,,0,,9186,1,106,full,-98,8,1
11,144,,0,,6898,1,106,full,-98,8,1
11,145,,0,,2352,1,30,full,-60,-30,1
11,146,L,1,right,2496,1,,half,,,1
11,147,R,1,left,3591,1,,half,,,1
11,148,,0,,9156,1,106,full,-98,8,1
11,149,,0,,8587,1,106,full,-98,8,1
11,150,,0,,2232,1,30,full,-60,-30,1
11,151,R,0,,7229,1,,half,,,1
11,152,,1,right,5779,1,106,full,-98,8,1
11,153,,1,right,1912,1,30,full,-60,-30,1
11,154,,1,right,1792,1,30,full,-60,-30,1
11,155,,1,left,2611,1,106,full,-98,8,1
11,156,R,1,right,1692,1,,half,,,1
11,157,,0,,4878,1,30,full,-60,-30,1
11,158,,1,right,1782,1,30,full,-60,-30,1
11,159,,0,,4640,1,30,full,-60,-30,1
11,160,,0,,7106,1,106,full,-98,8,1
11,161,,0,,4989,1,30,full,-60,-30,1
11,162,,0,,9175,1,106,full,-98,8,1
11,163,,1,right,1882,1,30,full,-60,-30,1
11,164,R,0,,3779,1,,half,,,1
11,165,,0,,2491,1,30,full,-60,-30,1
11,166,,1,right,1688,1,30,full,-60,-30,1
11,167,,0,,4140,1,30,full,-60,-30,1
11,168,,1,right,2322,1,106,full,-98,8,1
11,169,R,0,,6574,1,,half,,,1
11,170,,0,,2472,1,30,full,-60,-30,1
11,171,,0,,2761,1,30,full,-60,-30,1
11,172,L,1,left,2333,1,,half,,,1
11,173,,0,,5449,1,106,full,-98,8,1
11,174,L,1,left,2930,1,,half,,,1
11,175,L,0,,4089,1,,half,,,1
11,176,,0,,5118,1,106,full,-98,8,1
11,177,,1,left,1811,1,30,full,-60,-30,1
11,178,,1,left,1638,1,30,full,-60,-30,1
11,179,,0,,2541,1,30,full,-60,-30,1
11,180,,0,,4110,1,106,full,-98,8,1
11,181,R,0,,4200,1,,half,,,1
11,182,R,1,right,1921,1,,half,,,1
11,183,,1,left,1762,1,30,full,-60,-30,1
11,184,,1,right,1573,1,30,full,-60,-30,1
11,185,,0,,2530,1,106,full,-98,8,1
11,186,,0,,3176,1,30,full,-60,-30,1
11,187,,0,,2921,1,30,full,-60,-30,1
11,188,,0,,2701,1,30,full,-60,-30,1
11,189,,1,right,1839,1,106,full,-98,8,1
11,190,,0,,2311,1,30,full,-60,-30,1
11,191,,1,right,1901,1,106,full,-98,8,1
11,192,,1,left,1633,1,30,full,-60,-30,1
11,193,,1,right,1930,1,106,full,-98,8,1
11,194,,0,,2291,1,30,full,-60,-30,1
11,195,,0,,2728,1,30,full,-60,-30,1
11,196,R,1,left,2131,1,,half,,,1
11,197,L,1,right,1742,1,,half,,,1
11,198,R,1,left,5869,1,,half,,,1
11,199,R,1,right,2772,1,,half,,,1
11,200,,0,,2382,1,30,full,-60,-30,1
11,201,,1,right,1761,1,30,full,-60,-30,1
11,202,,1,left,2111,1,106,full,-98,8,1
11,203,,1,left,1621,1,30,full,-60,-30,1
11,204,,1,left,2172,1,106,full,-98,8,1
11,205,,1,left,1841,1,106,full,-98,8,1
11,206,L,0,,3438,1,,half,,,1
11,207,L,1,right,2312,1,,half,,,1
11,208,,0,,2362,1,30,full,-60,-30,1
11,209,R,0,,4089,1,,half,,,1
11,210,,0,,5115,1,106,full,-98,8,1
11,211,L,1,left,1901,1,,half,,,1
11,212,,0,,3951,1,106,full,-98,8,1
11,213,L,0,,4084,1,,half,,,1
11,214,,0,,6498,1,106,full,-98,8,1
11,215,,1,left,1782,1,30,full,-60,-30,1
11,216,,0,,4298,1,106,full,-98,8,1
11,217,,1,left,5878,0,106,full,-98,8,1
11,218,,0,,6375,1,106,full,-98,8,1
11,219,L,0,,5069,1,,half,,,1
11,220,L,0,,5060,1,,half,,,1
11,221,R,0,,5319,1,,half,,,1
11,222,L,1,right,4602,0,,half,,,1
11,223,,0,,10235,1,106,full,-98,8,1
11,224,,1,left,2032,1,30,full,-60,-30,1
11,225,,1,right,2422,1,106,full,-98,8,1
11,226,L,1,right,6808,0,,half,,,1
11,227,,0,,8437,1,106,full,-98,8,1
11,228,L,1,right,6037,0,,half,,,1
11,229,R,0,,7316,1,,half,,,1
11,230,,1,right,1961,1,30,full,-60,-30,1
11,231,R,0,,6439,1,,half,,,1
11,232,,1,left,1831,1,30,full,-60,-30,1
11,233,,1,right,6368,0,106,full,-98,8,1
11,234,R,0,,7726,1,,half,,,1
11,235,L,1,left,2012,1,,half,,,1
11,236,,1,right,1841,1,30,full,-60,-30,1
11,237,,1,left,2781,1,30,full,-60,-30,1
11,238,R,1,left,2072,1,,half,,,1
11,239,,0,,5718,1,106,full,-98,8,1
11,240,R,0,,6298,1,,half,,,1
12,1,L,1,left,3011,1,,half,,,1
12,2,,0,,4495,1,106,full,-98,8,1
12,3,,0,,2892,1,30,full,-60,-30,1
12,4,,0,,3697,1,30,full,-60,-30,1
12,5,,1,right,1699,1,30,full,-60,-30,1
12,6,,0,,2217,1,30,full,-60,-30,1
12,7,R,1,left,4145,0,,half,,,1
12,8,,0,,4397,1,106,full,-98,8,1
12,9,,1,right,1780,1,30,full,-60,-30,1
12,10,,0,,5067,1,106,full,-98,8,1
12,11,R,1,right,1819,1,,half,,,1
12,12,L,1,right,1739,1,,half,,,1
12,13,R,0,,3538,1,,half,,,1
12,14,L,1,right,3088,1,,half,,,1
12,15,,1,left,2098,1,30,full,-60,-30,1
12,16,,0,,4337,1,106,full,-98,8,1
12,17,,0,,2979,1,30,full,-60,-30,1
12,18,L,1,left,1708,1,,half,,,1
12,19,,1,right,1649,1,30,full,-60,-30,1
12,20,R,0,,4207,1,,half,,,1
12,21,R,0,,3048,1,,half,,,1
12,22,R,1,right,2199,1,,half,,,1
12,23,,1,left,1659,1,30,full,-60,-30,1
12,24,L,0,,3268,1,,half,,,1
12,25,,1,right,2220,1,106,full,-98,8,1
12,26,R,1,right,1627,1,,half,,,1
12,27,,0,,2858,1,106,full,-98,8,1
12,28,R,0,,4576,1,,half,,,1
12,29,,1,left,3661,1,106,full,-98,8,1
12,30,,1,right,1750,1,30,full,-60,-30,1
12,31,L,0,,3287,1,,half,,,1
12,32,L,0,,3489,1,,half,,,1
12,33,,1,left,2619,1,106,full,-98,8,1
12,34,,0,,2468,1,30,full,-60,-30,1
12,35,,0,,2509,1,30,full,-60,-30,1
12,36,,0,,4034,1,106,full,-98,8,1
12,37,,1,left,2722,1,106,full,-98,8,1
12,38,,0,,4597,1,106,full,-98,8,1
12,39,,1,left,1738,1,30,full,-60,-30,1
12,40,R,0,,3787,1,,half,,,1
12,41,,1,right,2139,1,106,full,-98,8,1
12,42,,1,right,1578,1,30,full,-60,-30,1
12,43,,1,left,1533,1,30,full,-60,-30,1
12,44,,1,right,1620,1,30,full,-60,-30,1
12,45,,1,right,1539,1,30,full,-60,-30,1
12,46,L,1,left,1570,1,,half,,,1
12,47,R,1,right,1569,1,,half,,,1
12,48,,1,left,1520,1,30,full,-60,-30,1
12,49,,0,,5157,1,106,full,-98,8,1
12,50,R,1,left,4128,0,,half,,,1
12,51,L,0,,4455,1,,half,,,1
12,52,R,0,,3988,1,,half,,,1
12,53,,1,right,5107,0,106,full,-98,8,1
12,54,R,1,right,1637,1,,half,,,1
12,55,L,1,right,2069,1,,half,,,1
12,56,L,0,,6336,1,,half,,,1
12,57,,0,,2648,1,30,full,-60,-30,1
12,58,,0,,2669,1,30,full,-60,-30,1
12,59,,0,,6816,1,106,full,-98,8,1
12,60,L,1,left,1649,1,,half,,,1
12,61,,1,left,3787,1,106,full,-98,8,1
12,62,,0,,3295,1,30,full,-60,-30,1
12,63,L,1,right,1840,1,,half,,,1
12,64,,1,left,1586,1,30,full,-60,-30,1
12,65,,1,left,1609,1,30,full,-60,-30,1
12,66,,1,left,1659,1,30,full,-60,-30,1
12,67,,1,left,5866,0,106,full,-98,8,1
12,68,L,1,left,1620,1,,half,,,1
12,69,,1,right,2168,1,106,full,-98,8,1
12,70,,0,,2799,1,30,full,-60,-30,1
12,71,,0,,2687,1,30,full,-60,-30,1
12,72,,0,,2378,1,30,full,-60,-30,1
12,73,,0,,2308,1,30,full,-60,-30,1
12,74,,0,,6166,1,106,full,-98,8,1
12,75,L,1,right,2388,1,,half,,,1
12,76,,0,,2907,1,30,full,-60,-30,1
12,77,,1,right,1940,1,30,full,-60,-30,1
12,78,,0,,2998,1,30,full,-60,-30,1
12,79,,1,left,5266,1,106,full,-98,8,1
12,80,R,0,,6346,1,,half,,,1
12,81,,0,,5675,1,106,full,-98,8,1
12,82,,0,,2029,1,30,full,-60,-30,1
12,83,,0,,5162,1,106,full,-98,8,1
12,84,,0,,4527,1,106,full,-98,8,1
12,85,,1,right,1829,1,30,full,-60,-30,1
12,86,,1,right,1760,1,106,full,-98,8,1
12,87,,0,,2418,1,30,full,-60,-30,1
12,88,L,0,,4656,1,,half,,,1
12,89,,0,,2918,1,30,full,-60,-30,1
12,90,,0,,2589,1,30,full,-60,-30,1
12,91,,0,,2298,1,30,full,-60,-30,1
12,92,,1,left,7354,0,106,full,-98,8,1
12,93,L,1,right,4406,0,,half,,,1
12,94,,1,left,1639,1,30,full,-60,-30,1
12,95,L,0,,5716,1,,half,,,1
12,96,,1,left,1666,1,30,full,-60,-30,1
12,97,,1,right,1719,1,30,full,-60,-30,1
12,98,,0,,6915,1,106,full,-98,8,1
12,99,,1,left,6765,0,106,full,-98,8,1
12,100,L,0,,5174,1,,half,,,1
12,101,R,1,right,2388,1,,half,,,1
12,102,,0,,7763,1,106,full,-98,8,1
12,103,,1,right,1750,1,30,full,-60,-30,1
12,104,,0,,2417,1,30,full,-60,-30,1
12,105,,1,right,2098,1,106,full,-98,8,1
12,106,,1,left,1630,1,30,full,-60,-30,1
12,107,L,1,left,1670,1,,half,,,1
12,108,,1,left,1548,1,30,full,-60,-30,1
12,109,R,0,,4356,1,,half,,,1
12,110,,0,,6646,1,106,full,-98,8,1
12,111,,0,,5596,1,106,full,-98,8,1
12,112,,1,right,4806,0,106,full,-98,8,1
12,113,,1,right,5706,0,106,full,-98,8,1
12,114,,0,,8369,1,106,full,-98,8,1
12,115,,0,,7394,1,106,full,-98,8,1
12,116,,1,left,7070,0,106,full,-98,8,1
12,117,,1,left,10013,0,106,full,-98,8,1
12,118,,1,right,1730,1,30,full,-60,-30,1
12,119,,1,right,2259,1,106,full,-98,8,1
12,120,R,0,,6156,1,,half,,,1
12,121,,0,,2108,1,30,full,-60,-30,1
12,122,R,1,right,1710,1,,half,,,1
12,123,,1,left,1770,1,106,full,-98,8,1
12,124,,0,,1798,1,30,full,-60,-30,1
12,125,L,1,left,1519,1,,half,,,1
12,126,,1,left,4577,0,106,full,-98,8,1
12,127,,1,right,6453,0,106,full,-98,8,1
12,128,,1,left,1639,1,30,full,-60,-30,1
12,129,R,1,right,1749,1,,half,,,1
12,130,L,1,left,1528,1,,half,,,1
12,131,,0,,2188,1,30,full,-60,-30,1
12,132,L,0,,4387,1,,half,,,1
12,133,,1,left,8214,0,106,full,-98,8,1
12,134,,0,,8254,1,106,full,-98,8,1
12,135,,1,right,7574,0,106,full,-98,8,1
12,136,,1,right,11740,0,106,full,-98,8,1
12,137,,0,,7704,1,106,full,-98,8,1
12,138,L,0,,5167,1,,half,,,1
12,139,,1,right,1859,1,30,full,-60,-30,1
12,140,,1,right,3378,1,106,full,-98,8,1
12,141,,0,,6833,1,106,full,-98,8,1
12,142,,0,,2648,1,30,full,-60,-30,1
12,143,,0,,1929,1,30,full,-60,-30,1
12,144,,1,right,1740,1,30,full,-60,-30,1
12,145,,1,right,1609,1,30,full,-60,-30,1
12,146,,1,right,1699,1,106,full,-98,8,1
12,147,,1,left,1549,1,30,full,-60,-30,1
12,148,L,1,right,4048,0,,half,,,1
12,149,L,0,,4967,1,,half,,,1
12,150,L,0,,4756,1,,half,,,1
12,151,L,0,,4815,1,,half,,,1
12,152,,0,,7573,1,106,full,-98,8,1
12,153,,1,left,1758,1,30,full,-60,-30,1
12,154,,0,,2028,1,30,full,-60,-30,1
12,155,,1,left,1509,1,30,full,-60,-30,1
12,156,,1,right,1530,1,30,full,-60,-30,1
12,157,,1,right,2458,1,106,full,-98,8,1
12,158,,1,right,1469,1,30,full,-60,-30,1
12,159,R,0,,4975,1,,half,,,1
12,160,L,1,left,1678,1,,half,,,1
12,161,L,0,,5215,1,,half,,,1
12,162,,1,right,4327,1,106,full,-98,8,1
12,163,,1,left,1619,1,30,full,-60,-30,1
12,164,,0,,2269,1,30,full,-60,-30,1
12,165,,0,,2178,1,30,full,-60,-30,1
12,166,,0,,5486,1,106,full,-98,8,1
12,167,,1,left,1690,1,106,full,-98,8,1
12,168,R,1,left,1529,1,,half,,,1
12,169,,0,,6495,1,106,full,-98,8,1
12,170,L,1,left,1658,1,,half,,,1
12,171,,1,left,1818,1,106,full,-98,8,1
12,172,R,1,left,1818,1,,half,,,1
12,173,,0,,5856,1,106,full,-98,8,1
12,174,L,0,,5476,1,,half,,,1
12,175,,0,,6096,1,106,full,-98,8,1
12,176,R,0,,5737,1,,half,,,1
12,177,L,0,,5826,1,,half,,,1
12,178,L,1,left,2170,1,,half,,,1
12,179,,0,,5226,1,106,full,-98,8,1
12,180,,0,,2248,1,30,full,-60,-30,1
12,181,L,1,left,1730,1,,half,,,1
12,182,,1,right,2074,1,106,full,-98,8,1
12,183,L,0,,3936,1,,half,,,1
12,184,L,0,,3896,1,,half,,,1
12,185,,0,,2259,1,30,full,-60,-30,1
12,186,R,0,,4118,1,,half,,,1
12,187,,1,left,1838,1,30,full,-60,-30,1
12,188,,1,left,1670,1,30,full,-60,-30,1
12,189,R,0,,4027,1,,half,,,1
12,190,R,1,right,1619,1,,half,,,1
12,191,,0,,4336,1,106,full,-98,8,1
12,192,,0,,2138,1,30,full,-60,-30,1
12,193,R,0,,4797,1,,half,,,1
12,194,L,0,,4417,1,,half,,,1
12,195,,1,left,5026,0,106,full,-98,8,1
12,196,,0,,2158,1,30,full,-60,-30,1
12,197,,1,right,5895,0,106,full,-98,8,1
12,198,,0,,5846,1,106,full,-98,8,1
12,199,,0,,2457,1,30,full,-60,-30,1
12,200,,0,,4646,1,106,full,-98,8,1
12,201,,0,,4517,1,106,full,-98,8,1
12,202,,1,left,2728,1,106,full,-98,8,1
12,203,R,0,,4517,1,,half,,,1
12,204,,0,,2448,1,30,full,-60,-30,1
12,205,L,1,right,5535,0,,half,,,1
12,206,,0,,4627,1,106,full,-98,8,1
12,207,,1,left,9912,0,106,full,-98,8,1
12,208,,0,,2309,1,30,full,-60,-30,1
12,209,R,0,,5926,1,,half,,,1
12,210,,1,left,1838,1,30,full,-60,-30,1
12,211,L,1,left,1719,1,,half,,,1
12,212,,1,right,3098,1,106,full,-98,8,1
12,213,,0,,1999,0,106,full,-98,8,1
12,214,R,0,,5036,1,,half,,,1
12,215,L,0,,5277,1,,half,,,1
12,216,,1,left,6414,0,106,full,-98,8,1
12,217,R,1,right,1740,1,,half,,,1
12,218,,0,,5007,1,106,full,-98,8,1
12,219,L,1,left,1699,1,,half,,,1
12,220,L,0,,6066,1,,half,,,1
12,221,,0,,5016,1,106,full,-98,8,1
12,222,,1,right,1859,1,106,full,-98,8,1
12,223,,0,,2299,1,30,full,-60,-30,1
12,224,,1,left,3966,0,106,full,-98,8,1
12,225,,0,,7654,1,106,full,-98,8,1
12,226,,0,,9263,1,106,full,-98,8,1
12,227,,1,right,2149,1,30,full,-60,-30,1
12,228,,0,,2040,1,30,full,-60,-30,1
12,229,R,0,,6185,1,,half,,,1
12,230,,1,right,1629,1,30,full,-60,-30,1
12,231,,0,,7254,1,106,full,-98,8,1
12,232,R,1,right,1649,1,,half,,,1
12,233,,0,,6225,1,106,full,-98,8,1
12,234,R,1,left,2219,1,,half,,,1
12,235,,0,,1949,1,30,full,-60,-30,1
12,236,L,1,right,4127,0,,half,,,1
12,237,R,1,left,2599,1,,half,,,1
12,238,,1,right,1579,1,30,full,-60,-30,1
12,239,R,0,,5606,1,,half,,,1
12,240,,0,,1968,1,30,full,-60,-30,1
13,1,R,1,right,4360,0,,half,,,1
13,2,,1,left,2883,0,106,full,-98,8,1
13,3,L,1,left,2837,1,,half,,,1
13,4,,1,right,2840,0,106,full,-98,8,1
13,5,,0,,3773,1,30,full,-60,-30,1
13,6,,0,,3539,1,30,full,-60,-30,1
13,7,,1,right,1961,1,30,full,-60,-30,1
13,8,R,0,,3252,1,,half,,,1
13,9,R,0,,3338,1,,half,,,1
13,10,,1,right,2211,1,30,full,-60,-30,1
13,11,L,1,right,3200,1,,half,,,1
13,12,,1,left,1961,1,30,full,-60,-30,1
13,13,,0,,3169,1,106,full,-98,8,1
13,14,R,1,right,1960,1,,half,,,1
13,15,,0,,3469,1,30,full,-60,-30,1
13,16,L,1,left,1830,1,,half,,,1
13,17,L,0,,3199,1,,half,,,1
13,18,,0,,3158,1,30,full,-60,-30,1
13,19,,0,,2910,1,30,full,-60,-30,1
13,20,,0,,3210,1,30,full,-60,-30,1
