subNum	 trialNo	 easySide	 targPresent	 targSide	 RT	accuracy1	1	 R	1	 left	3.903	11	2	 L	0	 x	4.675	11	3	 L	1	 right	3.338	11	4	 R	1	 left	2.128	11	5	 L	0	 x	4.205	11	6	 R	0	 x	4.532	11	7	 L	1	 left	1.87	11	8	 L	0	 x	3.498	11	9	 R	1	 right	1.889	11	10	 R	1	 right	1.759	11	11	 R	0	 x	3.617	11	12	 L	1	 left	1.689	11	13	 R	0	 x	3.027	11	14	 R	0	 x	3.587	11	15	 L	1	 left	1.72	11	16	 L	1	 left	1.586	11	17	 R	1	 left	3.356	01	18	 L	0	 x	3.505	11	19	 R	0	 x	3.466	11	20	 L	1	 right	2.119	11	21	 L	1	 left	2.458	11	22	 R	1	 right	1.651	11	23	 R	1	 right	1.978	11	24	 R	1	 right	1.769	11	25	 R	0	 x	2.833	11	26	 L	1	 right	2.577	11	27	 R	1	 left	1.928	11	28	 L	0	 x	3.546	11	29	 R	0	 x	3.358	11	30	 R	0	 x	2.871	11	31	 R	0	 x	3.028	11	32	 L	0	 x	2.698	11	33	 L	0	 x	3.417	11	34	 L	0	 x	4.364	11	35	 R	1	 right	1.779	11	36	 R	1	 right	1.809	11	37	 R	0	 x	4.394	11	38	 R	0	 x	3.437	11	39	 R	1	 left	4.266	01	40	 L	0	 x	4.475	11	41	 L	1	 left	1.759	11	42	 R	0	 x	4.146	11	43	 R	0	 x	4.804	11	44	 R	0	 x	4.062	11	45	 R	1	 left	3.19	11	46	 L	1	 right	3.167	11	47	 R	1	 right	1.799	11	48	 R	1	 right	2.198	11	49	 R	1	 left	5.27	01	50	 R	1	 left	2.96	11	51	 R	0	 x	6.191	11	52	 R	0	 x	7.669	11	53	 L	1	 left	1.78	11	54	 L	1	 right	2.038	11	55	 L	1	 right	1.779	11	56	 R	0	 x	5.053	11	57	 L	0	 x	4.934	11	58	 L	1	 right	3.197	11	59	 L	0	 x	5.584	11	60	 L	1	 left	1.77	11	61	 L	1	 right	1.989	11	62	 L	1	 left	2.299	11	63	 R	1	 left	3.986	01	64	 R	0	 x	5.143	11	65	 L	1	 right	4.106	01	66	 R	1	 left	2.599	11	67	 R	1	 right	1.709	11	68	 L	0	 x	3.936	11	69	 L	1	 left	1.95	11	70	 L	0	 x	4.215	11	71	 R	0	 x	5.179	11	72	 L	0	 x	3.616	11	73	 L	1	 right	2.588	11	74	 R	1	 left	4.652	11	75	 R	1	 left	2.508	11	76	 R	0	 x	4.654	11	77	 R	1	 right	1.775	11	78	 R	0	 x	4.231	11	79	 L	1	 right	1.7	11	80	 R	1	 left	2.588	11	81	 L	1	 left	2.07	11	82	 L	0	 x	5.354	11	83	 L	1	 right	2.06	11	84	 R	0	 x	3.706	11	85	 R	0	 x	3.447	11	86	 L	1	 right	1.629	11	87	 L	1	 left	1.647	11	88	 L	1	 left	1.689	11	89	 R	0	 x	4.245	11	90	 L	0	 x	2.865	11	91	 L	0	 x	2.698	11	92	 R	0	 x	3.727	11	93	 R	0	 x	3.637	11	94	 R	1	 left	1.807	11	95	 R	0	 x	4.416	11	96	 L	0	 x	4.596	11	97	 R	0	 x	5.166	11	98	 L	0	 x	3.784	11	99	 R	0	 x	3.447	11	100	 R	1	 right	1.759	11	101	 R	1	 right	1.639	11	102	 L	1	 left	1.59	11	103	 L	0	 x	4.565	11	104	 L	0	 x	2.989	11	105	 L	0	 x	4.484	11	106	 L	0	 x	4.386	11	107	 L	1	 left	1.7	11	108	 R	1	 left	2.248	11	109	 L	1	 left	1.577	11	110	 L	1	 right	4.427	01	111	 R	1	 left	4.824	11	112	 R	1	 right	2.388	11	113	 R	0	 x	3.456	11	114	 L	0	 x	3.298	11	115	 L	0	 x	3.647	11	116	 L	0	 x	3.347	11	117	 R	0	 x	4.254	11	118	 R	0	 x	2.927	11	119	 R	0	 x	5.413	11	120	 L	1	 right	2.318	11	121	 R	1	 right	2.068	11	122	 L	0	 x	3.946	11	123	 R	1	 left	3.676	11	124	 R	0	 x	3.736	11	125	 L	1	 left	1.937	11	126	 R	0	 x	4.027	11	127	 L	0	 x	3.705	11	128	 L	1	 right	2.587	11	129	 L	0	 x	4.475	11	130	 L	1	 right	1.86	11	131	 L	1	 right	3.777	01	132	 R	1	 right	1.968	11	133	 L	0	 x	5.313	11	134	 L	1	 left	1.729	11	135	 L	1	 left	1.7	11	136	 R	0	 x	5.017	11	137	 R	1	 left	3.967	01	138	 R	0	 x	4.769	11	139	 R	0	 x	5.034	11	140	 R	1	 right	2.318	11	141	 L	0	 x	6.252	11	142	 R	1	 left	2.109	11	143	 L	0	 x	4.596	11	144	 L	1	 left	1.644	11	145	 L	0	 x	4.585	11	146	 R	1	 right	1.696	11	147	 L	0	 x	3.286	11	148	 R	1	 left	2.038	11	149	 L	1	 right	3.147	11	150	 L	0	 x	5.28	11	151	 R	0	 x	4.495	11	152	 L	1	 right	3.567	11	153	 L	1	 right	2.108	11	154	 R	0	 x	4.665	11	155	 R	0	 x	3.956	11	156	 R	0	 x	4.555	11	157	 L	0	 x	5.174	11	158	 R	0	 x	6.151	11	159	 L	0	 x	4.456	11	160	 R	1	 right	1.689	14	1	 R	0	 x	4.735	14	2	 R	1	 right	2.104	14	3	 L	0	 x	3.504	14	4	 L	1	 left	1.634	14	5	 L	1	 left	1.624	14	6	 L	0	 x	3.904	14	7	 R	0	 x	3.513	14	8	 R	1	 left	3.844	04	9	 R	0	 x	5.06	14	10	 R	0	 x	4.394	14	11	 L	1	 right	6.364	04	12	 L	1	 right	3.565	14	13	 R	1	 right	1.633	14	14	 L	0	 x	6.994	14	15	 L	0	 x	5.364	14	16	 R	0	 x	6.604	14	17	 R	0	 x	5.605	14	18	 R	1	 right	1.654	14	19	 R	1	 left	4.424	14	20	 L	1	 left	1.565	14	21	 R	1	 right	2.524	14	22	 L	1	 right	3.314	14	23	 L	0	 x	6.065	14	24	 L	1	 right	2.754	14	25	 L	0	 x	6.043	14	26	 R	1	 left	5.104	04	27	 R	1	 right	1.714	14	28	 L	0	 x	7.124	04	29	 R	0	 x	7.645	14	30	 L	1	 left	1.674	14	31	 R	1	 right	1.578	14	32	 R	0	 x	7.315	14	33	 R	0	 x	5.545	14	34	 R	0	 x	3.876	14	35	 L	1	 right	2.634	14	36	 L	1	 right	2.153	14	37	 R	0	 x	6.234	14	38	 R	1	 left	7.494	04	39	 R	1	 left	6.724	14	40	 L	0	 x	5.766	14	41	 R	1	 left	9.477	04	42	 R	0	 x	8.906	14	43	 R	1	 left	5.75	14	44	 L	0	 x	9.065	14	45	 L	1	 left	1.625	14	46	 L	1	 right	4.828	14	47	 R	1	 left	9.187	04	48	 L	0	 x	8.866	14	49	 L	0	 x	7.504	14	50	 L	0	 x	7.418	14	51	 L	0	 x	6.907	14	52	 R	0	 x	6.074	14	53	 R	0	 x	7.155	14	54	 R	1	 left	6.166	04	55	 R	0	 x	6.945	14	56	 L	1	 right	2.87	14	57	 L	0	 x	8	14	58	 R	1	 right	1.794	14	59	 R	0	 x	7.562	14	60	 R	0	 x	5.285	14	61	 R	0	 x	7.285	14	62	 L	0	 x	5.744	14	63	 R	1	 right	1.663	14	64	 R	1	 left	6.528	14	65	 R	0	 x	6.155	14	66	 L	1	 left	1.754	14	67	 L	0	 x	5.8	14	68	 L	1	 right	6.065	14	69	 L	0	 x	6.335	14	70	 L	1	 right	2.074	14	71	 L	1	 left	1.664	14	72	 R	1	 left	4.165	14	73	 L	1	 right	1.652	14	74	 L	0	 x	7.195	14	75	 L	1	 right	1.524	14	76	 R	1	 left	3.917	14	77	 R	1	 left	2.414	14	78	 R	0	 x	6.765	14	79	 R	0	 x	5.535	14	80	 L	1	 left	1.644	14	81	 L	1	 left	1.534	14	82	 L	0	 x	5.645	14	83	 R	0	 x	3.854	14	84	 R	0	 x	5.074	14	85	 L	1	 left	1.555	14	86	 R	0	 x	6.174	14	87	 R	1	 left	3.655	14	88	 R	0	 x	4.385	14	89	 R	0	 x	6.625	14	90	 R	0	 x	5.295	14	91	 R	1	 right	1.504	14	92	 L	1	 right	1.8	14	93	 R	1	 left	3.183	14	94	 L	0	 x	4.607	14	95	 R	0	 x	3.764	14	96	 L	1	 left	1.594	14	97	 L	1	 right	1.775	14	98	 L	0	 x	5.787	14	99	 R	0	 x	4.445	14	100	 R	1	 right	1.683	14	101	 R	0	 x	4.515	14	102	 L	1	 right	1.709	14	103	 L	0	 x	2.704	14	104	 R	0	 x	4.786	14	105	 L	1	 left	1.547	14	106	 L	0	 x	3.965	14	107	 L	0	 x	4.745	14	108	 R	0	 x	6.366	14	109	 L	1	 left	1.684	14	110	 L	1	 right	5.481	04	111	 R	1	 left	4.645	14	112	 R	1	 right	1.516	14	113	 L	1	 right	1.717	14	114	 L	1	 left	1.644	14	115	 R	1	 right	1.475	14	116	 R	1	 left	2.014	14	117	 L	0	 x	5.777	14	118	 L	0	 x	6.065	14	119	 L	1	 right	4.807	14	120	 L	0	 x	5.625	14	121	 R	1	 right	1.51	14	122	 L	1	 right	2.825	14	123	 R	0	 x	4.354	14	124	 R	1	 right	1.589	14	125	 L	0	 x	4.264	14	126	 L	0	 x	4.164	14	127	 R	0	 x	4.244	14	128	 L	1	 right	1.954	14	129	 L	0	 x	4.275	14	130	 R	0	 x	3.934	14	131	 L	1	 left	1.733	14	132	 L	0	 x	4.415	14	133	 R	0	 x	4.924	14	134	 L	1	 left	1.623	14	135	 L	1	 left	1.634	14	136	 L	1	 left	1.504	14	137	 R	1	 right	1.575	14	138	 R	0	 x	3.615	14	139	 R	0	 x	4.927	14	140	 L	1	 left	1.53	14	141	 L	0	 x	3.922	14	142	 R	1	 right	1.464	14	143	 R	1	 left	1.975	14	144	 R	1	 left	5.114	14	145	 R	0	 x	6.395	14	146	 L	0	 x	4.854	14	147	 R	1	 right	1.772	14	148	 L	0	 x	5.258	14	149	 L	0	 x	5.165	14	150	 R	1	 right	1.534	14	151	 R	0	 x	6.105	14	152	 R	0	 x	6.023	14	153	 R	1	 right	1.496	14	154	 R	0	 x	4.974	14	155	 L	1	 right	1.854	14	156	 L	0	 x	4.254	14	157	 L	1	 left	1.613	14	158	 R	0	 x	5.305	14	159	 R	1	 left	1.863	15	1	 R	1	 right	2.395	15	2	 L	0	 x	3.925	15	3	 L	1	 left	1.874	15	4	 L	0	 x	3.885	15	5	 R	1	 left	4.714	05	6	 L	0	 x	4.825	15	7	 R	0	 x	4.665	15	8	 L	1	 left	1.875	15	9	 R	0	 x	3.535	15	10	 L	0	 x	4.354	15	11	 L	1	 left	1.715	15	12	 R	1	 right	1.844	15	13	 R	0	 x	4.864	15	14	 R	0	 x	4.204	15	15	 L	0	 x	5.135	15	16	 R	1	 left	3.644	15	17	 R	0	 x	5.494	15	18	 L	1	 left	1.788	15	19	 R	1	 right	1.624	15	20	 R	1	 left	2.305	15	21	 L	0	 x	5.403	15	22	 R	1	 right	1.703	15	23	 R	0	 x	4.814	15	24	 R	0	 x	3.595	15	25	 R	0	 x	4.545	15	26	 R	1	 left	2.765	15	27	 R	0	 x	5.144	15	28	 R	0	 x	3.402	15	29	 R	1	 left	5.495	05	30	 R	1	 right	1.714	15	31	 L	1	 right	2.025	15	32	 R	1	 left	5.445	05	33	 R	1	 left	6.104	15	34	 L	0	 x	5.755	15	35	 L	1	 right	5.784	05	36	 R	1	 right	1.925	15	37	 R	1	 left	2.404	15	38	 L	1	 right	1.725	15	39	 R	1	 left	5.925	05	40	 R	1	 left	7.365	05	41	 L	0	 x	7.245	15	42	 L	1	 right	2.658	15	43	 L	1	 right	7.355	05	44	 L	0	 x	8.366	15	45	 R	1	 left	6.075	05	46	 R	0	 x	9.074	15	47	 R	1	 right	1.782	15	48	 L	0	 x	5.593	15	49	 L	1	 right	0.025	05	50	 L	1	 left	2.005	15	51	 L	1	 right	1.914	15	52	 L	0	 x	4.885	15	53	 L	1	 left	1.665	15	54	 R	0	 x	5.275	15	55	 L	1	 left	1.724	15	56	 L	0	 x	7.005	15	57	 L	0	 x	5.875	15	58	 R	0	 x	4.304	15	59	 R	1	 right	1.631	15	60	 L	1	 right	5.082	05	61	 L	1	 left	1.594	15	62	 L	1	 right	2.605	15	63	 L	0	 x	6.845	15	64	 R	1	 right	2.101	15	65	 L	1	 right	6.667	05	66	 R	1	 left	2.105	15	67	 L	0	 x	3.494	15	68	 R	0	 x	3.295	15	69	 L	1	 left	1.654	15	70	 L	0	 x	4.369	15	71	 R	0	 x	2.534	05	72	 R	0	 x	4.994	15	73	 R	0	 x	5.204	15	74	 R	1	 left	4.109	05	75	 L	1	 left	1.764	15	76	 R	1	 right	1.644	15	77	 L	1	 right	2.055	15	78	 R	0	 x	4.344	15	79	 L	1	 right	2.675	05	80	 L	0	 x	2.244	05	81	 R	1	 left	3.945	05	82	 R	0	 x	4.975	15	83	 L	0	 x	4.665	15	84	 R	1	 right	1.583	15	85	 L	0	 x	4.364	15	86	 L	0	 x	5.405	15	87	 R	1	 left	4.974	05	88	 R	1	 left	5.645	05	89	 L	0	 x	7.025	15	90	 L	1	 right	4.478	05	91	 R	0	 x	4.186	15	92	 R	0	 x	4.975	15	93	 R	0	 x	4.914	15	94	 R	1	 right	1.633	15	95	 R	1	 right	1.785	15	96	 R	0	 x	4.675	15	97	 R	1	 left	4.195	05	98	 R	0	 x	6.045	15	99	 L	0	 x	5.705	15	100	 R	0	 x	4.625	15	101	 L	1	 right	2.324	15	102	 L	0	 x	2.104	05	103	 R	1	 left	4.224	05	104	 R	0	 x	5.655	15	105	 R	0	 x	5.365	15	106	 R	0	 x	4.444	15	107	 L	0	 x	5.635	15	108	 L	1	 left	1.855	15	109	 R	0	 x	6.546	15	110	 R	1	 right	1.644	15	111	 L	0	 x	4.144	15	112	 R	1	 right	1.574	15	113	 L	1	 right	1.994	15	114	 L	0	 x	5.104	15	115	 R	0	 x	4.775	15	116	 L	0	 x	3.855	15	117	 R	0	 x	3.953	15	118	 R	0	 x	5.495	15	119	 R	0	 x	3.563	15	120	 R	0	 x	3.985	15	121	 R	0	 x	4.685	15	122	 L	0	 x	4.754	15	123	 L	0	 x	4.905	15	124	 R	0	 x	5.645	15	125	 L	1	 left	1.824	15	126	 L	0	 x	4.325	15	127	 R	0	 x	5.335	15	128	 R	0	 x	5.165	15	129	 R	0	 x	4.724	15	130	 R	0	 x	3.925	15	131	 L	0	 x	7.385	15	132	 R	0	 x	4.354	15	133	 L	0	 x	6.834	15	134	 L	0	 x	4.644	15	135	 L	1	 left	1.824	15	136	 R	1	 right	2.734	05	137	 L	1	 left	1.685	15	138	 R	1	 right	1.644	15	139	 R	0	 x	4.105	15	140	 L	1	 left	1.714	15	141	 R	1	 left	4.245	05	142	 R	1	 left	2.418	15	143	 L	1	 right	2.804	05	144	 L	1	 right	4.304	05	145	 L	1	 left	1.64	15	146	 L	1	 left	1.615	15	147	 R	1	 right	1.564	15	148	 L	1	 right	2.224	15	149	 L	1	 right	3.164	15	150	 L	1	 left	1.745	15	151	 L	1	 left	1.615	15	152	 L	0	 x	2.394	15	153	 L	0	 x	2.744	15	154	 L	1	 right	2.145	15	155	 R	0	 x	3.704	05	156	 R	1	 right	1.613	16	1	 L	0	 x	4.402	16	2	 L	0	 x	4.395	16	3	 R	0	 x	4.854	16	4	 L	1	 left	1.754	16	5	 L	1	 right	2.274	16	6	 L	1	 left	1.935	16	7	 L	0	 x	3.945	16	8	 R	1	 right	1.934	16	9	 L	0	 x	3.045	16	10	 R	1	 left	2.074	16	11	 L	1	 right	2.034	16	12	 R	0	 x	3.074	16	13	 R	0	 x	2.784	16	14	 R	0	 x	4.534	16	15	 L	1	 right	1.783	16	16	 L	1	 left	1.774	16	17	 R	1	 left	1.955	16	18	 L	1	 right	2.888	06	19	 R	0	 x	2.915	16	20	 R	1	 left	1.774	16	21	 R	1	 right	1.655	16	22	 R	0	 x	3.46	16	23	 R	0	 x	2.885	16	24	 L	0	 x	3.321	16	25	 L	0	 x	2.937	16	26	 R	0	 x	4	16	27	 R	1	 left	2.013	16	28	 R	0	 x	3.095	16	29	 R	1	 right	1.734	16	30	 R	0	 x	3.164	16	31	 L	0	 x	3.623	16	32	 R	1	 left	1.725	16	33	 R	1	 left	1.755	16	34	 L	1	 left	1.674	16	35	 L	0	 x	2.405	16	36	 R	1	 left	1.684	16	37	 L	0	 x	2.705	16	38	 R	1	 right	1.611	16	39	 L	1	 left	1.651	16	40	 R	0	 x	2.134	16	41	 R	0	 x	3.506	16	42	 L	0	 x	2.654	16	43	 R	0	 x	3.144	16	44	 L	1	 right	2.815	06	45	 R	1	 right	1.673	16	46	 R	0	 x	2.595	16	47	 L	1	 left	1.594	16	48	 R	1	 left	1.994	16	49	 R	1	 right	1.585	16	50	 L	0	 x	2.348	16	51	 L	0	 x	2.745	16	52	 L	1	 left	1.524	16	53	 R	0	 x	2.324	16	54	 L	1	 left	1.654	16	55	 R	0	 x	2.235	16	56	 L	1	 right	1.744	16	57	 L	0	 x	2.473	16	58	 R	0	 x	2.714	16	59	 R	1	 left	2.315	16	60	 L	1	 left	1.574	16	61	 L	0	 x	2.235	16	62	 R	0	 x	2.245	16	63	 L	1	 left	1.575	16	64	 R	0	 x	2.395	16	65	 R	1	 left	1.834	16	66	 L	1	 right	1.873	16	67	 L	1	 right	2.035	16	68	 L	1	 left	1.565	16	69	 L	1	 right	1.665	16	70	 L	0	 x	2.284	16	71	 R	1	 right	1.525	16	72	 R	0	 x	2.481	16	73	 L	1	 right	2.534	16	74	 L	1	 right	1.758	16	75	 L	0	 x	2.685	16	76	 L	1	 right	3.475	06	77	 R	0	 x	3.384	16	78	 L	1	 right	1.774	16	79	 R	1	 right	1.594	16	80	 R	0	 x	3.212	16	81	 R	0	 x	3.455	16	82	 R	1	 right	1.754	16	83	 R	1	 right	1.591	16	84	 R	1	 right	1.504	16	85	 L	0	 x	6.184	16	86	 R	0	 x	3.26	16	87	 L	0	 x	4.554	16	88	 L	0	 x	4.716	16	89	 L	1	 left	1.934	16	90	 R	0	 x	3.595	16	91	 L	1	 right	1.745	16	92	 L	0	 x	3.209	16	93	 R	1	 left	3.654	16	94	 R	0	 x	3.135	16	95	 R	1	 right	1.575	16	96	 L	1	 left	1.544	16	97	 R	0	 x	3.845	16	98	 R	1	 right	1.564	16	99	 R	1	 right	1.465	16	100	 L	1	 left	1.534	16	101	 R	0	 x	2.769	16	102	 L	1	 right	2.19	16	103	 R	1	 right	1.605	16	104	 L	1	 right	3.374	16	105	 L	0	 x	3.118	16	106	 R	1	 right	1.633	16	107	 L	1	 left	1.525	16	108	 R	1	 left	1.784	16	109	 L	1	 right	1.734	16	110	 L	0	 x	3.135	16	111	 L	0	 x	3.135	16	112	 L	0	 x	2.695	16	113	 R	0	 x	2.274	16	114	 R	1	 left	1.634	16	115	 R	0	 x	2.345	16	116	 R	0	 x	2.194	16	117	 L	1	 left	1.593	16	118	 L	1	 right	1.92	16	119	 R	0	 x	2.375	16	120	 L	0	 x	2.914	16	121	 R	1	 left	1.985	16	122	 R	0	 x	2.704	16	123	 R	1	 left	1.875	16	124	 L	1	 left	1.605	16	125	 R	0	 x	2.324	16	126	 L	0	 x	2.445	16	127	 L	1	 left	1.516	16	128	 R	1	 left	2.644	06	129	 L	0	 x	2.194	16	130	 L	1	 left	1.583	16	131	 R	1	 right	1.725	16	132	 R	0	 x	3.135	16	133	 R	1	 left	1.644	16	134	 R	1	 left	1.604	16	135	 R	0	 x	2.574	16	136	 L	0	 x	2.603	16	137	 R	1	 left	2.034	16	138	 R	0	 x	2.514	16	139	 L	1	 right	2.273	16	140	 R	1	 left	1.702	16	141	 L	0	 x	2.424	16	142	 R	0	 x	2.204	16	143	 L	1	 left	1.641	16	144	 L	0	 x	2.114	16	145	 L	0	 x	2.264	16	146	 L	1	 right	2.014	16	147	 R	1	 right	1.544	16	148	 L	0	 x	2.727	16	149	 L	0	 x	2.164	16	150	 R	0	 x	3.293	16	151	 L	0	 x	2.03	16	152	 R	0	 x	2.894	16	153	 R	0	 x	3.164	16	154	 L	1	 right	1.759	16	155	 R	1	 right	1.535	16	156	 L	0	 x	2.914	16	157	 R	0	 x	3.683	16	158	 L	0	 x	2.451	16	159	 L	0	 x	2.404	16	160	 R	0	 x	2.565	17	1	 R	0	 x	6.126	17	2	 L	1	 right	2.103	17	3	 L	1	 right	2.725	07	4	 R	1	 right	2.063	17	5	 L	1	 left	1.775	17	6	 R	0	 x	4.024	17	7	 L	1	 right	1.804	17	8	 L	0	 x	4.125	17	9	 R	1	 left	3.541	17	10	 R	1	 right	1.654	17	11	 L	1	 right	1.748	17	12	 R	1	 right	1.524	17	13	 L	1	 left	1.883	17	14	 L	0	 x	3.974	17	15	 R	0	 x	5.323	17	16	 R	0	 x	6.735	17	17	 R	1	 left	2.293	17	18	 L	1	 left	1.714	17	19	 R	1	 right	1.763	17	20	 L	1	 right	2.284	17	21	 L	0	 x	5.124	17	22	 L	1	 right	3.915	17	23	 R	0	 x	5.765	17	24	 R	1	 right	1.654	17	25	 L	1	 left	1.594	17	26	 L	0	 x	4.865	17	27	 L	0	 x	4.765	17	28	 L	0	 x	3.495	17	29	 L	1	 left	1.894	17	30	 R	0	 x	6.614	17	31	 L	1	 left	1.624	17	32	 R	1	 left	2.165	17	33	 L	0	 x	7.375	17	34	 R	1	 left	2.834	17	35	 R	0	 x	7.094	17	36	 R	1	 left	1.819	17	37	 R	1	 right	1.904	17	38	 R	0	 x	8.005	17	39	 R	0	 x	6.186	17	40	 L	0	 x	5.785	17	41	 L	0	 x	8.636	17	42	 R	0	 x	5.825	17	43	 R	0	 x	5.914	17	44	 L	0	 x	4.076	17	45	 L	1	 right	3.065	17	46	 L	0	 x	5.335	17	47	 L	0	 x	3.873	17	48	 R	1	 left	7.999	07	49	 L	1	 left	1.835	17	50	 R	0	 x	9.916	17	51	 L	0	 x	7.205	17	52	 R	0	 x	7.771	17	53	 R	0	 x	7.963	17	54	 R	1	 right	1.764	17	55	 L	1	 right	2.384	17	56	 R	1	 right	1.704	17	57	 R	0	 x	7.935	17	58	 L	0	 x	5.325	17	59	 L	0	 x	4.973	17	60	 L	0	 x	4.784	17	61	 L	1	 left	1.743	17	62	 R	0	 x	6.295	17	63	 L	0	 x	6.655	17	64	 R	1	 left	2.195	17	65	 L	0	 x	6.673	17	66	 R	1	 left	2.736	17	67	 R	1	 left	5.376	07	68	 L	1	 left	1.614	17	69	 R	0	 x	12.474	17	70	 L	1	 left	1.883	17	71	 L	0	 x	6.164	17	72	 L	0	 x	6.655	07	73	 L	1	 right	1.875	17	74	 L	1	 right	2.404	17	75	 L	0	 x	5.044	17	76	 R	0	 x	5.224	17	77	 R	1	 right	2.197	17	78	 L	1	 right	3.144	17	79	 L	1	 right	2.124	17	80	 L	0	 x	3.914	17	81	 R	0	 x	5.344	17	82	 L	0	 x	4.016	17	83	 R	0	 x	3.374	17	84	 L	0	 x	3.224	17	85	 R	1	 left	4.21	07	86	 R	1	 left	2.365	17	87	 L	0	 x	6.914	17	88	 L	0	 x	3.325	17	89	 R	0	 x	5.707	17	90	 L	1	 left	1.648	17	91	 L	1	 left	1.644	17	92	 R	0	 x	4.934	17	93	 R	1	 left	1.894	17	94	 R	0	 x	5.495	17	95	 R	1	 left	3.842	17	96	 L	0	 x	5.744	17	97	 R	1	 right	1.825	17	98	 R	1	 right	1.623	17	99	 R	0	 x	6.903	17	100	 R	0	 x	5.762	17	101	 L	1	 right	1.901	17	102	 R	1	 right	1.664	17	103	 L	1	 left	2.095	17	104	 L	1	 left	1.565	17	105	 L	0	 x	5.829	17	106	 L	1	 right	2.334	17	107	 L	1	 left	1.694	17	108	 R	1	 left	1.874	17	109	 L	0	 x	5.024	17	110	 R	1	 left	2.345	17	111	 L	0	 x	4.739	17	112	 L	0	 x	3.695	17	113	 L	1	 left	1.947	17	114	 L	1	 right	2.255	17	115	 R	1	 right	1.555	17	116	 R	1	 left	2.485	17	117	 R	1	 left	1.705	17	118	 R	1	 right	1.693	17	119	 L	0	 x	4.708	17	120	 L	1	 left	1.715	17	121	 R	1	 right	1.71	17	122	 R	0	 x	2.701	17	123	 R	0	 x	2.985	17	124	 R	1	 right	1.614	17	125	 R	1	 left	3.334	07	126	 R	0	 x	5.399	17	127	 R	1	 left	2.739	17	128	 R	0	 x	4.034	17	129	 L	0	 x	4.914	17	130	 L	1	 left	1.85	17	131	 L	0	 x	4.645	17	132	 L	1	 right	4.948	17	133	 L	1	 right	1.815	17	134	 R	0	 x	4.02	17	135	 L	1	 left	1.693	17	136	 R	0	 x	3.739	17	137	 L	0	 x	5.405	17	138	 L	1	 right	2.064	17	139	 R	0	 x	5.791	17	140	 L	0	 x	4.234	17	141	 L	1	 left	1.605	17	142	 R	0	 x	2.905	17	143	 R	0	 x	2.648	17	144	 L	0	 x	2.94	17	145	 R	0	 x	2.293	17	146	 R	1	 right	1.695	17	147	 L	1	 right	2.864	17	148	 R	1	 right	1.584	17	149	 R	0	 x	3.804	17	150	 L	1	 right	1.745	17	151	 R	0	 x	3.574	17	152	 R	1	 left	2.729	07	153	 R	0	 x	4.975	17	154	 L	1	 right	4.404	17	155	 R	0	 x	4.017	17	156	 R	0	 x	3.965	17	157	 R	0	 x	6.155	17	158	 R	1	 right	1.821	17	159	 R	0	 x	3.765	18	1	 R	1	 left	8.237	18	2	 R	1	 right	2.617	08	3	 R	1	 right	2.914	18	4	 R	1	 right	1.847	18	5	 R	1	 right	1.985	18	6	 R	0	 x	8.304	18	7	 L	1	 right	6.476	18	8	 R	1	 right	1.973	18	9	 R	0	 x	7.075	18	10	 R	0	 x	8.349	18	11	 R	1	 right	2.154	18	12	 L	1	 right	3.626	18	13	 R	1	 left	10.165	08	14	 R	0	 x	10.185	18	15	 L	1	 right	10.193	08	16	 L	1	 left	2.295	18	17	 R	0	 x	11.915	18	18	 L	1	 left	2.254	18	19	 R	0	 x	9.925	18	20	 R	0	 x	7.881	18	21	 L	0	 x	7.627	18	22	 R	1	 right	2.284	18	23	 R	0	 x	9.416	18	24	 R	1	 right	1.884	18	25	 R	0	 x	10.825	18	26	 L	1	 right	4.646	18	27	 R	1	 right	1.864	18	28	 R	1	 right	1.674	18	29	 R	1	 left	5.015	18	30	 R	0	 x	8.626	18	31	 R	0	 x	8.216	18	32	 R	0	 x	9.376	18	33	 L	0	 x	8.356	18	34	 R	0	 x	8.065	18	35	 L	1	 left	2.914	18	36	 R	1	 left	9.636	08	37	 L	1	 right	6.545	18	38	 L	0	 x	8.945	18	39	 R	1	 left	8.586	08	40	 L	1	 right	10.985	08	41	 R	0	 x	9.826	18	42	 R	1	 left	4.954	18	43	 L	0	 x	9.645	18	44	 R	0	 x	9.995	18	45	 L	0	 x	9.632	18	46	 R	1	 right	2.211	18	47	 R	0	 x	8.647	18	48	 L	0	 x	6.875	18	49	 L	0	 x	7.704	18	50	 R	0	 x	7.377	18	51	 L	0	 x	9.029	18	52	 R	1	 left	4.904	18	53	 R	1	 left	7.025	18	54	 L	0	 x	8.475	18	55	 L	0	 x	7.184	18	56	 L	1	 right	7.705	08	57	 R	0	 x	9.476	18	58	 L	0	 x	8.733	18	59	 L	1	 left	2.074	18	60	 R	0	 x	8.375	18	61	 L	0	 x	9.514	18	62	 L	1	 left	1.744	18	63	 R	0	 x	9.192	18	64	 R	0	 x	9.085	18	65	 R	0	 x	10.375	18	66	 R	1	 left	11.716	18	67	 L	1	 right	9.436	08	68	 R	0	 x	10.556	18	69	 L	0	 x	8.914	18	70	 L	1	 left	2.105	18	71	 L	0	 x	10.026	18	72	 R	0	 x	9.895	18	73	 R	0	 x	8.625	18	74	 R	0	 x	8.88	18	75	 L	0	 x	11.133	18	76	 L	1	 right	3.625	18	77	 R	0	 x	8.425	18	78	 R	0	 x	8.415	18	79	 L	0	 x	7.183	18	80	 R	0	 x	9.816	18	81	 L	1	 right	6.149	18	82	 L	1	 left	2.241	18	83	 R	1	 left	5.275	18	84	 L	1	 right	1.834	18	85	 R	1	 left	8.065	08	86	 L	1	 left	1.911	18	87	 L	0	 x	9.695	18	88	 R	1	 left	8.075	08	89	 L	0	 x	9.185	18	90	 R	0	 x	6.548	18	91	 L	0	 x	7.79	18	92	 L	1	 right	2.293	18	93	 R	0	 x	8.065	18	94	 L	1	 right	3.103	18	95	 R	0	 x	7.595	18	96	 R	1	 right	1.754	18	97	 L	1	 left	1.774	18	98	 R	1	 left	4.645	18	99	 R	1	 right	1.596	18	100	 R	1	 left	5.835	18	101	 L	1	 right	8.235	08	102	 R	1	 right	2.613	18	103	 L	1	 left	1.704	18	104	 L	1	 right	8.776	08	105	 L	1	 left	1.874	18	106	 L	1	 left	1.634	18	107	 L	0	 x	7.574	18	108	 L	0	 x	6.004	18	109	 R	1	 right	2.003	18	110	 L	0	 x	6.691	18	111	 R	0	 x	7.795	18	112	 R	1	 left	5.825	18	113	 L	0	 x	8.665	18	114	 L	1	 right	2.223	18	115	 R	1	 left	6.685	18	116	 L	1	 left	1.639	18	117	 R	1	 right	1.804	18	118	 L	0	 x	7.134	18	119	 L	1	 right	2.804	18	120	 L	1	 left	1.713	18	121	 R	0	 x	6.685	18	122	 R	0	 x	6.764	18	123	 L	0	 x	5.585	18	124	 L	0	 x	7.384	18	125	 R	0	 x	6.707	18	126	 L	0	 x	7.365	18	127	 R	0	 x	7.393	18	128	 L	1	 left	1.813	18	129	 R	0	 x	7.854	18	130	 L	0	 x	7.934	18	131	 L	1	 right	7.025	08	132	 L	1	 right	3.024	18	133	 L	1	 left	1.704	18	134	 R	1	 left	4.184	18	135	 R	0	 x	7.785	18	136	 L	0	 x	6.835	18	137	 L	0	 x	6.774	18	138	 L	1	 left	1.747	18	139	 L	0	 x	8.985	18	140	 R	1	 left	7.374	08	141	 L	0	 x	7.985	18	142	 R	1	 left	7.555	08	143	 L	0	 x	7.364	18	144	 R	1	 right	1.845	18	145	 R	1	 left	7.195	08	146	 R	0	 x	7.395	18	147	 L	0	 x	7.715	18	148	 L	0	 x	8.265	18	149	 L	1	 left	1.745	18	150	 L	1	 left	1.654	18	151	 R	1	 right	1.683	18	152	 R	0	 x	7.434	18	153	 L	0	 x	8.414	18	154	 L	1	 left	1.781	18	155	 L	1	 right	4.484	18	156	 R	0	 x	8.155	18	157	 L	0	 x	7.835	18	158	 R	0	 x	7.498	18	159	 R	1	 right	2.003	18	160	 L	1	 right	7.555	09	1	 L	0	 x	6.816	19	2	 L	0	 x	6.305	19	3	 R	0	 x	7.873	19	4	 L	0	 x	6.764	19	5	 R	1	 left	6.014	19	6	 R	1	 left	2.515	19	7	 R	1	 left	9.955	19	8	 L	0	 x	10.796	19	9	 L	0	 x	9.555	19	10	 L	1	 left	2.379	19	11	 L	0	 x	10.713	19	12	 L	1	 right	7.543	19	13	 R	1	 right	2.144	19	14	 R	0	 x	17.686	19	15	 R	1	 right	3.235	19	16	 L	0	 x	12.375	19	17	 R	1	 right	2.067	19	18	 L	1	 left	1.973	19	19	 L	0	 x	12.056	19	20	 L	1	 right	7.074	19	21	 R	1	 left	11.635	09	22	 L	1	 left	1.945	19	23	 L	0	 x	12.302	19	24	 R	0	 x	7.954	19	25	 L	0	 x	8.762	19	26	 L	0	 x	9.786	19	27	 R	1	 left	4.164	19	28	 L	0	 x	12.055	19	29	 R	0	 x	8.684	19	30	 R	0	 x	13.666	19	31	 R	1	 right	1.855	19	32	 L	0	 x	7.717	19	33	 R	1	 left	9.695	19	34	 L	1	 left	2.095	19	35	 L	0	 x	10.874	19	36	 R	0	 x	11.437	19	37	 R	1	 right	1.878	19	38	 R	1	 left	3.644	19	39	 L	0	 x	9.348	19	40	 L	0	 x	9.574	19	41	 R	1	 right	1.773	19	42	 L	0	 x	10.775	19	43	 R	0	 x	9.215	19	44	 R	0	 x	10.78	19	45	 R	1	 left	5.577	19	46	 R	0	 x	8.414	19	47	 L	1	 right	8.396	19	48	 R	0	 x	10.965	19	49	 R	1	 right	1.894	19	50	 R	1	 left	4.145	19	51	 R	1	 left	3.484	19	52	 L	0	 x	6.825	19	53	 L	1	 right	7.386	09	54	 R	1	 right	1.825	19	55	 L	0	 x	6.217	19	56	 R	0	 x	7.192	19	57	 L	1	 left	1.873	19	58	 L	1	 right	7.884	09	59	 R	1	 right	3.175	19	60	 L	0	 x	11.345	19	61	 R	0	 x	6.378	19	62	 L	1	 right	4.524	19	63	 L	1	 left	1.864	19	64	 R	0	 x	6.289	19	65	 R	0	 x	6.765	19	66	 R	0	 x	6.557	19	67	 R	1	 right	8.164	09	68	 R	1	 left	6.185	19	69	 R	0	 x	10.405	19	70	 L	1	 right	10.094	09	71	 R	1	 right	2.209	19	72	 R	1	 right	1.958	19	73	 L	0	 x	9.695	19	74	 L	0	 x	6.557	19	75	 L	1	 left	2.115	19	76	 R	0	 x	5.218	19	77	 R	0	 x	4.942	19	78	 R	0	 x	7.661	19	79	 R	1	 right	1.664	19	80	 R	0	 x	6.545	19	81	 R	0	 x	5.194	19	82	 L	1	 left	2.094	19	83	 R	0	 x	6.255	19	84	 R	1	 right	1.646	19	85	 L	1	 left	2.244	19	86	 R	0	 x	8.875	19	87	 L	0	 x	6.907	19	88	 L	1	 right	7.094	19	89	 R	1	 left	7.534	19	90	 L	1	 left	1.774	19	91	 L	1	 left	1.58	19	92	 R	0	 x	6.027	19	93	 R	0	 x	10.145	19	94	 L	1	 left	1.674	19	95	 R	1	 right	1.664	19	96	 L	0	 x	8.705	19	97	 R	1	 left	7.654	09	98	 R	0	 x	7.245	19	99	 L	0	 x	5.395	19	100	 R	1	 left	5.093	19	101	 L	1	 right	7.576	09	102	 R	1	 left	8.024	09	103	 R	0	 x	10.303	19	104	 R	0	 x	7.824	19	105	 L	1	 left	1.863	09	106	 R	0	 x	7.757	19	107	 L	0	 x	8.135	19	108	 R	1	 left	7.873	19	109	 L	0	 x	10.765	19	110	 L	1	 right	6.196	19	111	 R	1	 left	2.134	19	112	 L	1	 right	3.694	19	113	 R	0	 x	6.754	19	114	 R	0	 x	6.424	19	115	 L	1	 left	1.784	19	116	 R	0	 x	5.707	19	117	 L	1	 right	5.723	09	118	 L	1	 right	5.574	19	119	 L	1	 right	6.151	19	120	 L	0	 x	10.691	19	121	 R	0	 x	9.975	19	122	 R	0	 x	12.631	19	123	 R	0	 x	6.776	19	124	 R	0	 x	8.145	19	125	 L	1	 left	1.824	19	126	 R	1	 left	2.173	19	127	 L	1	 left	1.775	19	128	 L	1	 right	8.756	09	129	 R	0	 x	8.255	19	130	 R	0	 x	6.705	19	131	 R	1	 left	4.665	19	132	 L	1	 right	3.194	19	133	 R	1	 left	8.845	09	134	 L	0	 x	7.703	19	135	 L	1	 right	3.204	19	136	 R	0	 x	4.835	19	137	 R	1	 right	1.714	19	138	 R	1	 right	1.624	19	139	 L	1	 right	3.235	19	140	 R	0	 x	6.215	19	141	 L	0	 x	5.746	19	142	 L	0	 x	8.014	19	143	 L	0	 x	6.154	19	144	 L	1	 right	3.264	19	145	 L	1	 right	2.762	19	146	 L	0	 x	5.922	19	147	 R	0	 x	6.144	19	148	 L	0	 x	4.365	19	149	 R	1	 right	1.663	19	150	 L	1	 left	1.779	19	151	 L	1	 left	1.684	19	152	 L	0	 x	4.525	19	153	 L	1	 right	2.953	19	154	 L	0	 x	4.184	19	155	 R	0	 x	4.524	19	156	 L	0	 x	5.233	19	157	 R	0	 x	5.125	19	158	 L	1	 left	1.735	110	1	 L	0	 x	7.744	110	2	 L	1	 left	2.183	110	3	 R	0	 x	6.555	110	4	 R	0	 x	7.794	110	5	 L	0	 x	7.365	110	6	 L	0	 x	6.355	110	7	 L	1	 left	2.265	110	8	 L	1	 left	1.815	110	9	 L	1	 right	6.054	010	10	 R	0	 x	8.954	110	11	 L	0	 x	7.805	110	12	 L	1	 left	2.131	110	13	 R	1	 right	1.814	110	14	 L	1	 right	6.085	110	15	 R	1	 left	5.825	110	16	 R	0	 x	8.314	110	17	 R	0	 x	8.515	110	18	 R	0	 x	9.572	110	19	 R	0	 x	8.048	110	20	 L	1	 left	1.895	110	21	 R	0	 x	9.565	110	22	 L	0	 x	6.245	110	23	 L	0	 x	8.155	110	24	 R	1	 right	1.885	110	25	 R	1	 right	1.846	110	26	 L	1	 left	1.795	110	27	 R	1	 left	6.925	110	28	 R	0	 x	9.403	110	29	 L	1	 left	2.214	110	30	 L	0	 x	9.005	110	31	 R	1	 left	8.866	110	32	 L	1	 left	1.925	110	33	 R	1	 left	9.496	010	34	 R	1	 left	9.236	010	35	 L	0	 x	11.726	110	36	 L	1	 right	13.016	010	37	 L	1	 left	1.818	110	38	 L	0	 x	14.585	110	39	 R	0	 x	12.976	110	40	 R	1	 right	1.944	110	41	 L	0	 x	12.065	110	42	 R	0	 x	13.597	110	43	 L	1	 left	1.794	110	44	 R	0	 x	13.293	110	45	 R	0	 x	10.955	110	46	 L	0	 x	13.736	110	47	 R	0	 x	13.575	110	48	 R	1	 left	17.257	010	49	 R	1	 left	4.635	110	50	 L	0	 x	18.503	110	51	 R	0	 x	17.558	110	52	 R	0	 x	15.447	110	53	 L	1	 left	2.084	110	54	 R	1	 right	1.705	110	55	 R	1	 left	17.306	010	56	 L	1	 right	18.736	010	57	 L	0	 x	19.566	110	58	 L	1	 right	15.346	110	59	 L	1	 left	1.676	110	60	 R	0	 x	22.708	110	61	 L	0	 x	19.137	110	62	 R	0	 x	20.138	110	63	 R	0	 x	21.256	110	64	 L	1	 left	1.784	110	65	 R	1	 left	4.684	110	66	 R	1	 left	2.803	110	67	 L	1	 right	13.546	110	68	 R	1	 right	2.015	110	69	 R	0	 x	19.078	110	70	 L	0	 x	17.116	110	71	 R	1	 left	16.894	110	72	 L	0	 x	17.656	110	73	 R	0	 x	20.557	110	74	 R	1	 right	1.805	110	75	 L	1	 right	11.283	110	76	 R	0	 x	18.497	110	77	 L	1	 left	1.825	110	78	 L	1	 right	13.819	110	79	 L	0	 x	14.226	110	80	 L	0	 x	11.585	110	81	 L	0	 x	13.675	110	82	 L	1	 left	1.755	110	83	 L	1	 left	1.914	110	84	 L	1	 right	6.264	110	85	 R	1	 left	3.675	110	86	 L	1	 left	1.785	110	87	 R	1	 right	1.639	110	88	 R	0	 x	13.93	110	89	 R	0	 x	10.276	110	90	 R	1	 right	1.895	110	91	 L	1	 right	14.587	010	92	 R	0	 x	13.363	110	93	 L	0	 x	10.326	110	94	 R	1	 right	1.774	110	95	 R	1	 left	13.856	010	96	 L	1	 right	3.444	110	97	 L	0	 x	18.838	110	98	 R	0	 x	16.086	110	99	 R	0	 x	16.276	110	100	 R	1	 left	15.564	010	101	 R	0	 x	18.496	110	102	 L	0	 x	19.166	110	103	 R	1	 right	1.755	110	104	 L	1	 right	11.79	110	105	 R	0	 x	19.907	110	106	 L	1	 right	15.67	110	107	 R	1	 right	1.785	110	108	 L	0	 x	17.452	110	109	 R	1	 right	1.815	110	110	 R	1	 right	1.794	110	111	 R	0	 x	20.717	110	112	 R	0	 x	18.118	110	113	 R	0	 x	11.986	110	114	 L	0	 x	10.835	110	115	 L	1	 left	1.726	110	116	 R	1	 right	2.465	110	117	 L	0	 x	10.786	110	118	 R	1	 right	1.624	110	119	 R	1	 left	9.585	110	120	 L	1	 right	11.446	010	121	 L	0	 x	10.655	110	122	 R	0	 x	7.484	110	123	 R	1	 left	6.029	110	124	 R	1	 right	1.664	110	125	 R	1	 right	1.646	110	126	 L	0	 x	7.095	110	127	 L	1	 right	2.728	110	128	 L	0	 x	9.326	110	129	 L	0	 x	7.745	110	130	 L	1	 right	6.663	110	131	 L	1	 right	5.176	110	132	 L	0	 x	8.016	110	133	 L	1	 left	1.764	110	134	 R	1	 right	1.863	110	135	 R	1	 left	3.425	110	136	 L	1	 right	7.174	010	137	 L	0	 x	8.216	110	138	 L	0	 x	8.865	110	139	 L	1	 right	7.865	010	140	 R	0	 x	9.565	110	141	 R	0	 x	10.865	110	142	 R	0	 x	9.354	110	143	 R	0	 x	9.335	110	144	 L	0	 x	9.516	110	145	 L	0	 x	9.709	110	146	 L	0	 x	7.814	110	147	 R	1	 left	5.339	110	148	 L	1	 right	3.541	110	149	 R	0	 x	7.425	110	150	 R	1	 left	6.779	010	151	 R	0	 x	8.173	110	152	 L	1	 left	1.865	110	153	 R	0	 x	8.004	110	154	 L	0	 x	8.764	110	155	 R	1	 left	2.495	110	156	 R	0	 x	6.053	110	157	 R	0	 x	7.496	110	158	 R	0	 x	6.585	110	159	 L	0	 x	7.735	111	1	 R	1	 right	1.949	111	2	 L	0	 x	2.025	111	3	 R	0	 x	2.624	111	4	 R	1	 right	1.614	111	5	 R	1	 right	1.623	111	6	 R	0	 x	2.115	111	7	 L	0	 x	1.754	111	8	 R	0	 x	1.754	111	9	 R	1	 left	2.043	111	10	 R	0	 x	1.782	111	11	 L	1	 right	1.744	111	12	 L	1	 right	1.683	011	13	 R	0	 x	1.994	111	14	 R	0	 x	1.93	111	15	 R	0	 x	2.215	111	16	 R	0	 x	1.674	111	17	 L	1	 left	1.766	111	18	 R	1	 left	2.503	111	19	 L	0	 x	2.194	111	20	 L	1	 right	1.944	111	21	 R	1	 right	1.864	111	22	 R	0	 x	2.194	111	23	 R	0	 x	2.324	111	24	 R	0	 x	1.744	111	25	 L	1	 right	2.024	111	26	 L	1	 left	1.815	111	27	 R	0	 x	1.874	111	28	 R	0	 x	1.7	111	29	 R	1	 right	1.624	111	30	 L	0	 x	1.734	111	31	 L	1	 right	1.699	011	32	 L	1	 left	1.634	111	33	 R	0	 x	2.062	111	34	 L	1	 left	1.684	111	35	 R	0	 x	2.034	111	36	 L	1	 right	2.439	011	37	 L	0	 x	2.024	111	38	 L	1	 left	1.636	111	39	 R	1	 left	2.224	011	40	 L	0	 x	2.383	111	41	 R	0	 x	2.523	111	42	 L	1	 left	1.525	111	43	 R	1	 right	1.591	111	44	 L	0	 x	2.093	111	45	 L	0	 x	1.965	111	46	 L	1	 left	1.604	111	47	 R	0	 x	2.176	111	48	 R	1	 left	1.753	011	49	 R	1	 right	1.494	111	50	 R	1	 left	1.933	111	51	 R	1	 right	1.593	111	52	 L	0	 x	1.834	111	53	 R	0	 x	1.684	111	54	 R	1	 right	1.704	111	55	 L	1	 right	1.834	011	56	 R	1	 right	1.623	111	57	 R	0	 x	2.108	111	58	 R	1	 left	1.834	011	59	 L	0	 x	2.394	111	60	 L	0	 x	1.823	111	61	 R	1	 right	1.604	111	62	 R	0	 x	2.103	111	63	 L	1	 right	1.754	011	64	 L	0	 x	1.905	111	65	 R	0	 x	1.778	111	66	 L	1	 right	1.925	111	67	 L	0	 x	1.914	111	68	 L	1	 right	2.093	111	69	 L	0	 x	1.824	111	70	 R	1	 left	1.955	011	71	 R	1	 left	1.915	111	72	 L	0	 x	1.824	111	73	 R	0	 x	1.915	111	74	 R	0	 x	1.844	111	75	 R	0	 x	1.744	111	76	 L	1	 left	1.555	111	77	 R	1	 left	1.744	111	78	 R	1	 left	1.844	011	79	 R	1	 right	1.654	111	80	 L	1	 left	1.573	111	81	 R	1	 left	1.983	111	82	 L	1	 right	1.774	111	83	 L	0	 x	1.984	111	84	 R	0	 x	2.283	111	85	 L	1	 right	1.833	111	86	 L	0	 x	1.982	111	87	 R	1	 right	1.654	111	88	 R	1	 right	1.694	111	89	 L	1	 right	2.044	111	90	 R	0	 x	2.135	111	91	 R	0	 x	2.054	111	92	 R	1	 right	1.554	111	93	 R	1	 right	2.084	111	94	 R	0	 x	2.163	111	95	 R	0	 x	1.714	111	96	 L	1	 left	1.634	111	97	 L	0	 x	1.743	111	98	 L	1	 right	1.944	111	99	 L	0	 x	2.094	111	100	 L	0	 x	1.874	111	101	 R	1	 right	1.634	111	102	 L	0	 x	2.055	111	103	 R	0	 x	1.804	111	104	 R	0	 x	1.654	111	105	 L	1	 right	1.944	111	106	 L	0	 x	1.933	111	107	 L	0	 x	2.154	111	108	 R	0	 x	1.883	111	109	 R	1	 left	1.813	111	110	 L	1	 left	1.744	111	111	 L	0	 x	1.795	111	112	 R	1	 left	1.984	111	113	 L	1	 left	1.723	111	114	 L	0	 x	2.104	111	115	 R	0	 x	2.515	111	116	 L	1	 left	1.638	111	117	 L	1	 right	1.923	111	118	 R	0	 x	1.825	111	119	 L	1	 left	1.575	111	120	 L	0	 x	2.004	111	121	 R	0	 x	1.963	111	122	 L	0	 x	1.764	111	123	 R	0	 x	1.764	111	124	 R	1	 left	1.725	011	125	 L	1	 right	1.813	011	126	 L	1	 left	1.644	111	127	 R	0	 x	1.738	111	128	 L	0	 x	2.065	111	129	 L	1	 right	1.814	011	130	 R	0	 x	2.044	111	131	 L	0	 x	1.741	111	132	 R	1	 right	1.542	111	133	 R	0	 x	2.215	111	134	 R	0	 x	1.814	111	135	 R	0	 x	1.584	111	136	 R	1	 left	1.732	111	137	 L	1	 right	1.874	111	138	 L	0	 x	1.884	111	139	 R	1	 left	2.033	011	140	 L	0	 x	2.184	111	141	 L	1	 left	1.763	111	142	 R	1	 left	1.764	111	143	 L	1	 left	1.544	111	144	 L	1	 left	1.574	111	145	 L	0	 x	1.653	111	146	 L	0	 x	1.908	111	147	 R	1	 left	1.934	111	148	 L	0	 x	1.784	111	149	 L	1	 left	1.585	111	150	 L	0	 x	2.005	111	151	 R	1	 right	1.879	111	152	 L	0	 x	1.795	111	153	 R	0	 x	2.354	111	154	 L	1	 left	1.553	111	155	 R	1	 left	1.855	011	156	 L	0	 x	2.489	111	157	 R	0	 x	1.724	111	158	 R	1	 left	1.789	011	159	 L	1	 right	1.824	111	160	 L	1	 right	1.875	112	1	 R	0	 x	10.347	112	2	 R	0	 x	9.654	112	3	 R	0	 x	10.005	112	4	 L	1	 left	2.374	112	5	 R	1	 right	2.152	112	6	 R	1	 right	2.063	112	7	 R	1	 left	12.324	012	8	 L	1	 left	2.122	112	9	 L	0	 x	16.566	112	10	 L	0	 x	11.614	112	11	 R	1	 right	2.094	112	12	 L	1	 right	13.515	112	13	 L	1	 right	6.134	112	14	 R	1	 right	2.332	112	15	 L	0	 x	10.915	112	16	 R	0	 x	12.665	112	17	 L	0	 x	13.445	112	18	 L	1	 right	8.124	112	19	 L	0	 x	11.495	112	20	 L	0	 x	11.696	112	21	 R	1	 right	1.854	112	22	 R	1	 left	13.044	012	23	 R	1	 right	1.865	112	24	 R	0	 x	14.166	112	25	 L	1	 left	1.99	112	26	 L	1	 left	1.827	112	27	 R	0	 x	14.973	112	28	 R	0	 x	13.23	112	29	 R	1	 left	11.904	012	30	 L	1	 left	1.936	112	31	 R	1	 left	6.913	112	32	 L	0	 x	14.685	112	33	 L	1	 left	1.787	112	34	 L	1	 left	1.793	112	35	 L	1	 left	1.943	112	36	 L	0	 x	19.626	112	37	 R	0	 x	16.736	112	38	 L	0	 x	13.485	112	39	 L	1	 left	1.905	112	40	 L	0	 x	17.204	112	41	 R	1	 right	1.755	112	42	 R	1	 left	8.114	112	43	 R	0	 x	13.435	112	44	 R	0	 x	14.775	112	45	 L	1	 right	10.004	112	46	 L	0	 x	10.795	112	47	 R	0	 x	18.786	112	48	 R	0	 x	16.196	112	49	 L	1	 left	2.364	112	50	 L	1	 right	13.695	112	51	 R	0	 x	16.777	112	52	 R	0	 x	14.476	112	53	 L	1	 left	1.934	112	54	 L	1	 left	1.654	112	55	 L	0	 x	14.006	112	56	 L	1	 left	1.653	112	57	 L	0	 x	12.855	112	58	 L	0	 x	14.395	112	59	 R	1	 left	12.684	012	60	 L	1	 right	10.175	112	61	 R	1	 right	1.913	112	62	 R	0	 x	18.239	112	63	 L	0	 x	13.725	112	64	 R	0	 x	15.906	112	65	 R	1	 left	13.045	112	66	 R	0	 x	15.606	112	67	 R	1	 left	19.366	012	68	 R	0	 x	23.507	112	69	 R	1	 left	5.484	112	70	 L	1	 left	1.723	112	71	 L	1	 left	2.35	112	72	 L	0	 x	14.795	112	73	 L	0	 x	15.445	112	74	 L	0	 x	16.475	112	75	 L	1	 right	14.177	112	76	 L	0	 x	18.637	112	77	 R	0	 x	20.236	112	78	 L	1	 right	13.856	112	79	 R	1	 right	1.975	112	80	 R	0	 x	13.557	112	81	 R	0	 x	20.296	112	82	 R	0	 x	11.215	112	83	 R	0	 x	17.333	112	84	 R	1	 left	18.386	012	85	 L	0	 x	16.236	112	86	 L	1	 left	1.694	112	87	 R	0	 x	16.345	112	88	 R	1	 left	14.046	012	89	 L	1	 right	15.646	112	90	 R	0	 x	18.736	112	91	 R	0	 x	24.268	112	92	 L	1	 right	19.316	012	93	 L	1	 left	1.816	112	94	 R	1	 left	4.153	112	95	 L	0	 x	14.296	112	96	 L	0	 x	14.472	112	97	 L	0	 x	10.245	112	98	 L	0	 x	19.207	112	99	 L	1	 right	4.244	112	100	 R	0	 x	13.185	112	101	 L	1	 right	13.895	112	102	 L	1	 right	6.624	112	103	 R	1	 right	1.843	112	104	 R	0	 x	17.445	112	105	 R	0	 x	22.587	112	106	 R	1	 left	16.235	112	107	 R	0	 x	20.025	112	108	 R	1	 left	12.886	012	109	 L	0	 x	16.706	112	110	 L	1	 right	3.184	112	111	 R	1	 left	4.094	112	112	 R	1	 left	10.356	112	113	 L	0	 x	14.949	112	114	 R	0	 x	10.159	112	115	 R	0	 x	16.316	112	116	 R	1	 right	1.923	112	117	 L	1	 right	2.301	112	118	 R	0	 x	14.835	112	119	 R	0	 x	11.506	112	120	 L	1	 left	1.783	112	121	 L	0	 x	15.204	112	122	 L	1	 right	17.746	012	123	 R	0	 x	14.436	112	124	 R	0	 x	14.265	112	125	 L	0	 x	13.702	112	126	 R	0	 x	11.515	112	127	 R	1	 right	2.034	112	128	 R	0	 x	14.425	112	129	 R	1	 right	2.104	112	130	 L	0	 x	11.896	112	131	 R	0	 x	13.107	112	132	 L	1	 left	1.669	112	133	 L	0	 x	13.646	112	134	 R	1	 right	1.718	112	135	 L	0	 x	14.335	112	136	 L	1	 right	11.936	112	137	 R	0	 x	13.345	112	138	 R	0	 x	11.125	112	139	 L	1	 left	1.964	112	140	 L	1	 right	13.995	112	141	 R	0	 x	13.696	112	142	 L	1	 right	3.563	112	143	 R	1	 right	1.722	112	144	 L	1	 right	3.264	112	145	 L	0	 x	10.714	112	146	 L	1	 right	5.488	112	147	 R	1	 right	2.714	112	148	 R	1	 left	15.076	012	149	 R	1	 right	1.693	112	150	 R	1	 right	1.744	112	151	 L	0	 x	11.619	112	152	 R	1	 left	6.696	112	153	 L	0	 x	8.771	112	154	 R	1	 left	11.623	112	155	 L	0	 x	13.919	112	156	 R	1	 left	11.025	012	157	 L	0	 x	21.576	112	158	 R	0	 x	11.886	112	159	 R	1	 right	1.714	112	160	 L	0	 x	12.218	113	1	 L	0	 x	6.654	013	2	 R	0	 x	5.525	113	3	 L	0	 x	5.265	013	4	 R	1	 right	2.607	113	5	 R	0	 x	4.974	113	6	 L	0	 x	2.6	013	7	 R	1	 left	2.926	113	8	 R	1	 right	1.604	113	9	 L	0	 x	4.284	113	10	 L	1	 left	1.545	113	11	 R	1	 left	1.901	113	12	 R	1	 right	1.504	113	13	 L	1	 left	1.572	113	14	 L	0	 x	4.264	113	15	 L	1	 right	2.285	113	16	 R	0	 x	4.87	113	17	 R	0	 x	2.885	113	18	 L	1	 right	1.924	113	19	 L	0	 x	3.365	113	20	 R	1	 right	1.533	113	21	 R	0	 x	2.994	113	22	 R	0	 x	3.485	113	23	 R	1	 right	1.604	113	24	 L	1	 left	1.533	113	25	 R	0	 x	3.631	113	26	 L	1	 left	1.494	113	27	 R	0	 x	3.435	113	28	 L	1	 left	1.535	113	29	 R	0	 x	2.715	113	30	 L	0	 x	2.804	113	31	 R	1	 right	1.674	113	32	 L	1	 left	1.545	113	33	 L	1	 right	2.584	113	34	 L	1	 right	1.734	113	35	 L	1	 right	2.364	113	36	 L	0	 x	2.925	113	37	 R	1	 left	1.796	113	38	 R	0	 x	3.117	113	39	 L	1	 right	2.043	113	40	 L	0	 x	2.603	113	41	 R	1	 left	1.554	113	42	 L	0	 x	2.805	113	43	 L	0	 x	2.724	113	44	 R	0	 x	3.365	113	45	 L	0	 x	3.39	113	46	 L	0	 x	2.765	113	47	 L	1	 left	1.485	113	48	 R	1	 right	1.485	013	49	 R	1	 left	2.074	113	50	 L	0	 x	2.794	113	51	 L	1	 left	1.514	113	52	 R	0	 x	2.666	113	53	 L	1	 right	1.916	113	54	 R	1	 right	1.474	113	55	 R	0	 x	2.534	113	56	 R	1	 right	1.494	113	57	 R	0	 x	2.841	113	58	 L	1	 left	1.639	113	59	 R	0	 x	2.529	113	60	 L	0	 x	2.733	113	61	 R	1	 left	1.853	113	62	 L	1	 right	3.364	013	63	 R	0	 x	3.884	113	64	 L	0	 x	2.805	113	65	 R	1	 right	1.518	113	66	 R	0	 x	2.804	113	67	 L	1	 right	2.543	113	68	 L	1	 right	1.704	113	69	 L	0	 x	2.765	113	70	 R	1	 left	2.804	013	71	 R	1	 left	3.544	113	72	 L	1	 right	1.875	113	73	 R	1	 left	2.394	113	74	 R	0	 x	3.255	113	75	 R	0	 x	3.088	113	76	 R	1	 left	3.334	013	77	 R	0	 x	4.165	113	78	 R	0	 x	4.579	113	79	 L	0	 x	3.595	113	80	 R	0	 x	3.166	113	81	 R	1	 left	1.975	113	82	 L	0	 x	2.025	013	83	 R	1	 left	1.673	113	84	 R	1	 left	2.009	113	85	 R	0	 x	3.475	113	86	 L	0	 x	3.05	113	87	 R	1	 left	3.084	013	88	 L	1	 left	1.554	113	89	 R	1	 right	1.604	113	90	 R	1	 right	1.512	113	91	 R	0	 x	2.975	113	92	 L	0	 x	2.895	113	93	 L	0	 x	2.994	113	94	 L	0	 x	2.634	113	95	 L	1	 left	1.605	113	96	 L	1	 right	1.897	113	97	 R	1	 left	2.014	113	98	 L	0	 x	2.485	113	99	 R	0	 x	2.394	113	100	 R	0	 x	2.455	113	101	 L	1	 left	1.472	113	102	 L	0	 x	3.075	113	103	 L	0	 x	2.474	113	104	 R	1	 right	1.594	113	105	 L	1	 right	2.106	113	106	 L	1	 right	1.964	113	107	 R	0	 x	3.434	113	108	 L	1	 right	2.685	113	109	 R	0	 x	4.627	113	110	 L	1	 left	1.764	113	111	 R	1	 left	3.354	113	112	 L	1	 right	1.695	113	113	 L	0	 x	3.314	113	114	 L	1	 right	1.634	113	115	 L	1	 right	2.675	113	116	 R	0	 x	3.355	113	117	 R	0	 x	2.625	113	118	 R	0	 x	3.304	113	119	 R	0	 x	3.453	113	120	 L	1	 left	1.565	113	121	 L	1	 left	1.495	113	122	 L	1	 left	1.504	113	123	 R	1	 left	1.534	113	124	 L	0	 x	3.784	113	125	 L	0	 x	2.665	113	126	 R	1	 right	1.566	113	127	 L	1	 right	2.804	113	128	 R	0	 x	2.715	113	129	 L	0	 x	3.125	113	130	 L	0	 x	2.52	113	131	 L	1	 left	1.523	113	132	 R	0	 x	5.095	113	133	 L	1	 right	1.744	113	134	 L	1	 left	1.466	113	135	 R	1	 left	1.634	113	136	 R	1	 right	1.493	113	137	 L	0	 x	3.005	113	138	 R	1	 left	2.084	113	139	 R	0	 x	2.635	013	140	 R	0	 x	3.094	113	141	 L	0	 x	2.924	113	142	 R	1	 left	2.004	113	143	 R	1	 right	1.594	113	144	 L	1	 left	1.564	113	145	 R	0	 x	3.517	113	146	 R	1	 right	1.454	113	147	 R	1	 right	1.514	113	148	 L	0	 x	4.025	113	149	 L	1	 left	1.725	113	150	 R	1	 right	1.555	113	151	 R	0	 x	3.394	113	152	 R	0	 x	2.875	113	153	 R	0	 x	2.583	113	154	 L	0	 x	3.133	113	155	 R	0	 x	2.885	113	156	 R	0	 x	2.541	113	157	 L	0	 x	3.396	113	158	 L	0	 x	3.905	113	159	 R	0	 x	3.314	113	160	 L	1	 right	2.82	014	1	 R	0	 x	7.29	114	2	 R	0	 x	6.997	114	3	 L	1	 right	6.657	014	4	 L	0	 x	7.212	114	5	 L	1	 right	6.787	014	6	 R	1	 left	2.896	114	7	 R	1	 right	2.656	114	8	 R	1	 left	2.656	114	9	 R	0	 x	7.274	114	10	 L	1	 right	6.718	014	11	 L	0	 x	7.737	114	12	 L	1	 left	2.387	114	13	 L	1	 right	7.827	014	14	 L	0	 x	13.008	014	15	 R	0	 x	10.338	114	16	 R	1	 left	4.835	114	17	 L	1	 left	1.866	114	18	 L	1	 left	2.611	114	19	 R	0	 x	8.757	114	20	 L	0	 x	10.037	114	21	 R	1	 left	7.537	014	22	 L	0	 x	9.096	114	23	 L	1	 left	2.627	114	24	 R	1	 right	2.037	114	25	 L	0	 x	10.806	114	26	 R	0	 x	7.717	114	27	 R	1	 left	3.897	114	28	 R	1	 left	6.478	014	29	 L	0	 x	6.858	114	30	 L	1	 left	1.876	114	31	 R	0	 x	8.157	114	32	 L	1	 left	1.836	114	33	 L	1	 right	5.856	014	34	 R	1	 right	1.806	114	35	 L	1	 left	1.798	114	36	 R	1	 right	1.776	114	37	 R	1	 right	1.836	114	38	 L	1	 right	5.467	114	39	 L	0	 x	5.786	114	40	 L	0	 x	5.717	114	41	 R	0	 x	6.818	114	42	 R	1	 left	4.015	114	43	 L	0	 x	5.966	114	44	 R	0	 x	5.816	114	45	 L	0	 x	5.429	114	46	 R	1	 left	7.976	014	47	 L	1	 left	1.806	114	48	 R	1	 right	1.763	114	49	 L	1	 right	6.547	014	50	 L	1	 left	1.772	114	51	 L	0	 x	7.367	114	52	 R	0	 x	6.317	114	53	 R	1	 left	6.077	014	54	 L	0	 x	7.907	114	55	 L	1	 left	2.005	114	56	 L	1	 left	1.646	114	57	 R	1	 left	5.956	014	58	 L	0	 x	4.187	114	59	 L	0	 x	6.507	114	60	 L	0	 x	6.192	114	61	 R	1	 right	1.827	114	62	 R	0	 x	7.619	114	63	 L	1	 right	4.627	014	64	 R	1	 left	5.762	114	65	 R	1	 left	3.646	114	66	 R	0	 x	7.547	114	67	 L	1	 right	7.008	014	68	 R	1	 left	6.437	114	69	 R	1	 right	2.057	114	70	 R	0	 x	10.678	114	71	 L	0	 x	10.008	114	72	 L	0	 x	11.017	114	73	 R	0	 x	6.647	114	74	 R	0	 x	10.197	114	75	 R	1	 left	3.446	114	76	 R	1	 left	5.027	114	77	 L	1	 left	1.937	114	78	 L	1	 right	8.587	114	79	 L	1	 right	8.597	014	80	 L	1	 left	2.335	114	81	 R	1	 right	2.176	114	82	 L	1	 left	1.816	114	83	 R	1	 right	1.697	114	84	 R	0	 x	9.316	114	85	 L	0	 x	7.956	114	86	 L	0	 x	8.918	114	87	 L	1	 right	3.271	114	88	 R	0	 x	8.536	114	89	 R	0	 x	8.749	114	90	 R	0	 x	8.727	114	91	 L	0	 x	7.703	114	92	 R	0	 x	6.814	114	93	 L	1	 left	2.026	114	94	 R	0	 x	5.968	114	95	 R	0	 x	6.226	114	96	 L	0	 x	5.657	114	97	 R	0	 x	7.786	114	98	 R	1	 left	5.707	014	99	 L	0	 x	5.213	114	100	 L	0	 x	6.117	114	101	 R	1	 right	1.856	114	102	 L	1	 right	4.475	114	103	 L	0	 x	9.457	114	104	 L	1	 right	3.246	114	105	 L	1	 right	8.177	014	106	 L	1	 left	2.506	114	107	 L	1	 right	5.687	114	108	 R	1	 right	1.697	114	109	 L	0	 x	6.487	114	110	 L	1	 left	2.096	114	111	 R	0	 x	6.298	114	112	 R	1	 right	1.698	114	113	 R	1	 left	6.657	014	114	 L	1	 right	2.797	114	115	 R	0	 x	6.727	114	116	 R	1	 left	3.956	114	117	 R	0	 x	4.713	114	118	 R	0	 x	5.197	114	119	 L	0	 x	5.127	114	120	 L	0	 x	5.457	114	121	 L	0	 x	6.198	114	122	 R	0	 x	5.325	114	123	 R	1	 right	1.856	114	124	 R	0	 x	4.946	114	125	 L	1	 right	6.003	014	126	 R	0	 x	5.587	114	127	 R	0	 x	5.907	114	128	 R	0	 x	7.487	114	129	 L	0	 x	5.596	114	130	 R	0	 x	6.236	114	131	 L	1	 right	5.367	114	132	 R	0	 x	6.587	114	133	 L	0	 x	7.256	114	134	 R	1	 right	1.765	114	135	 R	0	 x	5.776	114	136	 R	0	 x	5.387	114	137	 R	1	 right	1.636	114	138	 R	0	 x	5.096	114	139	 R	0	 x	5.321	114	140	 R	1	 right	6.057	014	141	 L	0	 x	7.397	114	142	 R	0	 x	8.086	114	143	 L	1	 right	4.678	114	144	 L	0	 x	6.216	114	145	 L	0	 x	5.707	114	146	 R	1	 left	4.386	114	147	 L	1	 left	1.767	114	148	 L	1	 left	1.796	114	149	 R	0	 x	6.347	114	150	 R	1	 left	2.976	114	151	 L	1	 left	2.037	114	152	 R	0	 x	5.757	114	153	 R	1	 right	1.672	114	154	 R	0	 x	6.037	114	155	 L	1	 right	4.047	014	156	 L	0	 x	5.861	114	157	 R	1	 right	5.506	114	158	 R	0	 x	5.477	114	159	 L	0	 x	5.756	114	160	 L	0	 x	6.267	115	1	 L	0	 x	7.854	115	2	 L	1	 right	6.585	115	3	 R	0	 x	5.925	115	4	 L	1	 right	2.245	115	5	 R	0	 x	5.173	115	6	 L	0	 x	5.494	115	7	 R	1	 left	4.503	115	8	 L	1	 right	6.204	115	9	 R	0	 x	7.736	115	10	 L	0	 x	4.684	115	11	 L	0	 x	4.754	115	12	 R	0	 x	5.305	115	13	 L	1	 left	2.893	115	14	 R	0	 x	6.184	115	15	 L	1	 left	2.032	115	16	 R	1	 left	2.084	115	17	 R	0	 x	5.146	115	18	 L	1	 right	4.742	015	19	 L	0	 x	6.424	115	20	 R	0	 x	6.523	115	21	 L	1	 right	4.193	115	22	 R	1	 left	2.774	115	23	 R	0	 x	6.605	115	24	 L	1	 left	2.18	115	25	 R	1	 left	2.514	115	26	 L	0	 x	5.404	115	27	 R	1	 left	2.542	115	28	 R	1	 right	4.214	015	29	 L	0	 x	6.26	115	30	 R	0	 x	5.234	115	31	 R	1	 right	2.122	115	32	 R	0	 x	4.462	115	33	 L	1	 right	2.704	115	34	 R	1	 right	1.644	115	35	 R	0	 x	5.03	115	36	 L	1	 right	3.617	115	37	 L	0	 x	3.413	115	38	 R	0	 x	4.273	115	39	 L	1	 left	1.944	115	40	 R	0	 x	3.456	115	41	 L	0	 x	4.909	115	42	 L	0	 x	5.604	115	43	 L	1	 left	1.993	115	44	 L	1	 right	3.2	115	45	 R	0	 x	5.002	115	46	 R	1	 right	1.614	115	47	 R	1	 right	1.931	115	48	 R	0	 x	4.064	115	49	 L	1	 left	1.803	115	50	 R	1	 left	3.812	115	51	 L	1	 right	2.253	115	52	 L	1	 right	3.672	115	53	 R	0	 x	5.084	115	54	 R	0	 x	3.484	115	55	 R	1	 right	1.618	115	56	 R	0	 x	4.001	115	57	 L	0	 x	3.382	115	58	 R	1	 right	1.584	115	59	 L	1	 left	1.835	115	60	 L	1	 left	1.579	115	61	 R	0	 x	1.643	015	62	 R	0	 x	3.585	115	63	 R	1	 left	3.674	115	64	 R	0	 x	3.73	115	65	 R	1	 right	3.828	015	66	 R	1	 left	2.669	115	67	 L	1	 left	1.804	115	68	 R	0	 x	1.683	115	69	 L	0	 x	4.584	115	70	 L	0	 x	5.004	115	71	 R	0	 x	5.203	115	72	 R	0	 x	4.264	115	73	 R	1	 left	3.753	015	74	 L	0	 x	5.284	115	75	 L	1	 left	2.263	115	76	 L	1	 left	1.894	115	77	 L	1	 left	1.843	115	78	 R	1	 right	1.691	115	79	 L	1	 right	6.197	015	80	 R	0	 x	5.394	115	81	 L	0	 x	4.974	115	82	 L	1	 left	2.676	115	83	 R	0	 x	4.614	115	84	 L	1	 right	4.253	115	85	 R	1	 left	4.626	015	86	 L	1	 left	1.753	115	87	 R	0	 x	1.213	115	88	 L	0	 x	7.16	115	89	 L	1	 right	4.104	115	90	 R	1	 left	2.874	115	91	 L	1	 left	1.692	115	92	 L	0	 x	5.617	115	93	 R	0	 x	7.815	115	94	 L	1	 right	2.955	115	95	 R	1	 left	3.475	115	96	 L	1	 left	1.689	115	97	 R	1	 left	3.413	115	98	 R	1	 left	2.727	115	99	 L	1	 left	1.533	115	100	 R	0	 x	4.446	115	101	 L	1	 right	2.559	115	102	 R	1	 right	3.971	115	103	 R	1	 right	2.182	115	104	 L	1	 right	6.493	115	105	 R	0	 x	4.572	115	106	 L	1	 left	1.773	115	107	 R	1	 left	2.882	115	108	 R	1	 left	2.364	115	109	 R	1	 left	2.473	115	110	 L	0	 x	5.324	115	111	 R	1	 left	3.163	115	112	 L	0	 x	2.864	115	113	 L	1	 right	4.344	115	114	 L	0	 x	7.171	115	115	 R	0	 x	4.364	115	116	 L	0	 x	1.047	115	117	 L	0	 x	6.033	115	118	 L	1	 left	1.763	115	119	 L	0	 x	5.095	115	120	 L	0	 x	3.879	115	121	 L	0	 x	3.822	115	122	 R	0	 x	5.912	115	123	 R	1	 right	2.312	115	124	 R	1	 right	1.656	115	125	 R	1	 right	1.712	115	126	 L	1	 right	2.149	115	127	 R	0	 x	4.85	115	128	 R	0	 x	4.622	115	129	 L	0	 x	3.303	115	130	 R	0	 x	3.223	115	131	 L	0	 x	5.784	115	132	 R	1	 right	1.694	115	133	 R	0	 x	4.415	115	134	 L	1	 right	3.354	115	135	 L	0	 x	3.613	115	136	 R	0	 x	4.686	115	137	 L	0	 x	4.154	115	138	 R	0	 x	4.63	115	139	 L	0	 x	0.746	115	140	 R	1	 left	2.404	115	141	 R	0	 x	4.842	115	142	 R	1	 right	1.633	115	143	 L	0	 x	4.393	115	144	 R	1	 right	1.553	115	145	 R	0	 x	4.893	115	146	 R	1	 left	3.794	115	147	 R	1	 right	1.743	115	148	 L	0	 x	3.963	115	149	 L	0	 x	3.462	115	150	 L	0	 x	4.099	115	151	 L	0	 x	2.604	115	152	 R	0	 x	3.344	115	153	 L	0	 x	3.998	115	154	 L	1	 right	1.833	115	155	 L	1	 right	1.682	115	156	 L	0	 x	2.892	115	157	 L	1	 left	1.633	115	158	 R	0	 x	5.606	115	159	 R	1	 right	1.492	115	160	 R	0	 x	4.576	116	1	 L	0	 x	10.067	116	2	 R	1	 left	11.016	116	3	 R	0	 x	13.687	116	4	 R	0	 x	11.835	116	5	 L	1	 left	8.685	116	6	 L	1	 right	11.796	116	7	 L	1	 left	2.075	116	8	 L	0	 x	12.036	116	9	 R	0	 x	13.275	116	10	 L	0	 x	16.558	116	11	 R	0	 x	16.386	016	12	 L	0	 x	17.247	116	13	 L	0	 x	17.925	116	14	 R	0	 x	23.437	116	15	 L	1	 right	26.346	016	16	 R	1	 left	25.427	016	17	 R	1	 right	2.453	116	18	 R	0	 x	16.657	116	19	 L	0	 x	17.516	116	20	 L	1	 left	2.564	116	21	 R	1	 left	14.08	116	22	 L	1	 right	16.116	116	23	 L	1	 left	2.454	116	24	 L	1	 left	2.224	116	25	 R	0	 x	17.497	116	26	 L	1	 left	2.044	116	27	 R	0	 x	14.857	116	28	 R	1	 left	19.567	016	29	 R	1	 left	13.555	116	30	 L	0	 x	11.139	016	31	 R	0	 x	19.957	116	32	 L	0	 x	21.507	116	33	 R	0	 x	16.955	116	34	 R	0	 x	20.947	116	35	 R	1	 left	15.667	116	36	 L	0	 x	22.797	116	37	 R	0	 x	23.508	116	38	 L	1	 left	2.505	116	39	 L	1	 right	6.745	116	40	 L	0	 x	21.076	116	41	 R	0	 x	15.197	116	42	 L	1	 right	16.327	016	43	 R	0	 x	19.748	116	44	 R	0	 x	20.595	116	45	 R	0	 x	19.277	116	46	 L	1	 right	22.077	016	47	 L	0	 x	19.713	116	48	 L	1	 left	3.344	116	49	 L	1	 right	7.165	116	50	 R	0	 x	13.865	116	51	 R	0	 x	13.345	116	52	 R	1	 right	1.985	116	53	 L	1	 right	18.107	016	54	 L	1	 right	14.524	016	55	 R	1	 right	2.214	116	56	 R	1	 left	26.024	016	57	 R	0	 x	24.147	116	58	 R	1	 right	1.925	116	59	 R	1	 right	1.694	116	60	 L	0	 x	24.887	116	61	 R	1	 left	3.255	116	62	 R	0	 x	19.967	116	63	 R	1	 left	25.208	016	64	 L	0	 x	15.786	116	65	 R	1	 right	1.904	116	66	 R	0	 x	16.646	116	67	 L	0	 x	14.826	116	68	 R	0	 x	19.467	116	69	 R	0	 x	17.737	116	70	 R	1	 right	1.934	116	71	 L	1	 right	12.205	116	72	 L	0	 x	20.33	116	73	 R	1	 left	4.325	116	74	 R	0	 x	14.357	116	75	 L	1	 left	2.384	116	76	 R	0	 x	15.792	116	77	 R	1	 left	18.037	016	78	 R	1	 right	1.915	116	79	 R	0	 x	11.486	116	80	 L	0	 x	15.426	116	81	 R	0	 x	15.245	116	82	 L	0	 x	14.216	116	83	 L	1	 right	13.951	016	84	 L	1	 left	1.874	116	85	 L	1	 left	1.753	116	86	 R	1	 right	2.174	116	87	 L	0	 x	15.695	116	88	 L	0	 x	14.407	116	89	 L	0	 x	16.176	116	90	 R	1	 right	1.953	116	91	 R	1	 right	1.676	116	92	 R	0	 x	16.827	116	93	 L	0	 x	17.867	116	94	 L	0	 x	15.666	116	95	 R	1	 left	6.865	116	96	 R	1	 left	5.295	116	97	 L	0	 x	18.757	116	98	 L	1	 left	1.824	116	99	 R	1	 right	17.447	016	100	 R	1	 right	2.956	116	101	 R	1	 right	1.705	116	102	 R	0	 x	16.407	116	103	 R	1	 left	7.356	116	104	 L	1	 left	2.434	116	105	 L	1	 right	7.575	116	106	 L	1	 left	5.546	116	107	 L	1	 left	1.775	116	108	 L	0	 x	13.906	116	109	 L	1	 right	6.007	116	110	 R	1	 left	11.455	116	111	 R	0	 x	21.757	116	112	 R	1	 left	3.325	116	113	 R	1	 right	2.025	116	114	 R	0	 x	14.306	116	115	 L	1	 left	1.854	116	116	 L	0	 x	19.916	116	117	 L	1	 left	1.804	116	118	 L	1	 right	3.924	116	119	 R	0	 x	16.045	116	120	 R	1	 right	1.715	116	121	 L	1	 right	17.297	116	122	 L	0	 x	14.075	116	123	 R	1	 right	1.713	116	124	 R	0	 x	13.296	116	125	 L	0	 x	17.057	116	126	 R	1	 left	8.715	116	127	 R	0	 x	14.68	116	128	 R	1	 left	10.367	116	129	 R	0	 x	14.546	116	130	 R	0	 x	12.095	116	131	 L	0	 x	12.809	116	132	 R	0	 x	10.536	116	133	 L	1	 right	5.074	116	134	 L	1	 right	5.683	116	135	 R	1	 right	2.055	116	136	 R	0	 x	11.12	116	137	 R	0	 x	13.886	116	138	 R	1	 left	5.384	116	139	 L	1	 left	1.834	116	140	 L	0	 x	13.385	116	141	 L	1	 right	3.17	116	142	 L	0	 x	13.276	116	143	 L	1	 right	3.024	116	144	 L	0	 x	11.661	116	145	 L	0	 x	8.985	116	146	 L	1	 left	1.785	116	147	 R	1	 right	1.765	116	148	 L	0	 x	10.372	116	149	 L	0	 x	11.576	116	150	 L	1	 left	1.854	116	151	 L	0	 x	13.956	116	152	 R	0	 x	12.416	116	153	 L	0	 x	12.206	116	154	 R	0	 x	15.276	116	155	 L	0	 x	16.375	116	156	 L	1	 right	12.185	116	157	 L	1	 right	2.434	116	158	 R	0	 x	19.957	116	159	 R	0	 x	13.046	1