subNum	 trialNo	 easySide	 targPresent	 targSide	 RT	 accuracy	 var	 con
1	 1	 x	 0	 x	 6.881	 1	 6	 full
1	 2	 x	 1	 right	 5.339	 1	 1.7	 full
1	 3	 x	 0	 x	 5.698	 1	 1.7	 full
1	 4	 x	 1	 left	 4.808	 1	 1.7	 full
1	 5	 x	 1	 right	 1.799	 1	 6	 full
1	 6	 x	 1	 right	 1.923	 1	 1.7	 full
1	 7	 x	 0	 x	 3.204	 1	 6	 full
1	 8	 L	 1	 left	 1.573	 1	 x	 half
1	 9	 x	 0	 x	 3.241	 1	 6	 full
1	 10	 x	 1	 right	 1.568	 1	 6	 full
1	 11	 x	 1	 right	 1.742	 1	 1.7	 full
1	 12	 x	 0	 x	 1.802	 1	 6	 full
1	 13	 x	 1	 right	 2.303	 1	 1.7	 full
1	 14	 x	 1	 left	 1.502	 1	 6	 full
1	 15	 L	 0	 x	 7.126	 1	 x	 half
1	 16	 L	 1	 right	 1.722	 1	 x	 half
1	 17	 L	 1	 left	 1.513	 1	 x	 half
1	 18	 x	 0	 x	 3.118	 1	 6	 full
1	 19	 L	 1	 left	 1.541	 1	 x	 half
1	 20	 R	 0	 x	 3.989	 1	 x	 half
1	 21	 L	 1	 left	 1.511	 1	 x	 half
1	 22	 x	 1	 right	 1.733	 1	 6	 full
1	 23	 x	 0	 x	 2.982	 1	 1.7	 full
1	 24	 x	 0	 x	 3.502	 1	 1.7	 full
1	 25	 x	 0	 x	 4.209	 1	 1.7	 full
1	 26	 x	 1	 right	 2.321	 1	 1.7	 full
1	 27	 x	 0	 x	 3.391	 1	 1.7	 full
1	 28	 L	 0	 x	 4.694	 1	 x	 half
1	 29	 x	 0	 x	 2.292	 1	 6	 full
1	 30	 x	 1	 right	 2.991	 1	 1.7	 full
1	 31	 L	 1	 right	 2.132	 1	 x	 half
1	 32	 R	 1	 right	 1.582	 1	 x	 half
1	 33	 x	 1	 right	 1.603	 1	 6	 full
1	 34	 R	 1	 left	 3.657	 1	 x	 half
1	 35	 x	 1	 right	 1.743	 1	 6	 full
1	 36	 x	 1	 right	 1.515	 1	 6	 full
1	 37	 x	 1	 right	 1.482	 1	 6	 full
1	 38	 x	 0	 x	 4.045	 1	 1.7	 full
1	 39	 x	 0	 x	 4.220	 1	 1.7	 full
1	 40	 R	 0	 x	 4.700	 1	 x	 half
1	 41	 R	 0	 x	 3.520	 1	 x	 half
1	 42	 L	 0	 x	 6.057	 1	 x	 half
1	 43	 x	 1	 left	 1.561	 1	 6	 full
1	 44	 x	 0	 x	 2.741	 1	 1.7	 full
1	 45	 R	 0	 x	 5.768	 1	 x	 half
1	 46	 L	 1	 left	 1.841	 1	 x	 half
1	 47	 x	 0	 x	 2.623	 1	 6	 full
1	 48	 x	 1	 left	 1.982	 1	 1.7	 full
1	 49	 x	 1	 left	 1.613	 1	 6	 full
1	 50	 x	 1	 right	 1.872	 1	 6	 full
1	 51	 x	 1	 left	 2.232	 1	 1.7	 full
1	 52	 x	 0	 x	 5.288	 1	 1.7	 full
1	 53	 x	 0	 x	 3.810	 1	 1.7	 full
1	 54	 L	 1	 left	 1.702	 1	 x	 half
1	 55	 x	 1	 right	 2.132	 1	 1.7	 full
1	 56	 x	 1	 right	 1.523	 1	 6	 full
1	 57	 x	 1	 left	 2.165	 1	 1.7	 full
1	 58	 R	 1	 left	 1.632	 1	 x	 half
1	 59	 x	 1	 right	 1.493	 1	 6	 full
1	 60	 L	 1	 right	 2.771	 1	 x	 half
1	 61	 x	 1	 left	 1.759	 1	 1.7	 full
1	 62	 x	 0	 x	 3.721	 1	 1.7	 full
1	 63	 R	 1	 left	 1.538	 1	 x	 half
1	 64	 R	 1	 right	 1.551	 1	 x	 half
1	 65	 x	 1	 right	 2.012	 0	 6	 full
1	 66	 x	 0	 x	 2.871	 1	 6	 full
1	 67	 R	 1	 left	 1.742	 1	 x	 half
1	 68	 x	 0	 x	 2.362	 1	 6	 full
1	 69	 R	 0	 x	 4.111	 1	 x	 half
1	 70	 R	 1	 right	 1.661	 1	 x	 half
1	 71	 x	 0	 x	 3.761	 1	 1.7	 full
1	 72	 x	 1	 right	 2.501	 1	 1.7	 full
1	 73	 L	 0	 x	 4.520	 1	 x	 half
1	 74	 L	 0	 x	 5.046	 1	 x	 half
1	 75	 x	 0	 x	 2.312	 1	 6	 full
1	 76	 x	 1	 left	 1.833	 1	 6	 full
1	 77	 R	 1	 right	 1.553	 1	 x	 half
1	 78	 x	 1	 right	 1.872	 1	 1.7	 full
1	 79	 x	 0	 x	 1.992	 1	 6	 full
1	 80	 R	 1	 right	 1.512	 1	 x	 half
1	 81	 x	 1	 left	 2.575	 1	 1.7	 full
1	 82	 x	 1	 right	 1.471	 1	 6	 full
1	 83	 x	 0	 x	 1.743	 1	 6	 full
1	 84	 R	 0	 x	 3.240	 1	 x	 half
1	 85	 L	 1	 left	 1.521	 1	 x	 half
1	 86	 x	 0	 x	 2.221	 1	 6	 full
1	 87	 R	 0	 x	 4.660	 1	 x	 half
1	 88	 L	 0	 x	 4.160	 1	 x	 half
1	 89	 x	 0	 x	 2.202	 1	 6	 full
1	 90	 x	 0	 x	 7.697	 1	 1.7	 full
1	 91	 R	 0	 x	 3.291	 1	 x	 half
1	 92	 x	 0	 x	 3.161	 1	 1.7	 full
1	 93	 x	 1	 left	 1.721	 1	 6	 full
1	 94	 L	 0	 x	 2.923	 1	 x	 half
1	 95	 x	 1	 right	 3.559	 0	 1.7	 full
1	 96	 x	 0	 x	 5.289	 1	 1.7	 full
1	 97	 x	 0	 x	 1.871	 1	 6	 full
1	 98	 x	 0	 x	 2.001	 1	 6	 full
1	 99	 x	 0	 x	 1.712	 1	 6	 full
1	 100	 x	 0	 x	 2.431	 1	 6	 full
1	 101	 R	 1	 right	 2.140	 1	 x	 half
1	 102	 x	 0	 x	 3.780	 1	 1.7	 full
1	 103	 R	 1	 right	 1.562	 1	 x	 half
1	 104	 L	 0	 x	 3.850	 1	 x	 half
1	 105	 L	 0	 x	 3.602	 1	 x	 half
1	 106	 L	 1	 right	 4.051	 0	 x	 half
1	 107	 x	 1	 right	 1.671	 1	 6	 full
1	 108	 x	 1	 right	 1.902	 1	 1.7	 full
1	 109	 x	 0	 x	 2.421	 1	 6	 full
1	 110	 x	 0	 x	 2.691	 1	 6	 full
1	 111	 x	 0	 x	 2.513	 1	 6	 full
1	 112	 x	 0	 x	 2.338	 0	 1.7	 full
1	 113	 x	 0	 x	 2.132	 1	 6	 full
1	 114	 L	 1	 right	 2.431	 1	 x	 half
1	 115	 L	 1	 left	 1.531	 1	 x	 half
1	 116	 R	 0	 x	 3.690	 1	 x	 half
1	 117	 L	 0	 x	 3.831	 1	 x	 half
1	 118	 R	 1	 right	 1.493	 1	 x	 half
1	 119	 R	 0	 x	 5.079	 1	 x	 half
1	 120	 x	 1	 left	 1.601	 1	 6	 full
1	 121	 x	 0	 x	 2.671	 1	 6	 full
1	 122	 x	 1	 right	 1.668	 1	 6	 full
1	 123	 x	 1	 left	 1.473	 1	 6	 full
1	 124	 x	 1	 left	 3.431	 0	 1.7	 full
1	 125	 R	 0	 x	 7.987	 1	 x	 half
1	 126	 x	 1	 left	 1.532	 1	 6	 full
1	 127	 x	 0	 x	 1.762	 1	 6	 full
1	 128	 x	 1	 left	 1.612	 1	 1.7	 full
1	 129	 x	 0	 x	 2.122	 1	 6	 full
1	 130	 x	 0	 x	 5.249	 0	 1.7	 full
1	 131	 x	 1	 left	 1.646	 1	 6	 full
1	 132	 R	 0	 x	 4.301	 1	 x	 half
1	 133	 x	 0	 x	 3.590	 1	 1.7	 full
1	 134	 L	 1	 right	 3.480	 0	 x	 half
1	 135	 x	 0	 x	 3.940	 0	 1.7	 full
1	 136	 R	 0	 x	 5.643	 1	 x	 half
1	 137	 R	 0	 x	 2.811	 1	 x	 half
1	 138	 x	 1	 left	 1.613	 1	 6	 full
1	 139	 R	 1	 left	 3.221	 1	 x	 half
1	 140	 x	 0	 x	 3.021	 0	 1.7	 full
1	 141	 x	 0	 x	 2.083	 1	 6	 full
1	 142	 R	 0	 x	 5.450	 1	 x	 half
1	 143	 R	 1	 right	 1.624	 1	 x	 half
1	 144	 x	 0	 x	 3.710	 1	 1.7	 full
1	 145	 x	 0	 x	 2.880	 1	 1.7	 full
1	 146	 x	 1	 left	 1.512	 1	 6	 full
1	 147	 x	 1	 left	 1.886	 1	 1.7	 full
1	 148	 x	 0	 x	 3.142	 1	 1.7	 full
1	 149	 x	 1	 right	 1.703	 1	 6	 full
1	 150	 x	 0	 x	 2.152	 1	 6	 full
1	 151	 x	 1	 left	 1.862	 1	 6	 full
1	 152	 R	 1	 left	 1.771	 1	 x	 half
1	 153	 x	 0	 x	 3.412	 1	 1.7	 full
1	 154	 x	 0	 x	 2.991	 1	 1.7	 full
1	 155	 L	 1	 right	 2.862	 0	 x	 half
1	 156	 x	 0	 x	 1.814	 1	 6	 full
1	 157	 x	 1	 right	 3.330	 1	 1.7	 full
1	 158	 x	 1	 left	 6.037	 0	 1.7	 full
1	 159	 x	 1	 left	 1.543	 1	 6	 full
1	 160	 R	 0	 x	 5.679	 1	 x	 half
1	 161	 L	 0	 x	 3.372	 1	 x	 half
1	 162	 x	 1	 left	 1.872	 1	 6	 full
1	 163	 x	 1	 right	 1.782	 1	 6	 full
1	 164	 x	 0	 x	 4.421	 1	 1.7	 full
1	 165	 x	 1	 left	 3.790	 1	 1.7	 full
1	 166	 L	 1	 left	 1.589	 1	 x	 half
1	 167	 x	 1	 right	 2.363	 1	 1.7	 full
1	 168	 x	 0	 x	 4.989	 1	 1.7	 full
1	 169	 x	 0	 x	 2.272	 1	 1.7	 full
1	 170	 L	 0	 x	 4.479	 1	 x	 half
1	 171	 x	 0	 x	 3.281	 1	 1.7	 full
1	 172	 x	 0	 x	 2.761	 1	 1.7	 full
1	 173	 x	 0	 x	 2.792	 1	 1.7	 full
1	 174	 L	 0	 x	 2.509	 1	 x	 half
1	 175	 x	 1	 left	 1.702	 1	 1.7	 full
1	 176	 x	 1	 right	 2.402	 1	 1.7	 full
1	 177	 R	 1	 right	 1.592	 1	 x	 half
1	 178	 x	 1	 right	 1.623	 1	 6	 full
1	 179	 x	 1	 left	 2.002	 1	 1.7	 full
1	 180	 x	 1	 left	 1.923	 1	 1.7	 full
1	 181	 L	 1	 left	 1.471	 1	 x	 half
1	 182	 x	 1	 right	 1.742	 1	 1.7	 full
1	 183	 L	 0	 x	 3.031	 1	 x	 half
1	 184	 L	 0	 x	 2.931	 1	 x	 half
1	 185	 L	 0	 x	 2.011	 1	 x	 half
1	 186	 x	 1	 left	 1.502	 1	 6	 full
1	 187	 x	 0	 x	 2.772	 1	 1.7	 full
1	 188	 L	 1	 left	 1.473	 1	 x	 half
1	 189	 x	 1	 right	 3.041	 1	 1.7	 full
1	 190	 x	 0	 x	 4.849	 1	 1.7	 full
1	 191	 L	 0	 x	 1.911	 1	 x	 half
1	 192	 x	 0	 x	 1.871	 1	 6	 full
1	 193	 x	 1	 left	 1.942	 1	 1.7	 full
1	 194	 L	 0	 x	 3.251	 1	 x	 half
1	 195	 x	 1	 left	 2.840	 1	 1.7	 full
1	 196	 x	 0	 x	 4.240	 1	 1.7	 full
1	 197	 x	 1	 right	 1.813	 1	 1.7	 full
1	 198	 x	 1	 left	 2.152	 1	 1.7	 full
1	 199	 x	 0	 x	 2.083	 1	 6	 full
1	 200	 L	 0	 x	 1.652	 0	 x	 half
1	 201	 x	 0	 x	 1.655	 1	 6	 full
1	 202	 x	 0	 x	 1.772	 1	 6	 full
1	 203	 x	 1	 left	 1.518	 1	 6	 full
1	 204	 L	 1	 left	 1.473	 1	 x	 half
1	 205	 x	 1	 left	 1.522	 1	 6	 full
1	 206	 x	 0	 x	 3.021	 1	 1.7	 full
1	 207	 x	 0	 x	 1.794	 1	 6	 full
1	 208	 R	 0	 x	 2.987	 1	 x	 half
1	 209	 x	 1	 left	 1.561	 1	 6	 full
1	 210	 x	 1	 left	 1.422	 1	 6	 full
1	 211	 x	 0	 x	 1.602	 1	 6	 full
1	 212	 x	 0	 x	 1.983	 0	 1.7	 full
1	 213	 x	 1	 right	 1.573	 1	 6	 full
1	 214	 x	 1	 right	 1.832	 1	 1.7	 full
1	 215	 x	 0	 x	 1.633	 1	 6	 full
1	 216	 x	 1	 right	 1.793	 1	 6	 full
1	 217	 R	 0	 x	 1.723	 1	 x	 half
1	 218	 L	 1	 left	 1.503	 1	 x	 half
1	 219	 x	 0	 x	 1.792	 1	 6	 full
1	 220	 L	 1	 left	 1.512	 1	 x	 half
1	 221	 x	 1	 right	 1.602	 1	 1.7	 full
1	 222	 x	 0	 x	 1.853	 1	 1.7	 full
1	 223	 x	 1	 right	 1.693	 1	 1.7	 full
1	 224	 x	 0	 x	 2.202	 0	 1.7	 full
1	 225	 L	 1	 right	 1.482	 1	 x	 half
1	 226	 x	 0	 x	 1.672	 1	 6	 full
1	 227	 x	 1	 left	 2.202	 0	 1.7	 full
1	 228	 x	 1	 right	 1.462	 1	 6	 full
1	 229	 L	 1	 right	 1.822	 0	 x	 half
1	 230	 x	 1	 left	 2.182	 1	 1.7	 full
1	 231	 R	 0	 x	 1.762	 1	 x	 half
1	 232	 x	 0	 x	 5.529	 1	 1.7	 full
1	 233	 x	 1	 left	 2.791	 1	 1.7	 full
1	 234	 x	 1	 left	 1.472	 1	 6	 full
1	 235	 L	 0	 x	 2.222	 1	 x	 half
1	 236	 x	 0	 x	 1.791	 1	 6	 full
1	 237	 R	 1	 right	 1.709	 1	 x	 half
1	 238	 x	 0	 x	 1.742	 1	 6	 full
1	 239	 x	 0	 x	 1.783	 1	 6	 full
1	 240	 L	 0	 x	 3.451	 1	 x	 half
2	 1	 x	 1	 left	 10.471	 1	 6	 full
2	 2	 x	 0	 x	 5.259	 1	 6	 full
2	 3	 L	 1	 right	 7.346	 1	 x	 half
2	 4	 x	 1	 right	 2.261	 1	 6	 full
2	 5	 L	 1	 right	 10.040	 1	 x	 half
2	 6	 x	 1	 left	 2.640	 1	 6	 full
2	 7	 x	 0	 x	 19.156	 1	 1.7	 full
2	 8	 x	 1	 left	 10.535	 1	 1.7	 full
2	 9	 x	 1	 right	 7.605	 1	 1.7	 full
2	 10	 R	 0	 x	 15.698	 1	 x	 half
2	 11	 x	 1	 right	 17.143	 0	 1.7	 full
2	 12	 x	 1	 right	 2.910	 1	 1.7	 full
2	 13	 L	 0	 x	 10.124	 1	 x	 half
2	 14	 x	 0	 x	 6.486	 1	 6	 full
2	 15	 x	 1	 right	 8.560	 1	 1.7	 full
2	 16	 x	 1	 right	 2.370	 1	 6	 full
2	 17	 x	 1	 left	 4.570	 1	 1.7	 full
2	 18	 x	 0	 x	 5.068	 1	 6	 full
2	 19	 x	 0	 x	 4.658	 1	 6	 full
2	 20	 x	 1	 right	 2.135	 1	 6	 full
2	 21	 x	 0	 x	 6.128	 1	 6	 full
2	 22	 x	 1	 left	 2.179	 1	 6	 full
2	 23	 x	 0	 x	 5.947	 1	 6	 full
2	 24	 x	 1	 right	 2.011	 1	 6	 full
2	 25	 x	 1	 left	 13.891	 1	 1.7	 full
2	 26	 x	 0	 x	 19.666	 1	 1.7	 full
2	 27	 x	 1	 left	 2.151	 1	 6	 full
2	 28	 R	 0	 x	 10.884	 1	 x	 half
2	 29	 x	 0	 x	 6.770	 1	 6	 full
2	 30	 x	 0	 x	 5.704	 1	 6	 full
2	 31	 L	 1	 left	 2.271	 1	 x	 half
2	 32	 R	 0	 x	 15.849	 1	 x	 half
2	 33	 x	 1	 right	 6.147	 1	 1.7	 full
2	 34	 x	 0	 x	 5.798	 1	 6	 full
2	 35	 x	 1	 left	 17.244	 0	 1.7	 full
2	 36	 L	 1	 right	 10.983	 1	 x	 half
2	 37	 L	 1	 right	 14.731	 1	 x	 half
2	 38	 L	 1	 left	 2.226	 1	 x	 half
2	 39	 L	 0	 x	 9.549	 0	 x	 half
2	 40	 x	 0	 x	 8.156	 1	 6	 full
2	 41	 x	 0	 x	 8.625	 1	 6	 full
2	 42	 L	 0	 x	 24.756	 1	 x	 half
2	 43	 R	 1	 right	 5.677	 1	 x	 half
2	 44	 L	 1	 left	 2.121	 1	 x	 half
2	 45	 L	 0	 x	 15.470	 1	 x	 half
2	 46	 L	 0	 x	 16.409	 1	 x	 half
2	 47	 x	 1	 right	 1.972	 1	 6	 full
2	 48	 x	 1	 left	 1.785	 1	 6	 full
2	 49	 L	 1	 left	 2.021	 1	 x	 half
2	 50	 x	 1	 left	 1.711	 1	 6	 full
2	 51	 R	 1	 right	 1.882	 1	 x	 half
2	 52	 R	 1	 right	 1.860	 1	 x	 half
2	 53	 R	 0	 x	 18.506	 1	 x	 half
2	 54	 x	 1	 right	 1.941	 1	 6	 full
2	 55	 x	 0	 x	 10.075	 1	 6	 full
2	 56	 x	 0	 x	 18.986	 1	 1.7	 full
2	 57	 x	 0	 x	 16.685	 1	 1.7	 full
2	 58	 x	 0	 x	 3.200	 1	 6	 full
2	 59	 x	 1	 right	 2.210	 0	 6	 full
2	 60	 x	 0	 x	 3.499	 1	 6	 full
2	 61	 x	 0	 x	 19.070	 0	 1.7	 full
2	 62	 x	 1	 left	 18.473	 0	 1.7	 full
2	 63	 x	 0	 x	 10.622	 0	 1.7	 full
2	 64	 x	 1	 right	 32.334	 0	 1.7	 full
2	 65	 x	 1	 right	 1.970	 1	 6	 full
2	 66	 x	 1	 left	 25.921	 1	 1.7	 full
2	 67	 x	 0	 x	 40.706	 1	 1.7	 full
2	 68	 x	 0	 x	 27.291	 1	 1.7	 full
2	 69	 L	 0	 x	 5.864	 0	 x	 half
2	 70	 L	 0	 x	 22.863	 0	 x	 half
2	 71	 x	 1	 left	 5.706	 1	 1.7	 full
2	 72	 x	 1	 right	 2.042	 1	 6	 full
2	 73	 x	 1	 right	 3.280	 1	 1.7	 full
2	 74	 L	 1	 left	 2.047	 1	 x	 half
2	 75	 x	 0	 x	 23.164	 1	 1.7	 full
2	 76	 x	 0	 x	 14.220	 1	 1.7	 full
2	 77	 x	 0	 x	 4.939	 1	 6	 full
2	 78	 x	 1	 left	 17.676	 0	 1.7	 full
2	 79	 x	 0	 x	 2.928	 1	 6	 full
2	 80	 x	 1	 left	 9.694	 1	 1.7	 full
2	 81	 x	 1	 left	 2.061	 1	 6	 full
2	 82	 L	 1	 left	 1.962	 1	 x	 half
2	 83	 x	 0	 x	 19.767	 1	 1.7	 full
2	 84	 R	 1	 left	 4.329	 1	 x	 half
2	 85	 L	 0	 x	 14.620	 1	 x	 half
2	 86	 x	 0	 x	 3.429	 1	 6	 full
2	 87	 x	 0	 x	 20.369	 1	 1.7	 full
2	 88	 x	 0	 x	 3.289	 1	 6	 full
2	 89	 x	 0	 x	 4.010	 1	 6	 full
2	 90	 R	 1	 right	 2.000	 1	 x	 half
2	 91	 x	 1	 left	 2.191	 1	 6	 full
2	 92	 x	 0	 x	 3.019	 1	 6	 full
2	 93	 x	 1	 right	 1.920	 1	 6	 full
2	 94	 L	 0	 x	 11.053	 1	 x	 half
2	 95	 R	 1	 left	 6.928	 1	 x	 half
2	 96	 x	 1	 left	 1.991	 1	 6	 full
2	 97	 x	 1	 left	 12.202	 0	 1.7	 full
2	 98	 x	 1	 right	 26.600	 0	 1.7	 full
2	 99	 R	 1	 right	 2.360	 1	 x	 half
2	 100	 R	 1	 right	 1.817	 1	 x	 half
2	 101	 x	 1	 left	 2.367	 1	 6	 full
2	 102	 L	 0	 x	 17.488	 0	 x	 half
2	 103	 x	 0	 x	 3.159	 0	 1.7	 full
2	 104	 x	 0	 x	 3.310	 1	 6	 full
2	 105	 R	 0	 x	 14.727	 0	 x	 half
2	 106	 R	 1	 left	 15.121	 1	 x	 half
2	 107	 R	 0	 x	 25.641	 1	 x	 half
2	 108	 x	 0	 x	 10.822	 1	 1.7	 full
2	 109	 L	 1	 left	 2.581	 1	 x	 half
2	 110	 R	 1	 left	 17.408	 0	 x	 half
2	 111	 R	 1	 right	 1.879	 1	 x	 half
2	 112	 L	 1	 left	 1.935	 1	 x	 half
2	 113	 x	 1	 right	 2.104	 1	 6	 full
2	 114	 x	 0	 x	 29.727	 1	 1.7	 full
2	 115	 x	 1	 left	 2.062	 1	 6	 full
2	 116	 x	 0	 x	 11.563	 1	 1.7	 full
2	 117	 x	 1	 right	 4.400	 1	 1.7	 full
2	 118	 L	 1	 left	 2.101	 1	 x	 half
2	 119	 x	 1	 left	 1.891	 1	 6	 full
2	 120	 x	 0	 x	 7.726	 0	 1.7	 full
2	 121	 x	 0	 x	 24.792	 1	 1.7	 full
2	 122	 x	 1	 left	 15.001	 0	 1.7	 full
2	 123	 x	 0	 x	 3.382	 1	 6	 full
2	 124	 x	 0	 x	 2.851	 1	 6	 full
2	 125	 L	 0	 x	 18.916	 1	 x	 half
2	 126	 x	 0	 x	 2.071	 1	 6	 full
2	 127	 x	 0	 x	 10.084	 0	 1.7	 full
2	 128	 x	 1	 right	 2.034	 1	 6	 full
2	 129	 x	 1	 right	 1.902	 1	 6	 full
2	 130	 x	 0	 x	 2.251	 1	 6	 full
2	 131	 x	 0	 x	 15.219	 1	 1.7	 full
2	 132	 x	 0	 x	 2.370	 1	 6	 full
2	 133	 x	 0	 x	 13.060	 1	 1.7	 full
2	 134	 L	 0	 x	 13.232	 1	 x	 half
2	 135	 x	 0	 x	 2.012	 1	 6	 full
2	 136	 x	 1	 right	 2.701	 1	 1.7	 full
2	 137	 L	 1	 left	 2.075	 1	 x	 half
2	 138	 R	 0	 x	 20.235	 1	 x	 half
2	 139	 x	 1	 left	 1.877	 1	 6	 full
2	 140	 R	 0	 x	 16.318	 1	 x	 half
2	 141	 x	 0	 x	 20.430	 1	 1.7	 full
2	 142	 L	 0	 x	 12.131	 1	 x	 half
2	 143	 x	 0	 x	 2.121	 1	 6	 full
2	 144	 L	 0	 x	 14.890	 1	 x	 half
2	 145	 L	 0	 x	 17.137	 1	 x	 half
2	 146	 R	 1	 right	 1.932	 1	 x	 half
2	 147	 x	 0	 x	 9.726	 1	 1.7	 full
2	 148	 R	 1	 right	 1.981	 1	 x	 half
2	 149	 x	 0	 x	 9.684	 1	 1.7	 full
2	 150	 x	 1	 left	 15.920	 0	 1.7	 full
2	 151	 x	 1	 right	 1.932	 1	 6	 full
2	 152	 x	 0	 x	 2.587	 1	 6	 full
2	 153	 R	 0	 x	 10.363	 1	 x	 half
2	 154	 R	 0	 x	 12.502	 1	 x	 half
2	 155	 R	 0	 x	 14.042	 1	 x	 half
2	 156	 x	 1	 left	 9.175	 0	 1.7	 full
2	 157	 x	 1	 left	 1.900	 1	 6	 full
2	 158	 L	 0	 x	 11.432	 1	 x	 half
2	 159	 x	 0	 x	 17.049	 1	 1.7	 full
2	 160	 x	 0	 x	 12.415	 0	 1.7	 full
2	 161	 R	 1	 left	 8.616	 0	 x	 half
2	 162	 x	 1	 left	 12.682	 1	 1.7	 full
2	 163	 L	 1	 left	 1.982	 1	 x	 half
2	 164	 x	 0	 x	 16.798	 1	 1.7	 full
2	 165	 x	 0	 x	 17.076	 1	 1.7	 full
2	 166	 x	 1	 right	 12.233	 0	 1.7	 full
2	 167	 x	 1	 left	 11.592	 1	 1.7	 full
2	 168	 x	 1	 left	 20.075	 1	 1.7	 full
2	 169	 x	 1	 right	 11.043	 0	 1.7	 full
2	 170	 x	 1	 right	 3.591	 1	 1.7	 full
2	 171	 R	 0	 x	 14.652	 1	 x	 half
2	 172	 x	 0	 x	 2.012	 1	 6	 full
2	 173	 x	 1	 left	 1.920	 1	 6	 full
2	 174	 x	 0	 x	 17.886	 1	 1.7	 full
2	 175	 x	 0	 x	 2.002	 1	 6	 full
2	 176	 x	 1	 right	 12.203	 1	 1.7	 full
2	 177	 x	 1	 right	 4.402	 1	 1.7	 full
2	 178	 x	 1	 left	 1.991	 1	 6	 full
2	 179	 x	 1	 left	 1.779	 1	 6	 full
2	 180	 L	 1	 right	 12.642	 0	 x	 half
2	 181	 x	 1	 left	 1.861	 1	 6	 full
2	 182	 x	 0	 x	 2.161	 1	 6	 full
2	 183	 R	 0	 x	 11.832	 1	 x	 half
2	 184	 x	 0	 x	 2.002	 1	 6	 full
2	 185	 x	 0	 x	 2.291	 1	 6	 full
2	 186	 x	 1	 right	 18.316	 0	 1.7	 full
2	 187	 x	 0	 x	 12.934	 1	 1.7	 full
2	 188	 x	 1	 right	 1.880	 1	 6	 full
2	 189	 x	 1	 left	 18.177	 0	 1.7	 full
2	 190	 L	 1	 right	 8.732	 0	 x	 half
2	 191	 x	 1	 right	 1.920	 1	 6	 full
2	 192	 L	 1	 right	 5.208	 1	 x	 half
2	 193	 x	 0	 x	 6.926	 0	 1.7	 full
2	 194	 x	 0	 x	 2.560	 1	 6	 full
2	 195	 x	 0	 x	 19.248	 1	 1.7	 full
2	 196	 x	 1	 left	 7.288	 1	 1.7	 full
2	 197	 x	 1	 left	 1.971	 1	 6	 full
2	 198	 L	 0	 x	 6.797	 1	 x	 half
2	 199	 x	 0	 x	 1.982	 1	 6	 full
2	 200	 x	 1	 right	 1.800	 1	 6	 full
2	 201	 x	 1	 right	 1.960	 1	 1.7	 full
2	 202	 L	 1	 left	 1.761	 1	 x	 half
2	 203	 L	 0	 x	 13.271	 0	 x	 half
2	 204	 x	 1	 right	 2.857	 1	 1.7	 full
2	 205	 R	 0	 x	 10.485	 1	 x	 half
2	 206	 x	 1	 left	 11.888	 0	 1.7	 full
2	 207	 x	 1	 right	 1.812	 1	 6	 full
2	 208	 x	 0	 x	 19.752	 1	 1.7	 full
2	 209	 R	 1	 right	 1.925	 1	 x	 half
2	 210	 x	 0	 x	 18.303	 1	 1.7	 full
2	 211	 R	 0	 x	 15.129	 1	 x	 half
2	 212	 R	 0	 x	 13.001	 1	 x	 half
2	 213	 L	 1	 right	 8.796	 1	 x	 half
2	 214	 R	 0	 x	 14.015	 1	 x	 half
2	 215	 L	 1	 left	 1.795	 1	 x	 half
2	 216	 x	 0	 x	 24.459	 1	 1.7	 full
2	 217	 R	 0	 x	 17.989	 1	 x	 half
2	 218	 L	 0	 x	 11.983	 1	 x	 half
2	 219	 x	 0	 x	 30.178	 1	 1.7	 full
2	 220	 x	 1	 left	 1.847	 1	 6	 full
2	 221	 x	 0	 x	 12.172	 1	 1.7	 full
2	 222	 R	 1	 right	 1.891	 1	 x	 half
2	 223	 R	 0	 x	 12.343	 1	 x	 half
2	 224	 L	 0	 x	 11.803	 1	 x	 half
2	 225	 x	 0	 x	 2.122	 1	 6	 full
2	 226	 L	 1	 left	 1.762	 1	 x	 half
2	 227	 x	 1	 right	 20.036	 0	 1.7	 full
2	 228	 x	 1	 left	 16.970	 0	 1.7	 full
2	 229	 L	 0	 x	 8.859	 1	 x	 half
2	 230	 x	 1	 right	 1.872	 1	 6	 full
2	 231	 x	 0	 x	 2.181	 1	 6	 full
2	 232	 x	 0	 x	 1.980	 1	 6	 full
2	 233	 R	 1	 left	 7.516	 1	 x	 half
2	 234	 x	 0	 x	 16.808	 1	 1.7	 full
2	 235	 x	 0	 x	 17.978	 1	 1.7	 full
2	 236	 x	 1	 right	 1.731	 1	 6	 full
2	 237	 x	 1	 right	 10.025	 0	 1.7	 full
2	 238	 x	 0	 x	 1.841	 1	 6	 full
2	 239	 x	 0	 x	 13.392	 1	 1.7	 full
2	 240	 L	 1	 right	 11.094	 0	 x	 half
3	 1	 R	 0	 x	 8.272	 1	 x	 half
3	 2	 x	 1	 right	 2.470	 1	 1.7	 full
3	 3	 L	 1	 left	 4.478	 1	 x	 half
3	 4	 x	 0	 x	 3.131	 1	 6	 full
3	 5	 L	 1	 right	 4.736	 0	 x	 half
3	 6	 x	 0	 x	 8.925	 1	 1.7	 full
3	 7	 x	 1	 right	 2.300	 1	 6	 full
3	 8	 x	 0	 x	 3.060	 1	 6	 full
3	 9	 R	 1	 left	 2.281	 1	 x	 half
3	 10	 L	 0	 x	 8.995	 1	 x	 half
3	 11	 x	 1	 left	 2.245	 1	 1.7	 full
3	 12	 L	 1	 right	 2.071	 1	 x	 half
3	 13	 x	 1	 right	 2.601	 1	 1.7	 full
3	 14	 L	 1	 right	 2.101	 1	 x	 half
3	 15	 R	 1	 left	 2.711	 1	 x	 half
3	 16	 x	 1	 left	 2.880	 1	 1.7	 full
3	 17	 x	 1	 right	 5.727	 1	 1.7	 full
3	 18	 L	 1	 left	 3.171	 1	 x	 half
3	 19	 x	 0	 x	 7.208	 1	 1.7	 full
3	 20	 x	 1	 left	 1.992	 1	 1.7	 full
3	 21	 L	 1	 left	 1.721	 1	 x	 half
3	 22	 x	 1	 right	 1.632	 1	 6	 full
3	 23	 R	 1	 right	 1.721	 1	 x	 half
3	 24	 x	 0	 x	 2.560	 1	 6	 full
3	 25	 R	 0	 x	 5.068	 1	 x	 half
3	 26	 x	 1	 right	 1.690	 1	 6	 full
3	 27	 x	 1	 right	 1.842	 1	 1.7	 full
3	 28	 x	 1	 left	 6.047	 0	 1.7	 full
3	 29	 x	 1	 left	 1.691	 1	 6	 full
3	 30	 R	 1	 left	 7.156	 0	 x	 half
3	 31	 L	 0	 x	 9.185	 1	 x	 half
3	 32	 L	 0	 x	 6.766	 1	 x	 half
3	 33	 x	 1	 left	 8.426	 0	 1.7	 full
3	 34	 x	 1	 left	 1.780	 1	 6	 full
3	 35	 L	 0	 x	 8.766	 1	 x	 half
3	 36	 x	 1	 right	 8.366	 1	 1.7	 full
3	 37	 x	 1	 left	 1.687	 1	 6	 full
3	 38	 L	 0	 x	 7.358	 1	 x	 half
3	 39	 L	 0	 x	 8.697	 1	 x	 half
3	 40	 x	 1	 left	 3.793	 1	 1.7	 full
3	 41	 L	 1	 left	 1.621	 1	 x	 half
3	 42	 x	 1	 right	 1.682	 1	 6	 full
3	 43	 x	 0	 x	 2.272	 1	 6	 full
3	 44	 x	 0	 x	 2.011	 1	 6	 full
3	 45	 L	 1	 right	 1.943	 1	 x	 half
3	 46	 x	 0	 x	 7.367	 1	 1.7	 full
3	 47	 x	 1	 left	 1.573	 1	 6	 full
3	 48	 x	 1	 left	 5.899	 0	 1.7	 full
3	 49	 R	 1	 right	 1.681	 1	 x	 half
3	 50	 L	 1	 left	 1.552	 1	 x	 half
3	 51	 R	 1	 left	 5.108	 1	 x	 half
3	 52	 x	 0	 x	 1.875	 1	 6	 full
3	 53	 L	 0	 x	 7.816	 1	 x	 half
3	 54	 R	 1	 right	 1.645	 1	 x	 half
3	 55	 x	 0	 x	 6.598	 1	 1.7	 full
3	 56	 x	 0	 x	 7.256	 1	 1.7	 full
3	 57	 L	 1	 right	 1.962	 1	 x	 half
3	 58	 x	 0	 x	 5.588	 1	 1.7	 full
3	 59	 L	 0	 x	 6.998	 1	 x	 half
3	 60	 L	 0	 x	 7.686	 1	 x	 half
3	 61	 x	 0	 x	 7.150	 1	 1.7	 full
3	 62	 R	 1	 right	 1.641	 1	 x	 half
3	 63	 R	 0	 x	 7.297	 1	 x	 half
3	 64	 x	 1	 right	 1.543	 1	 6	 full
3	 65	 x	 0	 x	 7.237	 1	 1.7	 full
3	 66	 L	 0	 x	 5.438	 1	 x	 half
3	 67	 x	 1	 left	 1.650	 1	 6	 full
3	 68	 x	 0	 x	 1.931	 1	 6	 full
3	 69	 x	 1	 right	 1.561	 1	 6	 full
3	 70	 x	 0	 x	 2.111	 1	 6	 full
3	 71	 x	 0	 x	 13.431	 1	 1.7	 full
3	 72	 x	 1	 right	 11.253	 0	 1.7	 full
3	 73	 L	 1	 right	 9.934	 0	 x	 half
3	 74	 L	 1	 right	 4.009	 1	 x	 half
3	 75	 L	 0	 x	 8.715	 1	 x	 half
3	 76	 x	 0	 x	 7.556	 1	 1.7	 full
3	 77	 x	 1	 right	 1.832	 1	 1.7	 full
3	 78	 R	 0	 x	 7.656	 1	 x	 half
3	 79	 x	 0	 x	 7.377	 1	 1.7	 full
3	 80	 x	 1	 right	 5.318	 0	 1.7	 full
3	 81	 R	 1	 right	 1.601	 1	 x	 half
3	 82	 x	 1	 left	 1.631	 1	 6	 full
3	 83	 x	 1	 left	 1.871	 1	 1.7	 full
3	 84	 R	 1	 right	 1.505	 1	 x	 half
3	 85	 x	 0	 x	 1.903	 1	 6	 full
3	 86	 x	 0	 x	 2.571	 1	 6	 full
3	 87	 x	 0	 x	 10.915	 1	 1.7	 full
3	 88	 x	 1	 left	 2.451	 1	 1.7	 full
3	 89	 x	 0	 x	 1.791	 1	 6	 full
3	 90	 L	 1	 left	 1.713	 1	 x	 half
3	 91	 x	 0	 x	 8.297	 1	 1.7	 full
3	 92	 x	 0	 x	 8.356	 1	 1.7	 full
3	 93	 x	 0	 x	 1.842	 1	 6	 full
3	 94	 x	 1	 left	 3.310	 1	 1.7	 full
3	 95	 x	 1	 right	 1.921	 1	 1.7	 full
3	 96	 x	 0	 x	 5.388	 1	 1.7	 full
3	 97	 x	 0	 x	 5.988	 1	 1.7	 full
3	 98	 x	 1	 left	 5.738	 0	 1.7	 full
3	 99	 R	 0	 x	 6.088	 1	 x	 half
3	 100	 R	 0	 x	 5.819	 1	 x	 half
3	 101	 x	 0	 x	 1.892	 1	 6	 full
3	 102	 x	 1	 right	 1.781	 1	 1.7	 full
3	 103	 R	 1	 left	 4.090	 1	 x	 half
3	 104	 x	 0	 x	 1.740	 1	 6	 full
3	 105	 x	 1	 right	 1.821	 1	 1.7	 full
3	 106	 R	 1	 right	 1.542	 1	 x	 half
3	 107	 x	 0	 x	 2.042	 1	 6	 full
3	 108	 x	 0	 x	 1.721	 1	 6	 full
3	 109	 x	 0	 x	 6.268	 1	 1.7	 full
3	 110	 x	 1	 right	 1.590	 1	 6	 full
3	 111	 L	 0	 x	 7.748	 1	 x	 half
3	 112	 x	 0	 x	 6.487	 1	 1.7	 full
3	 113	 x	 0	 x	 6.800	 1	 1.7	 full
3	 114	 x	 0	 x	 2.091	 1	 6	 full
3	 115	 x	 1	 right	 10.206	 0	 1.7	 full
3	 116	 x	 1	 right	 11.548	 1	 1.7	 full
3	 117	 x	 1	 left	 1.763	 1	 6	 full
3	 118	 x	 0	 x	 1.781	 1	 6	 full
3	 119	 x	 1	 right	 1.502	 1	 6	 full
3	 120	 x	 1	 right	 1.643	 1	 1.7	 full
3	 121	 x	 1	 left	 1.532	 1	 6	 full
3	 122	 L	 0	 x	 8.666	 1	 x	 half
3	 123	 R	 0	 x	 6.230	 1	 x	 half
3	 124	 x	 1	 right	 1.682	 1	 6	 full
3	 125	 x	 1	 left	 2.051	 1	 1.7	 full
3	 126	 L	 1	 left	 1.581	 1	 x	 half
3	 127	 x	 1	 right	 1.911	 1	 1.7	 full
3	 128	 x	 0	 x	 1.832	 1	 6	 full
3	 129	 x	 1	 left	 1.533	 1	 6	 full
3	 130	 R	 0	 x	 5.228	 1	 x	 half
3	 131	 x	 1	 left	 1.842	 1	 1.7	 full
3	 132	 x	 1	 right	 1.542	 1	 6	 full
3	 133	 x	 1	 left	 1.532	 1	 6	 full
3	 134	 L	 0	 x	 7.237	 1	 x	 half
3	 135	 x	 0	 x	 2.172	 1	 6	 full
3	 136	 x	 0	 x	 6.428	 1	 1.7	 full
3	 137	 x	 0	 x	 1.671	 1	 6	 full
3	 138	 x	 0	 x	 1.811	 1	 6	 full
3	 139	 x	 0	 x	 7.134	 1	 1.7	 full
3	 140	 x	 0	 x	 1.652	 1	 6	 full
3	 141	 x	 1	 left	 1.609	 1	 6	 full
3	 142	 L	 1	 left	 1.553	 1	 x	 half
3	 143	 x	 1	 right	 1.782	 1	 1.7	 full
3	 144	 x	 0	 x	 1.791	 1	 6	 full
3	 145	 x	 0	 x	 5.748	 1	 1.7	 full
3	 146	 x	 1	 left	 1.502	 1	 6	 full
3	 147	 x	 0	 x	 6.939	 1	 1.7	 full
3	 148	 R	 0	 x	 4.830	 1	 x	 half
3	 149	 x	 1	 right	 1.565	 1	 6	 full
3	 150	 x	 1	 right	 1.513	 1	 6	 full
3	 151	 R	 0	 x	 5.682	 1	 x	 half
3	 152	 L	 0	 x	 6.218	 1	 x	 half
3	 153	 L	 1	 right	 3.010	 1	 x	 half
3	 154	 x	 0	 x	 8.455	 1	 1.7	 full
3	 155	 R	 0	 x	 5.898	 1	 x	 half
3	 156	 x	 1	 left	 1.663	 1	 6	 full
3	 157	 x	 0	 x	 1.905	 1	 6	 full
3	 158	 x	 1	 right	 1.533	 1	 6	 full
3	 159	 x	 1	 left	 1.503	 1	 6	 full
3	 160	 L	 0	 x	 5.199	 1	 x	 half
3	 161	 x	 0	 x	 5.529	 1	 1.7	 full
3	 162	 x	 1	 left	 2.012	 1	 1.7	 full
3	 163	 R	 1	 right	 1.545	 1	 x	 half
3	 164	 x	 0	 x	 5.719	 1	 1.7	 full
3	 165	 x	 1	 left	 4.480	 1	 1.7	 full
3	 166	 x	 1	 right	 1.532	 1	 6	 full
3	 167	 R	 0	 x	 5.229	 1	 x	 half
3	 168	 x	 0	 x	 1.842	 1	 6	 full
3	 169	 x	 1	 left	 1.762	 1	 1.7	 full
3	 170	 x	 0	 x	 5.728	 1	 1.7	 full
3	 171	 x	 0	 x	 5.869	 1	 1.7	 full
3	 172	 x	 0	 x	 1.769	 1	 6	 full
3	 173	 x	 0	 x	 4.959	 1	 1.7	 full
3	 174	 L	 0	 x	 5.362	 1	 x	 half
3	 175	 x	 1	 right	 1.649	 1	 1.7	 full
3	 176	 R	 0	 x	 4.702	 1	 x	 half
3	 177	 x	 0	 x	 5.837	 1	 1.7	 full
3	 178	 x	 0	 x	 1.683	 1	 6	 full
3	 179	 x	 1	 right	 1.632	 1	 6	 full
3	 180	 L	 1	 left	 1.543	 1	 x	 half
3	 181	 L	 1	 left	 1.531	 1	 x	 half
3	 182	 x	 0	 x	 2.221	 1	 6	 full
3	 183	 R	 0	 x	 5.595	 1	 x	 half
3	 184	 R	 1	 right	 1.550	 1	 x	 half
3	 185	 x	 0	 x	 4.056	 1	 1.7	 full
3	 186	 L	 1	 right	 1.873	 1	 x	 half
3	 187	 L	 1	 left	 1.572	 1	 x	 half
3	 188	 x	 1	 left	 1.473	 1	 6	 full
3	 189	 x	 1	 right	 1.474	 1	 6	 full
3	 190	 x	 1	 right	 1.529	 1	 6	 full
3	 191	 x	 0	 x	 5.718	 1	 1.7	 full
3	 192	 x	 0	 x	 2.051	 1	 6	 full
3	 193	 x	 0	 x	 1.822	 1	 6	 full
3	 194	 x	 1	 left	 1.731	 1	 1.7	 full
3	 195	 x	 0	 x	 5.379	 1	 1.7	 full
3	 196	 x	 1	 left	 1.562	 1	 6	 full
3	 197	 x	 1	 left	 5.709	 0	 1.7	 full
3	 198	 x	 1	 left	 7.023	 0	 1.7	 full
3	 199	 x	 0	 x	 1.802	 1	 6	 full
3	 200	 x	 0	 x	 11.604	 1	 1.7	 full
3	 201	 L	 1	 left	 1.631	 1	 x	 half
3	 202	 L	 0	 x	 6.548	 1	 x	 half
3	 203	 x	 0	 x	 1.712	 1	 6	 full
3	 204	 x	 0	 x	 1.672	 1	 6	 full
3	 205	 x	 1	 right	 3.817	 1	 1.7	 full
3	 206	 L	 0	 x	 4.999	 1	 x	 half
3	 207	 x	 0	 x	 9.487	 1	 1.7	 full
3	 208	 R	 1	 right	 1.722	 1	 x	 half
3	 209	 x	 1	 right	 1.590	 1	 6	 full
3	 210	 x	 1	 right	 2.013	 1	 1.7	 full
3	 211	 x	 1	 right	 1.464	 1	 6	 full
3	 212	 x	 0	 x	 4.971	 1	 1.7	 full
3	 213	 x	 0	 x	 1.762	 1	 6	 full
3	 214	 x	 0	 x	 1.599	 1	 6	 full
3	 215	 R	 1	 left	 4.550	 1	 x	 half
3	 216	 x	 1	 right	 10.012	 0	 1.7	 full
3	 217	 R	 0	 x	 8.016	 1	 x	 half
3	 218	 R	 0	 x	 6.401	 1	 x	 half
3	 219	 x	 1	 left	 2.189	 1	 1.7	 full
3	 220	 L	 1	 left	 1.649	 1	 x	 half
3	 221	 x	 0	 x	 1.722	 1	 6	 full
3	 222	 x	 1	 left	 1.542	 0	 6	 full
3	 223	 L	 0	 x	 8.885	 1	 x	 half
3	 224	 R	 0	 x	 6.405	 1	 x	 half
3	 225	 L	 1	 left	 1.621	 1	 x	 half
3	 226	 x	 0	 x	 1.548	 1	 6	 full
3	 227	 x	 0	 x	 5.886	 1	 1.7	 full
3	 228	 x	 1	 left	 1.562	 1	 6	 full
3	 229	 x	 1	 right	 1.501	 1	 6	 full
3	 230	 x	 1	 left	 1.482	 1	 6	 full
3	 231	 R	 0	 x	 8.415	 1	 x	 half
3	 232	 R	 1	 right	 1.597	 1	 x	 half
3	 233	 x	 0	 x	 8.427	 1	 1.7	 full
3	 234	 x	 0	 x	 1.724	 1	 6	 full
3	 235	 x	 0	 x	 1.702	 1	 6	 full
3	 236	 L	 0	 x	 6.467	 1	 x	 half
3	 237	 x	 0	 x	 12.043	 1	 1.7	 full
3	 238	 x	 1	 left	 1.633	 1	 6	 full
3	 239	 R	 0	 x	 6.977	 1	 x	 half
3	 240	 x	 0	 x	 8.726	 1	 1.7	 full
4	 1	 x	 1	 left	 8.305	 1	 1.7	 full
4	 2	 x	 1	 left	 4.548	 1	 6	 full
4	 3	 x	 0	 x	 5.567	 1	 6	 full
4	 4	 x	 0	 x	 10.187	 1	 1.7	 full
4	 5	 x	 1	 left	 8.196	 0	 1.7	 full
4	 6	 x	 1	 left	 3.590	 1	 6	 full
4	 7	 R	 1	 right	 5.348	 0	 x	 half
4	 8	 L	 0	 x	 8.555	 1	 x	 half
4	 9	 R	 1	 right	 2.402	 1	 x	 half
4	 10	 x	 1	 right	 2.430	 1	 6	 full
4	 11	 x	 0	 x	 8.676	 1	 1.7	 full
4	 12	 x	 0	 x	 7.156	 1	 6	 full
4	 13	 x	 0	 x	 7.119	 1	 1.7	 full
4	 14	 x	 0	 x	 7.231	 1	 1.7	 full
4	 15	 R	 0	 x	 4.782	 1	 x	 half
4	 16	 x	 1	 right	 1.951	 1	 6	 full
4	 17	 x	 1	 right	 1.851	 1	 6	 full
4	 18	 x	 1	 left	 2.231	 1	 6	 full
4	 19	 L	 0	 x	 5.930	 1	 x	 half
4	 20	 x	 1	 right	 4.750	 0	 1.7	 full
4	 21	 R	 0	 x	 5.829	 1	 x	 half
4	 22	 R	 1	 right	 2.181	 1	 x	 half
4	 23	 x	 0	 x	 9.476	 1	 1.7	 full
4	 24	 x	 0	 x	 3.541	 1	 6	 full
4	 25	 x	 1	 right	 2.572	 1	 6	 full
4	 26	 x	 1	 right	 1.862	 1	 6	 full
4	 27	 x	 0	 x	 3.608	 1	 1.7	 full
4	 28	 x	 1	 right	 3.186	 1	 1.7	 full
4	 29	 R	 0	 x	 6.675	 1	 x	 half
4	 30	 L	 0	 x	 5.499	 1	 x	 half
4	 31	 x	 0	 x	 3.291	 1	 6	 full
4	 32	 x	 0	 x	 2.752	 1	 6	 full
4	 33	 R	 1	 right	 2.022	 1	 x	 half
4	 34	 L	 1	 right	 5.679	 0	 x	 half
4	 35	 x	 1	 left	 1.804	 0	 6	 full
4	 36	 x	 1	 left	 1.872	 1	 6	 full
4	 37	 x	 0	 x	 2.183	 1	 6	 full
4	 38	 x	 0	 x	 3.700	 1	 6	 full
4	 39	 x	 1	 left	 4.309	 0	 1.7	 full
4	 40	 x	 0	 x	 4.160	 1	 6	 full
4	 41	 x	 1	 right	 2.700	 1	 6	 full
4	 42	 x	 0	 x	 4.420	 1	 6	 full
4	 43	 x	 1	 left	 2.968	 1	 6	 full
4	 44	 L	 1	 left	 1.763	 1	 x	 half
4	 45	 x	 1	 right	 1.856	 1	 6	 full
4	 46	 x	 1	 right	 1.762	 1	 6	 full
4	 47	 R	 0	 x	 3.919	 1	 x	 half
4	 48	 x	 0	 x	 5.258	 1	 1.7	 full
4	 49	 L	 1	 right	 4.389	 0	 x	 half
4	 50	 L	 1	 left	 1.976	 1	 x	 half
4	 51	 L	 0	 x	 5.389	 1	 x	 half
4	 52	 x	 0	 x	 4.365	 1	 1.7	 full
4	 53	 x	 0	 x	 3.769	 1	 1.7	 full
4	 54	 x	 0	 x	 2.031	 1	 1.7	 full
4	 55	 R	 0	 x	 3.410	 1	 x	 half
4	 56	 x	 1	 right	 1.831	 1	 6	 full
4	 57	 x	 1	 right	 4.955	 0	 1.7	 full
4	 58	 x	 0	 x	 2.678	 1	 6	 full
4	 59	 x	 0	 x	 3.870	 1	 6	 full
4	 60	 x	 0	 x	 4.595	 1	 1.7	 full
4	 61	 x	 0	 x	 5.700	 1	 1.7	 full
4	 62	 x	 1	 right	 1.802	 1	 6	 full
4	 63	 x	 1	 left	 1.851	 1	 6	 full
4	 64	 R	 0	 x	 5.040	 1	 x	 half
4	 65	 x	 0	 x	 5.369	 1	 6	 full
4	 66	 x	 1	 right	 4.239	 1	 1.7	 full
4	 67	 R	 0	 x	 6.537	 1	 x	 half
4	 68	 x	 0	 x	 4.763	 1	 1.7	 full
4	 69	 x	 1	 right	 4.050	 0	 1.7	 full
4	 70	 x	 0	 x	 5.998	 1	 1.7	 full
4	 71	 L	 1	 left	 2.394	 1	 x	 half
4	 72	 x	 0	 x	 10.184	 1	 6	 full
4	 73	 x	 1	 right	 2.077	 1	 1.7	 full
4	 74	 x	 1	 left	 1.647	 1	 6	 full
4	 75	 x	 1	 left	 1.642	 1	 6	 full
4	 76	 L	 0	 x	 4.849	 1	 x	 half
4	 77	 x	 0	 x	 2.961	 1	 6	 full
4	 78	 x	 1	 right	 2.031	 1	 1.7	 full
4	 79	 L	 1	 left	 1.595	 1	 x	 half
4	 80	 R	 0	 x	 2.821	 1	 x	 half
4	 81	 x	 0	 x	 3.120	 1	 1.7	 full
4	 82	 L	 0	 x	 3.929	 1	 x	 half
4	 83	 L	 1	 left	 1.733	 1	 x	 half
4	 84	 R	 1	 left	 2.381	 0	 x	 half
4	 85	 x	 1	 right	 4.109	 1	 1.7	 full
4	 86	 x	 1	 right	 4.672	 0	 1.7	 full
4	 87	 x	 0	 x	 5.449	 1	 1.7	 full
4	 88	 x	 1	 right	 0.110	 0	 6	 full
4	 89	 R	 0	 x	 5.532	 1	 x	 half
4	 90	 L	 1	 left	 1.676	 1	 x	 half
4	 91	 x	 1	 left	 4.219	 1	 1.7	 full
4	 92	 x	 1	 right	 1.693	 1	 6	 full
4	 93	 L	 0	 x	 3.282	 1	 x	 half
4	 94	 x	 1	 right	 3.270	 1	 1.7	 full
4	 95	 x	 1	 right	 2.691	 1	 1.7	 full
4	 96	 x	 1	 left	 3.001	 1	 1.7	 full
4	 97	 L	 1	 right	 2.931	 0	 x	 half
4	 98	 L	 1	 left	 1.682	 1	 x	 half
4	 99	 L	 0	 x	 4.000	 1	 x	 half
4	 100	 x	 0	 x	 4.669	 1	 1.7	 full
4	 101	 x	 0	 x	 3.221	 1	 6	 full
4	 102	 x	 0	 x	 4.110	 1	 6	 full
4	 103	 x	 1	 right	 1.698	 1	 6	 full
4	 104	 R	 1	 right	 1.742	 1	 x	 half
4	 105	 x	 1	 left	 2.182	 0	 1.7	 full
4	 106	 L	 0	 x	 2.422	 1	 x	 half
4	 107	 x	 1	 right	 2.071	 1	 1.7	 full
4	 108	 x	 0	 x	 4.594	 1	 1.7	 full
4	 109	 x	 0	 x	 4.460	 1	 1.7	 full
4	 110	 x	 1	 left	 4.310	 0	 1.7	 full
4	 111	 x	 0	 x	 2.600	 1	 1.7	 full
4	 112	 x	 0	 x	 2.521	 1	 6	 full
4	 113	 x	 1	 right	 1.611	 1	 6	 full
4	 114	 R	 0	 x	 2.909	 1	 x	 half
4	 115	 x	 1	 right	 4.270	 0	 1.7	 full
4	 116	 x	 0	 x	 2.122	 1	 6	 full
4	 117	 x	 1	 left	 2.670	 1	 6	 full
4	 118	 L	 1	 right	 3.610	 0	 x	 half
4	 119	 x	 0	 x	 2.072	 1	 6	 full
4	 120	 R	 0	 x	 4.450	 1	 x	 half
4	 121	 x	 0	 x	 5.668	 1	 1.7	 full
4	 122	 L	 1	 left	 1.662	 1	 x	 half
4	 123	 x	 0	 x	 2.930	 1	 6	 full
4	 124	 x	 1	 right	 1.612	 1	 6	 full
4	 125	 L	 0	 x	 2.590	 1	 x	 half
4	 126	 x	 1	 right	 1.593	 1	 6	 full
4	 127	 x	 0	 x	 2.392	 1	 1.7	 full
4	 128	 x	 0	 x	 4.271	 1	 1.7	 full
4	 129	 L	 0	 x	 3.152	 1	 x	 half
4	 130	 R	 1	 right	 1.545	 1	 x	 half
4	 131	 x	 1	 left	 1.593	 1	 6	 full
4	 132	 R	 1	 left	 1.872	 0	 x	 half
4	 133	 x	 0	 x	 4.249	 1	 1.7	 full
4	 134	 x	 0	 x	 2.472	 1	 6	 full
4	 135	 x	 0	 x	 2.353	 1	 6	 full
4	 136	 x	 1	 left	 1.672	 1	 6	 full
4	 137	 x	 0	 x	 2.262	 1	 1.7	 full
4	 138	 x	 1	 left	 1.712	 1	 1.7	 full
4	 139	 x	 1	 right	 1.685	 1	 6	 full
4	 140	 x	 1	 left	 1.582	 1	 6	 full
4	 141	 x	 0	 x	 1.842	 1	 6	 full
4	 142	 L	 0	 x	 2.151	 1	 x	 half
4	 143	 x	 0	 x	 2.324	 1	 6	 full
4	 144	 x	 1	 right	 2.542	 1	 1.7	 full
4	 145	 x	 1	 left	 2.711	 0	 1.7	 full
4	 146	 R	 0	 x	 3.060	 1	 x	 half
4	 147	 x	 0	 x	 4.240	 1	 1.7	 full
4	 148	 x	 0	 x	 2.143	 1	 6	 full
4	 149	 x	 0	 x	 2.671	 1	 1.7	 full
4	 150	 x	 0	 x	 2.531	 1	 6	 full
4	 151	 x	 0	 x	 3.690	 1	 1.7	 full
4	 152	 L	 0	 x	 3.660	 1	 x	 half
4	 153	 x	 1	 right	 1.637	 1	 6	 full
4	 154	 L	 0	 x	 2.142	 1	 x	 half
4	 155	 L	 1	 right	 3.521	 0	 x	 half
4	 156	 x	 1	 left	 1.592	 1	 6	 full
4	 157	 x	 0	 x	 2.811	 1	 6	 full
4	 158	 x	 0	 x	 4.538	 1	 1.7	 full
4	 159	 x	 1	 left	 1.988	 1	 6	 full
4	 160	 R	 1	 left	 2.237	 1	 x	 half
4	 161	 x	 1	 left	 1.556	 1	 6	 full
4	 162	 R	 1	 right	 1.762	 1	 x	 half
4	 163	 x	 1	 right	 2.550	 1	 1.7	 full
4	 164	 R	 1	 right	 1.542	 1	 x	 half
4	 165	 x	 1	 left	 2.673	 1	 1.7	 full
4	 166	 x	 1	 left	 2.771	 1	 1.7	 full
4	 167	 x	 0	 x	 3.830	 1	 6	 full
4	 168	 R	 0	 x	 3.640	 1	 x	 half
4	 169	 x	 1	 left	 3.091	 1	 1.7	 full
4	 170	 L	 1	 left	 1.751	 1	 x	 half
4	 171	 x	 0	 x	 2.242	 1	 6	 full
4	 172	 L	 0	 x	 2.783	 1	 x	 half
4	 173	 x	 0	 x	 1.843	 1	 6	 full
4	 174	 x	 0	 x	 2.035	 1	 6	 full
4	 175	 x	 0	 x	 1.721	 1	 6	 full
4	 176	 x	 0	 x	 1.712	 1	 6	 full
4	 177	 R	 0	 x	 3.360	 1	 x	 half
4	 178	 x	 1	 right	 1.702	 0	 1.7	 full
4	 179	 x	 1	 left	 1.922	 1	 1.7	 full
4	 180	 x	 0	 x	 2.477	 1	 6	 full
4	 181	 R	 1	 left	 2.651	 0	 x	 half
4	 182	 x	 0	 x	 2.541	 1	 1.7	 full
4	 183	 x	 0	 x	 2.210	 0	 6	 full
4	 184	 L	 1	 left	 1.710	 1	 x	 half
4	 185	 R	 0	 x	 2.236	 1	 x	 half
4	 186	 x	 1	 right	 3.121	 1	 1.7	 full
4	 187	 x	 1	 left	 1.582	 1	 6	 full
4	 188	 x	 0	 x	 1.919	 1	 1.7	 full
4	 189	 R	 1	 right	 1.941	 1	 x	 half
4	 190	 x	 0	 x	 3.690	 1	 1.7	 full
4	 191	 x	 1	 left	 2.830	 1	 1.7	 full
4	 192	 L	 0	 x	 2.096	 1	 x	 half
4	 193	 L	 1	 left	 1.573	 1	 x	 half
4	 194	 L	 1	 right	 2.939	 1	 x	 half
4	 195	 x	 1	 left	 1.739	 1	 1.7	 full
4	 196	 x	 0	 x	 2.991	 1	 6	 full
4	 197	 L	 1	 left	 1.603	 1	 x	 half
4	 198	 x	 1	 left	 1.591	 1	 6	 full
4	 199	 R	 1	 right	 1.592	 1	 x	 half
4	 200	 x	 1	 right	 1.962	 0	 1.7	 full
4	 201	 x	 0	 x	 3.251	 1	 1.7	 full
4	 202	 R	 0	 x	 2.481	 1	 x	 half
4	 203	 R	 1	 right	 1.681	 1	 x	 half
4	 204	 R	 1	 left	 1.823	 0	 x	 half
4	 205	 x	 0	 x	 2.682	 1	 1.7	 full
4	 206	 x	 0	 x	 1.892	 1	 6	 full
4	 207	 x	 1	 right	 1.602	 1	 6	 full
4	 208	 x	 1	 right	 3.035	 0	 1.7	 full
4	 209	 L	 0	 x	 1.905	 1	 x	 half
4	 210	 R	 0	 x	 3.347	 1	 x	 half
4	 211	 L	 1	 left	 2.341	 1	 x	 half
4	 212	 x	 0	 x	 1.862	 1	 1.7	 full
4	 213	 x	 0	 x	 3.970	 1	 1.7	 full
4	 214	 R	 1	 left	 2.850	 0	 x	 half
4	 215	 x	 1	 left	 2.579	 0	 1.7	 full
4	 216	 L	 0	 x	 2.765	 1	 x	 half
4	 217	 L	 1	 right	 4.379	 0	 x	 half
4	 218	 x	 0	 x	 3.560	 1	 6	 full
4	 219	 x	 1	 left	 1.621	 1	 6	 full
4	 220	 x	 1	 left	 5.285	 0	 1.7	 full
4	 221	 x	 0	 x	 2.382	 1	 1.7	 full
4	 222	 x	 0	 x	 3.561	 1	 6	 full
4	 223	 L	 1	 left	 1.701	 1	 x	 half
4	 224	 x	 1	 right	 1.903	 1	 1.7	 full
4	 225	 R	 0	 x	 3.817	 1	 x	 half
4	 226	 R	 0	 x	 3.741	 1	 x	 half
4	 227	 L	 1	 right	 1.812	 1	 x	 half
4	 228	 x	 0	 x	 3.150	 1	 6	 full
4	 229	 x	 1	 left	 4.330	 0	 1.7	 full
4	 230	 x	 0	 x	 5.251	 1	 1.7	 full
4	 231	 x	 0	 x	 3.999	 1	 1.7	 full
4	 232	 L	 1	 right	 3.381	 0	 x	 half
4	 233	 x	 0	 x	 4.509	 0	 1.7	 full
4	 234	 x	 1	 right	 1.731	 1	 6	 full
4	 235	 x	 1	 left	 2.322	 1	 1.7	 full
4	 236	 x	 1	 left	 2.354	 1	 1.7	 full
4	 237	 L	 0	 x	 4.141	 1	 x	 half
4	 238	 L	 0	 x	 3.510	 1	 x	 half
4	 239	 x	 1	 left	 1.493	 1	 6	 full
4	 240	 L	 0	 x	 3.959	 1	 x	 half
5	 1	 R	 1	 right	 12.533	 1	 x	 half
5	 2	 x	 0	 x	 32.314	 1	 1.7	 full
5	 3	 x	 0	 x	 6.523	 1	 6	 full
5	 4	 L	 0	 x	 5.923	 1	 x	 half
5	 5	 x	 1	 left	 5.103	 1	 6	 full
5	 6	 x	 0	 x	 4.719	 1	 6	 full
5	 7	 L	 1	 left	 2.330	 1	 x	 half
5	 8	 x	 0	 x	 7.886	 1	 1.7	 full
5	 9	 x	 0	 x	 4.568	 1	 6	 full
5	 10	 x	 1	 right	 3.949	 0	 1.7	 full
5	 11	 x	 1	 right	 2.739	 1	 6	 full
5	 12	 x	 0	 x	 4.665	 1	 1.7	 full
5	 13	 x	 0	 x	 4.519	 1	 6	 full
5	 14	 R	 0	 x	 4.509	 1	 x	 half
5	 15	 x	 0	 x	 6.417	 1	 1.7	 full
5	 16	 x	 0	 x	 7.116	 0	 1.7	 full
5	 17	 R	 0	 x	 11.233	 1	 x	 half
5	 18	 x	 1	 left	 2.361	 1	 6	 full
5	 19	 x	 0	 x	 6.067	 1	 1.7	 full
5	 20	 L	 1	 right	 7.067	 0	 x	 half
5	 21	 L	 1	 left	 2.749	 1	 x	 half
5	 22	 x	 1	 right	 8.923	 0	 1.7	 full
5	 23	 x	 1	 right	 2.061	 1	 6	 full
5	 24	 x	 0	 x	 4.460	 1	 6	 full
5	 25	 x	 0	 x	 4.969	 1	 1.7	 full
5	 26	 x	 1	 left	 6.106	 0	 1.7	 full
5	 27	 x	 0	 x	 7.846	 1	 6	 full
5	 28	 x	 1	 left	 6.797	 1	 1.7	 full
5	 29	 L	 0	 x	 7.976	 1	 x	 half
5	 30	 x	 1	 left	 2.018	 0	 6	 full
5	 31	 L	 1	 left	 2.581	 1	 x	 half
5	 32	 L	 0	 x	 5.689	 0	 x	 half
5	 33	 x	 0	 x	 9.411	 1	 1.7	 full
5	 34	 R	 1	 left	 6.506	 0	 x	 half
5	 35	 x	 0	 x	 9.704	 1	 6	 full
5	 36	 L	 0	 x	 3.431	 0	 x	 half
5	 37	 L	 1	 left	 2.515	 1	 x	 half
5	 38	 x	 1	 left	 2.610	 1	 6	 full
5	 39	 x	 1	 right	 2.232	 1	 6	 full
5	 40	 R	 0	 x	 2.620	 0	 x	 half
5	 41	 x	 1	 right	 1.851	 1	 6	 full
5	 42	 x	 1	 right	 8.114	 0	 1.7	 full
5	 43	 x	 0	 x	 8.965	 1	 6	 full
5	 44	 x	 1	 right	 3.017	 0	 1.7	 full
5	 45	 R	 1	 right	 2.099	 1	 x	 half
5	 46	 x	 0	 x	 7.786	 1	 1.7	 full
5	 47	 R	 1	 right	 2.432	 1	 x	 half
5	 48	 x	 0	 x	 6.858	 1	 1.7	 full
5	 49	 L	 1	 right	 2.493	 1	 x	 half
5	 50	 x	 1	 left	 11.573	 0	 1.7	 full
5	 51	 x	 1	 right	 7.315	 0	 1.7	 full
5	 52	 L	 1	 left	 7.816	 0	 x	 half
5	 53	 x	 0	 x	 6.796	 1	 6	 full
5	 54	 x	 1	 left	 7.715	 0	 1.7	 full
5	 55	 R	 0	 x	 9.472	 0	 x	 half
5	 56	 x	 0	 x	 7.627	 1	 6	 full
5	 57	 x	 0	 x	 8.336	 1	 1.7	 full
5	 58	 x	 1	 left	 7.966	 0	 1.7	 full
5	 59	 x	 1	 right	 2.322	 1	 1.7	 full
5	 60	 x	 0	 x	 7.644	 1	 1.7	 full
5	 61	 x	 1	 left	 0.823	 0	 1.7	 full
5	 62	 x	 1	 left	 1.970	 0	 6	 full
5	 63	 L	 1	 left	 2.080	 1	 x	 half
5	 64	 x	 0	 x	 6.098	 1	 1.7	 full
5	 65	 x	 1	 left	 5.346	 0	 1.7	 full
5	 66	 x	 1	 right	 2.019	 1	 1.7	 full
5	 67	 R	 1	 right	 2.141	 1	 x	 half
5	 68	 R	 1	 left	 2.990	 1	 x	 half
5	 69	 R	 1	 right	 1.721	 1	 x	 half
5	 70	 x	 1	 left	 2.436	 1	 1.7	 full
5	 71	 x	 1	 left	 1.772	 1	 6	 full
5	 72	 x	 1	 right	 2.162	 1	 1.7	 full
5	 73	 x	 1	 right	 2.022	 1	 6	 full
5	 74	 x	 0	 x	 5.030	 1	 1.7	 full
5	 75	 x	 0	 x	 5.907	 1	 1.7	 full
5	 76	 x	 0	 x	 4.879	 1	 6	 full
5	 77	 x	 1	 right	 2.146	 0	 6	 full
5	 78	 R	 1	 right	 1.865	 1	 x	 half
5	 79	 x	 0	 x	 3.802	 1	 6	 full
5	 80	 L	 1	 left	 2.111	 1	 x	 half
5	 81	 x	 0	 x	 4.139	 1	 6	 full
5	 82	 R	 0	 x	 5.806	 1	 x	 half
5	 83	 x	 1	 right	 4.449	 0	 1.7	 full
5	 84	 R	 1	 right	 2.951	 1	 x	 half
5	 85	 x	 0	 x	 8.565	 1	 1.7	 full
5	 86	 R	 0	 x	 5.299	 1	 x	 half
5	 87	 L	 0	 x	 4.149	 1	 x	 half
5	 88	 L	 0	 x	 5.569	 1	 x	 half
5	 89	 L	 0	 x	 6.047	 1	 x	 half
5	 90	 L	 0	 x	 5.545	 1	 x	 half
5	 91	 x	 1	 right	 2.002	 1	 6	 full
5	 92	 x	 1	 right	 1.891	 1	 6	 full
5	 93	 x	 1	 left	 1.740	 1	 6	 full
5	 94	 x	 1	 right	 2.251	 1	 1.7	 full
5	 95	 x	 0	 x	 4.279	 1	 1.7	 full
5	 96	 L	 0	 x	 4.279	 1	 x	 half
5	 97	 x	 0	 x	 3.303	 1	 6	 full
5	 98	 R	 0	 x	 3.308	 1	 x	 half
5	 99	 R	 1	 right	 2.631	 1	 x	 half
5	 100	 x	 1	 left	 0.894	 0	 6	 full
5	 101	 x	 1	 left	 3.665	 1	 1.7	 full
5	 102	 x	 0	 x	 5.640	 1	 6	 full
5	 103	 x	 0	 x	 2.874	 1	 6	 full
5	 104	 x	 0	 x	 4.057	 1	 6	 full
5	 105	 L	 1	 left	 3.001	 1	 x	 half
5	 106	 x	 1	 right	 1.831	 1	 6	 full
5	 107	 R	 0	 x	 4.888	 1	 x	 half
5	 108	 x	 0	 x	 10.473	 1	 1.7	 full
5	 109	 x	 1	 right	 2.082	 1	 1.7	 full
5	 110	 x	 0	 x	 4.181	 1	 1.7	 full
5	 111	 x	 0	 x	 3.921	 0	 6	 full
5	 112	 L	 0	 x	 5.713	 1	 x	 half
5	 113	 R	 1	 left	 6.048	 0	 x	 half
5	 114	 R	 0	 x	 7.315	 1	 x	 half
5	 115	 x	 1	 right	 1.920	 1	 6	 full
5	 116	 x	 0	 x	 4.450	 1	 1.7	 full
5	 117	 x	 1	 left	 0.551	 0	 6	 full
5	 118	 x	 0	 x	 4.208	 1	 1.7	 full
5	 119	 x	 1	 left	 4.499	 0	 1.7	 full
5	 120	 R	 1	 left	 3.280	 1	 x	 half
5	 121	 x	 1	 left	 1.810	 1	 6	 full
5	 122	 x	 0	 x	 5.634	 1	 1.7	 full
5	 123	 L	 1	 right	 1.871	 1	 x	 half
5	 124	 x	 0	 x	 5.199	 1	 1.7	 full
5	 125	 x	 0	 x	 4.819	 1	 6	 full
5	 126	 x	 0	 x	 4.227	 1	 6	 full
5	 127	 x	 0	 x	 4.230	 1	 6	 full
5	 128	 x	 0	 x	 5.099	 1	 1.7	 full
5	 129	 x	 1	 right	 2.240	 1	 1.7	 full
5	 130	 L	 0	 x	 6.497	 1	 x	 half
5	 131	 x	 1	 left	 5.018	 0	 1.7	 full
5	 132	 x	 1	 left	 8.656	 0	 1.7	 full
5	 133	 x	 0	 x	 10.145	 1	 6	 full
5	 134	 L	 1	 right	 5.697	 0	 x	 half
5	 135	 x	 0	 x	 8.386	 1	 6	 full
5	 136	 x	 1	 right	 4.643	 0	 1.7	 full
5	 137	 R	 1	 left	 8.765	 0	 x	 half
5	 138	 L	 1	 left	 1.922	 1	 x	 half
5	 139	 x	 0	 x	 4.117	 1	 6	 full
5	 140	 x	 0	 x	 7.296	 1	 1.7	 full
5	 141	 x	 1	 left	 6.466	 0	 1.7	 full
5	 142	 L	 1	 right	 2.079	 1	 x	 half
5	 143	 x	 0	 x	 5.158	 1	 6	 full
5	 144	 x	 1	 right	 5.532	 0	 1.7	 full
5	 145	 x	 1	 left	 1.992	 1	 6	 full
5	 146	 x	 1	 left	 2.879	 1	 6	 full
5	 147	 x	 0	 x	 3.629	 1	 6	 full
5	 148	 L	 0	 x	 4.518	 1	 x	 half
5	 149	 R	 0	 x	 4.959	 1	 x	 half
5	 150	 x	 0	 x	 3.849	 1	 6	 full
5	 151	 L	 1	 right	 4.909	 0	 x	 half
5	 152	 x	 1	 left	 2.130	 1	 1.7	 full
5	 153	 R	 0	 x	 3.739	 1	 x	 half
5	 154	 x	 1	 right	 5.118	 0	 1.7	 full
5	 155	 x	 0	 x	 7.865	 1	 1.7	 full
5	 156	 x	 0	 x	 4.309	 1	 1.7	 full
5	 157	 x	 1	 right	 2.290	 1	 6	 full
5	 158	 x	 1	 right	 1.790	 1	 6	 full
5	 159	 x	 1	 left	 1.852	 1	 6	 full
5	 160	 L	 0	 x	 8.045	 1	 x	 half
5	 161	 L	 0	 x	 5.126	 1	 x	 half
5	 162	 R	 0	 x	 4.625	 0	 x	 half
5	 163	 x	 1	 right	 3.399	 1	 1.7	 full
5	 164	 x	 0	 x	 7.066	 1	 1.7	 full
5	 165	 x	 0	 x	 4.189	 1	 6	 full
5	 166	 L	 1	 left	 1.730	 1	 x	 half
5	 167	 x	 0	 x	 2.979	 1	 6	 full
5	 168	 x	 1	 right	 1.859	 1	 6	 full
5	 169	 x	 1	 right	 1.681	 1	 6	 full
5	 170	 x	 0	 x	 4.788	 1	 1.7	 full
5	 171	 x	 0	 x	 3.305	 1	 6	 full
5	 172	 x	 0	 x	 4.928	 1	 1.7	 full
5	 173	 L	 1	 right	 2.448	 1	 x	 half
5	 174	 L	 0	 x	 5.898	 1	 x	 half
5	 175	 R	 0	 x	 4.409	 1	 x	 half
5	 176	 R	 0	 x	 4.511	 1	 x	 half
5	 177	 x	 1	 right	 2.030	 1	 6	 full
5	 178	 x	 1	 left	 5.389	 0	 1.7	 full
5	 179	 R	 0	 x	 4.668	 1	 x	 half
5	 180	 x	 1	 left	 1.839	 1	 6	 full
5	 181	 x	 0	 x	 4.038	 1	 1.7	 full
5	 182	 x	 1	 left	 1.811	 1	 6	 full
5	 183	 L	 0	 x	 3.079	 1	 x	 half
5	 184	 R	 0	 x	 4.059	 1	 x	 half
5	 185	 x	 0	 x	 2.428	 1	 6	 full
5	 186	 x	 1	 left	 1.731	 1	 6	 full
5	 187	 x	 0	 x	 5.918	 1	 1.7	 full
5	 188	 x	 0	 x	 4.129	 1	 1.7	 full
5	 189	 x	 1	 right	 1.781	 1	 6	 full
5	 190	 R	 0	 x	 2.870	 1	 x	 half
5	 191	 R	 0	 x	 5.089	 1	 x	 half
5	 192	 L	 1	 left	 1.732	 1	 x	 half
5	 193	 x	 0	 x	 2.332	 1	 6	 full
5	 194	 x	 1	 left	 1.732	 1	 6	 full
5	 195	 R	 1	 right	 1.748	 1	 x	 half
5	 196	 x	 1	 right	 1.662	 1	 6	 full
5	 197	 x	 1	 left	 1.752	 1	 6	 full
5	 198	 x	 0	 x	 2.681	 1	 1.7	 full
5	 199	 x	 1	 left	 3.509	 0	 1.7	 full
5	 200	 R	 1	 right	 1.688	 1	 x	 half
5	 201	 L	 0	 x	 5.918	 1	 x	 half
5	 202	 L	 0	 x	 2.872	 1	 x	 half
5	 203	 x	 1	 left	 2.547	 1	 1.7	 full
5	 204	 L	 1	 left	 2.450	 1	 x	 half
5	 205	 x	 0	 x	 2.581	 1	 6	 full
5	 206	 x	 1	 left	 1.751	 1	 6	 full
5	 207	 x	 0	 x	 3.211	 1	 1.7	 full
5	 208	 x	 0	 x	 4.200	 1	 1.7	 full
5	 209	 R	 1	 left	 4.790	 0	 x	 half
5	 210	 L	 0	 x	 4.838	 1	 x	 half
5	 211	 x	 0	 x	 2.749	 1	 6	 full
5	 212	 L	 1	 right	 5.929	 0	 x	 half
5	 213	 x	 1	 right	 2.740	 1	 6	 full
5	 214	 x	 0	 x	 5.166	 1	 1.7	 full
5	 215	 x	 1	 right	 4.457	 0	 1.7	 full
5	 216	 L	 1	 right	 5.447	 0	 x	 half
5	 217	 x	 0	 x	 10.493	 1	 1.7	 full
5	 218	 x	 0	 x	 5.530	 1	 6	 full
5	 219	 x	 1	 right	 4.818	 0	 1.7	 full
5	 220	 x	 0	 x	 3.750	 1	 6	 full
5	 221	 x	 0	 x	 3.159	 1	 6	 full
5	 222	 x	 0	 x	 4.269	 1	 1.7	 full
5	 223	 R	 0	 x	 3.531	 1	 x	 half
5	 224	 x	 1	 left	 1.862	 1	 6	 full
5	 225	 R	 1	 right	 1.941	 1	 x	 half
5	 226	 x	 0	 x	 4.079	 1	 6	 full
5	 227	 L	 1	 left	 1.742	 1	 x	 half
5	 228	 x	 1	 right	 1.692	 1	 6	 full
5	 229	 L	 1	 left	 1.639	 1	 x	 half
5	 230	 x	 1	 right	 1.901	 1	 1.7	 full
5	 231	 x	 1	 right	 1.642	 1	 6	 full
5	 232	 x	 0	 x	 2.411	 1	 6	 full
5	 233	 x	 0	 x	 4.269	 1	 1.7	 full
5	 234	 L	 0	 x	 2.851	 1	 x	 half
5	 235	 L	 0	 x	 3.110	 1	 x	 half
5	 236	 x	 0	 x	 2.290	 1	 6	 full
5	 237	 x	 1	 left	 2.341	 1	 1.7	 full
5	 238	 x	 1	 right	 2.882	 1	 1.7	 full
5	 239	 x	 1	 left	 3.250	 1	 1.7	 full
5	 240	 x	 1	 left	 1.799	 1	 1.7	 full
6	 1	 x	 1	 right	 11.184	 1	 6	 full
6	 2	 R	 0	 x	 9.597	 1	 x	 half
6	 3	 x	 0	 x	 11.153	 1	 1.7	 full
6	 4	 x	 1	 right	 4.701	 1	 6	 full
6	 5	 x	 0	 x	 4.832	 1	 6	 full
6	 6	 L	 0	 x	 11.233	 1	 x	 half
6	 7	 L	 0	 x	 10.693	 1	 x	 half
6	 8	 x	 1	 left	 2.095	 1	 6	 full
6	 9	 x	 0	 x	 4.688	 1	 6	 full
6	 10	 R	 1	 left	 4.335	 0	 x	 half
6	 11	 x	 1	 right	 6.088	 0	 1.7	 full
6	 12	 x	 1	 left	 2.025	 1	 6	 full
6	 13	 L	 0	 x	 7.118	 1	 x	 half
6	 14	 x	 0	 x	 6.370	 1	 6	 full
6	 15	 x	 0	 x	 3.290	 1	 1.7	 full
6	 16	 x	 0	 x	 3.257	 1	 6	 full
6	 17	 x	 1	 left	 2.010	 0	 1.7	 full
6	 18	 x	 1	 right	 2.191	 1	 6	 full
6	 19	 x	 1	 right	 1.920	 1	 6	 full
6	 20	 x	 1	 right	 2.729	 1	 1.7	 full
6	 21	 x	 0	 x	 4.719	 1	 6	 full
6	 22	 x	 1	 left	 10.829	 0	 1.7	 full
6	 23	 R	 0	 x	 11.193	 1	 x	 half
6	 24	 x	 0	 x	 15.279	 1	 1.7	 full
6	 25	 R	 1	 right	 2.908	 1	 x	 half
6	 26	 x	 0	 x	 4.930	 1	 6	 full
6	 27	 x	 0	 x	 9.679	 1	 1.7	 full
6	 28	 x	 0	 x	 1.109	 1	 1.7	 full
6	 29	 x	 1	 right	 2.481	 1	 6	 full
6	 30	 x	 0	 x	 4.429	 1	 6	 full
6	 31	 x	 0	 x	 5.189	 1	 6	 full
6	 32	 x	 0	 x	 5.029	 1	 6	 full
6	 33	 x	 1	 right	 2.000	 1	 6	 full
6	 34	 x	 1	 left	 1.961	 1	 6	 full
6	 35	 x	 0	 x	 9.010	 1	 1.7	 full
6	 36	 x	 1	 left	 8.068	 0	 1.7	 full
6	 37	 x	 1	 left	 1.911	 1	 6	 full
6	 38	 x	 1	 right	 6.710	 0	 1.7	 full
6	 39	 L	 0	 x	 6.417	 1	 x	 half
6	 40	 L	 1	 left	 2.279	 1	 x	 half
6	 41	 x	 0	 x	 4.946	 1	 6	 full
6	 42	 x	 1	 left	 1.818	 1	 6	 full
6	 43	 x	 1	 right	 10.116	 0	 1.7	 full
6	 44	 x	 1	 left	 6.930	 0	 1.7	 full
6	 45	 L	 1	 right	 7.896	 0	 x	 half
6	 46	 x	 1	 left	 5.557	 1	 1.7	 full
6	 47	 x	 0	 x	 10.073	 1	 1.7	 full
6	 48	 x	 1	 left	 1.881	 1	 6	 full
6	 49	 x	 0	 x	 4.729	 1	 6	 full
6	 50	 R	 0	 x	 9.976	 1	 x	 half
6	 51	 x	 0	 x	 4.179	 1	 6	 full
6	 52	 x	 0	 x	 8.366	 1	 1.7	 full
6	 53	 L	 0	 x	 6.698	 1	 x	 half
6	 54	 R	 0	 x	 5.399	 1	 x	 half
6	 55	 x	 0	 x	 5.098	 1	 6	 full
6	 56	 R	 0	 x	 7.908	 1	 x	 half
6	 57	 x	 1	 left	 10.164	 0	 1.7	 full
6	 58	 x	 1	 right	 8.646	 0	 1.7	 full
6	 59	 R	 1	 left	 4.908	 1	 x	 half
6	 60	 x	 0	 x	 4.469	 1	 6	 full
6	 61	 R	 0	 x	 8.502	 1	 x	 half
6	 62	 x	 0	 x	 10.447	 1	 1.7	 full
6	 63	 R	 0	 x	 9.064	 1	 x	 half
6	 64	 x	 0	 x	 6.930	 1	 1.7	 full
6	 65	 x	 0	 x	 3.540	 1	 6	 full
6	 66	 x	 0	 x	 10.353	 1	 1.7	 full
6	 67	 x	 0	 x	 12.243	 1	 1.7	 full
6	 68	 x	 0	 x	 11.043	 1	 1.7	 full
6	 69	 x	 0	 x	 10.114	 1	 1.7	 full
6	 70	 x	 1	 left	 2.110	 1	 6	 full
6	 71	 x	 0	 x	 5.688	 1	 6	 full
6	 72	 x	 1	 left	 1.961	 1	 6	 full
6	 73	 L	 1	 left	 1.681	 1	 x	 half
6	 74	 x	 1	 left	 7.156	 0	 1.7	 full
6	 75	 x	 1	 right	 9.266	 0	 1.7	 full
6	 76	 x	 0	 x	 4.152	 1	 6	 full
6	 77	 L	 1	 right	 2.531	 1	 x	 half
6	 78	 x	 1	 left	 1.630	 1	 6	 full
6	 79	 L	 1	 left	 1.707	 1	 x	 half
6	 80	 R	 1	 left	 5.809	 0	 x	 half
6	 81	 L	 1	 left	 1.911	 1	 x	 half
6	 82	 x	 1	 left	 6.707	 0	 1.7	 full
6	 83	 x	 0	 x	 6.207	 1	 1.7	 full
6	 84	 x	 0	 x	 3.029	 1	 6	 full
6	 85	 x	 1	 right	 2.021	 1	 6	 full
6	 86	 x	 1	 right	 1.790	 1	 6	 full
6	 87	 x	 0	 x	 7.007	 1	 1.7	 full
6	 88	 L	 1	 left	 2.039	 1	 x	 half
6	 89	 R	 1	 right	 1.657	 1	 x	 half
6	 90	 R	 0	 x	 7.607	 1	 x	 half
6	 91	 R	 0	 x	 5.795	 1	 x	 half
6	 92	 x	 1	 left	 1.610	 1	 6	 full
6	 93	 R	 1	 right	 1.691	 1	 x	 half
6	 94	 L	 0	 x	 7.064	 1	 x	 half
6	 95	 x	 1	 right	 2.295	 1	 1.7	 full
6	 96	 x	 0	 x	 2.839	 1	 6	 full
6	 97	 x	 0	 x	 3.030	 1	 6	 full
6	 98	 x	 1	 left	 1.640	 1	 6	 full
6	 99	 L	 0	 x	 4.989	 1	 x	 half
6	 100	 x	 0	 x	 6.757	 1	 1.7	 full
6	 101	 L	 1	 right	 4.082	 0	 x	 half
6	 102	 x	 1	 left	 1.632	 1	 6	 full
6	 103	 x	 1	 left	 8.002	 0	 1.7	 full
6	 104	 R	 0	 x	 8.396	 1	 x	 half
6	 105	 x	 0	 x	 2.931	 1	 6	 full
6	 106	 x	 1	 left	 3.948	 1	 1.7	 full
6	 107	 L	 0	 x	 7.536	 1	 x	 half
6	 108	 x	 1	 right	 1.752	 1	 6	 full
6	 109	 x	 1	 left	 6.581	 0	 1.7	 full
6	 110	 x	 0	 x	 9.749	 1	 1.7	 full
6	 111	 x	 0	 x	 3.938	 1	 6	 full
6	 112	 x	 1	 right	 1.791	 1	 6	 full
6	 113	 x	 1	 left	 5.108	 0	 1.7	 full
6	 114	 x	 1	 left	 1.770	 1	 6	 full
6	 115	 x	 1	 right	 3.340	 0	 1.7	 full
6	 116	 x	 1	 right	 1.571	 1	 6	 full
6	 117	 L	 1	 left	 1.761	 1	 x	 half
6	 118	 x	 0	 x	 5.339	 1	 1.7	 full
6	 119	 x	 0	 x	 2.716	 1	 6	 full
6	 120	 x	 0	 x	 2.540	 1	 6	 full
6	 121	 x	 1	 left	 8.731	 0	 1.7	 full
6	 122	 L	 1	 right	 6.654	 0	 x	 half
6	 123	 x	 0	 x	 6.905	 1	 1.7	 full
6	 124	 x	 1	 right	 6.317	 1	 1.7	 full
6	 125	 x	 1	 right	 1.701	 1	 6	 full
6	 126	 L	 1	 left	 1.651	 1	 x	 half
6	 127	 L	 1	 right	 4.889	 1	 x	 half
6	 128	 x	 1	 right	 7.456	 0	 1.7	 full
6	 129	 x	 1	 left	 2.227	 1	 6	 full
6	 130	 x	 1	 left	 1.620	 1	 6	 full
6	 131	 R	 0	 x	 3.841	 1	 x	 half
6	 132	 x	 0	 x	 2.421	 1	 6	 full
6	 133	 R	 0	 x	 5.495	 1	 x	 half
6	 134	 x	 0	 x	 2.440	 1	 6	 full
6	 135	 L	 0	 x	 5.169	 1	 x	 half
6	 136	 x	 1	 right	 1.751	 1	 6	 full
6	 137	 x	 0	 x	 2.940	 1	 6	 full
6	 138	 L	 0	 x	 7.225	 1	 x	 half
6	 139	 L	 1	 left	 1.922	 1	 x	 half
6	 140	 L	 0	 x	 4.908	 1	 x	 half
6	 141	 x	 0	 x	 1.969	 1	 6	 full
6	 142	 x	 1	 right	 2.410	 1	 1.7	 full
6	 143	 L	 0	 x	 2.804	 1	 x	 half
6	 144	 x	 1	 left	 1.811	 1	 1.7	 full
6	 145	 x	 1	 right	 4.235	 1	 1.7	 full
6	 146	 x	 0	 x	 6.974	 1	 1.7	 full
6	 147	 x	 1	 right	 1.856	 1	 6	 full
6	 148	 R	 0	 x	 5.527	 1	 x	 half
6	 149	 x	 1	 right	 1.710	 1	 6	 full
6	 150	 L	 1	 left	 1.758	 1	 x	 half
6	 151	 R	 1	 right	 1.615	 1	 x	 half
6	 152	 x	 0	 x	 7.651	 1	 1.7	 full
6	 153	 x	 0	 x	 2.781	 1	 6	 full
6	 154	 R	 1	 left	 5.188	 0	 x	 half
6	 155	 x	 0	 x	 3.630	 1	 6	 full
6	 156	 R	 1	 right	 1.681	 1	 x	 half
6	 157	 x	 1	 right	 1.820	 1	 1.7	 full
6	 158	 R	 1	 left	 6.263	 0	 x	 half
6	 159	 x	 1	 left	 6.298	 0	 1.7	 full
6	 160	 x	 0	 x	 5.346	 1	 1.7	 full
6	 161	 x	 0	 x	 3.840	 1	 1.7	 full
6	 162	 L	 0	 x	 5.767	 1	 x	 half
6	 163	 L	 1	 right	 3.390	 1	 x	 half
6	 164	 L	 1	 left	 1.964	 1	 x	 half
6	 165	 x	 0	 x	 9.296	 1	 1.7	 full
6	 166	 x	 0	 x	 5.128	 1	 1.7	 full
6	 167	 L	 1	 left	 1.891	 1	 x	 half
6	 168	 R	 0	 x	 5.138	 1	 x	 half
6	 169	 x	 0	 x	 6.228	 1	 1.7	 full
6	 170	 L	 1	 left	 1.932	 1	 x	 half
6	 171	 x	 1	 left	 1.810	 1	 6	 full
6	 172	 x	 0	 x	 8.516	 1	 1.7	 full
6	 173	 x	 1	 left	 2.308	 1	 1.7	 full
6	 174	 L	 0	 x	 4.929	 1	 x	 half
6	 175	 x	 0	 x	 4.513	 1	 1.7	 full
6	 176	 x	 1	 right	 1.761	 1	 6	 full
6	 177	 x	 1	 left	 3.979	 0	 1.7	 full
6	 178	 x	 1	 left	 1.630	 1	 6	 full
6	 179	 x	 0	 x	 2.450	 1	 6	 full
6	 180	 R	 0	 x	 4.900	 1	 x	 half
6	 181	 x	 0	 x	 4.809	 1	 1.7	 full
6	 182	 x	 1	 left	 1.701	 1	 6	 full
6	 183	 R	 0	 x	 4.609	 1	 x	 half
6	 184	 x	 1	 left	 4.238	 0	 1.7	 full
6	 185	 x	 0	 x	 5.678	 1	 1.7	 full
6	 186	 R	 1	 right	 1.730	 1	 x	 half
6	 187	 x	 0	 x	 4.360	 1	 1.7	 full
6	 188	 L	 0	 x	 2.490	 1	 x	 half
6	 189	 x	 0	 x	 1.946	 1	 6	 full
6	 190	 R	 0	 x	 5.247	 1	 x	 half
6	 191	 x	 1	 right	 2.001	 1	 1.7	 full
6	 192	 L	 1	 right	 1.920	 1	 x	 half
6	 193	 x	 0	 x	 2.032	 1	 6	 full
6	 194	 x	 1	 right	 1.881	 1	 1.7	 full
6	 195	 x	 1	 right	 1.591	 1	 6	 full
6	 196	 L	 0	 x	 6.058	 1	 x	 half
6	 197	 x	 1	 left	 1.798	 1	 6	 full
6	 198	 x	 0	 x	 2.130	 1	 6	 full
6	 199	 x	 0	 x	 1.883	 1	 6	 full
6	 200	 R	 1	 right	 1.841	 1	 x	 half
6	 201	 x	 1	 left	 1.940	 1	 6	 full
6	 202	 x	 1	 left	 4.539	 0	 1.7	 full
6	 203	 x	 0	 x	 2.017	 0	 1.7	 full
6	 204	 x	 1	 left	 3.327	 1	 1.7	 full
6	 205	 L	 0	 x	 6.346	 1	 x	 half
6	 206	 R	 0	 x	 4.878	 1	 x	 half
6	 207	 x	 0	 x	 4.752	 1	 1.7	 full
6	 208	 x	 0	 x	 2.680	 1	 6	 full
6	 209	 R	 1	 right	 1.858	 1	 x	 half
6	 210	 x	 0	 x	 1.722	 1	 6	 full
6	 211	 x	 1	 right	 1.980	 1	 1.7	 full
6	 212	 L	 1	 right	 2.071	 1	 x	 half
6	 213	 x	 1	 right	 1.631	 1	 6	 full
6	 214	 x	 0	 x	 5.239	 1	 1.7	 full
6	 215	 R	 1	 right	 1.820	 1	 x	 half
6	 216	 R	 1	 left	 3.339	 0	 x	 half
6	 217	 L	 0	 x	 5.040	 1	 x	 half
6	 218	 L	 0	 x	 6.209	 1	 x	 half
6	 219	 R	 1	 right	 1.681	 1	 x	 half
6	 220	 x	 0	 x	 3.867	 1	 1.7	 full
6	 221	 L	 1	 left	 2.407	 1	 x	 half
6	 222	 L	 1	 left	 1.612	 1	 x	 half
6	 223	 x	 1	 right	 1.592	 1	 6	 full
6	 224	 x	 1	 right	 1.570	 1	 6	 full
6	 225	 R	 0	 x	 4.059	 1	 x	 half
6	 226	 x	 0	 x	 2.149	 1	 6	 full
6	 227	 x	 0	 x	 1.921	 1	 6	 full
6	 228	 R	 1	 right	 1.751	 1	 x	 half
6	 229	 x	 1	 right	 4.697	 0	 1.7	 full
6	 230	 L	 1	 right	 7.058	 1	 x	 half
6	 231	 x	 1	 right	 3.123	 1	 1.7	 full
6	 232	 x	 0	 x	 5.953	 1	 1.7	 full
6	 233	 L	 0	 x	 4.489	 1	 x	 half
6	 234	 x	 1	 right	 5.465	 0	 1.7	 full
6	 235	 x	 0	 x	 4.498	 1	 1.7	 full
6	 236	 L	 0	 x	 3.280	 1	 x	 half
6	 237	 x	 0	 x	 3.500	 1	 1.7	 full
6	 238	 x	 0	 x	 6.646	 1	 1.7	 full
6	 239	 x	 1	 right	 3.665	 0	 1.7	 full
6	 240	 x	 0	 x	 1.951	 1	 6	 full
7	 1	 x	 0	 x	 13.731	 1	 1.7	 full
7	 2	 x	 0	 x	 10.932	 1	 1.7	 full
7	 3	 x	 0	 x	 5.618	 1	 6	 full
7	 4	 L	 0	 x	 5.710	 1	 x	 half
7	 5	 x	 1	 right	 8.506	 1	 6	 full
7	 6	 L	 0	 x	 10.234	 1	 x	 half
7	 7	 x	 1	 right	 3.031	 1	 6	 full
7	 8	 x	 1	 right	 2.142	 1	 6	 full
7	 9	 L	 1	 left	 3.920	 1	 x	 half
7	 10	 x	 1	 left	 2.121	 1	 6	 full
7	 11	 x	 0	 x	 2.442	 1	 6	 full
7	 12	 x	 1	 right	 2.101	 1	 6	 full
7	 13	 R	 1	 left	 3.727	 0	 x	 half
7	 14	 x	 0	 x	 4.140	 1	 1.7	 full
7	 15	 R	 1	 right	 2.022	 1	 x	 half
7	 16	 x	 0	 x	 4.051	 1	 6	 full
7	 17	 L	 0	 x	 3.761	 1	 x	 half
7	 18	 x	 1	 left	 5.117	 0	 1.7	 full
7	 19	 R	 0	 x	 3.042	 1	 x	 half
7	 20	 x	 0	 x	 3.455	 1	 6	 full
7	 21	 x	 1	 left	 4.419	 0	 1.7	 full
7	 22	 x	 0	 x	 6.417	 1	 1.7	 full
7	 23	 x	 0	 x	 5.538	 1	 1.7	 full
7	 24	 L	 1	 right	 7.548	 0	 x	 half
7	 25	 x	 0	 x	 7.327	 1	 1.7	 full
7	 26	 x	 0	 x	 7.997	 1	 1.7	 full
7	 27	 x	 1	 right	 1.835	 1	 6	 full
7	 28	 x	 0	 x	 4.851	 1	 6	 full
7	 29	 x	 1	 left	 7.078	 0	 1.7	 full
7	 30	 L	 1	 left	 2.325	 1	 x	 half
7	 31	 x	 1	 right	 1.942	 1	 6	 full
7	 32	 x	 1	 left	 2.022	 1	 6	 full
7	 33	 x	 0	 x	 3.180	 1	 6	 full
7	 34	 R	 0	 x	 7.217	 1	 x	 half
7	 35	 x	 1	 left	 2.052	 1	 6	 full
7	 36	 x	 0	 x	 3.661	 1	 6	 full
7	 37	 x	 0	 x	 5.948	 1	 1.7	 full
7	 38	 x	 1	 left	 5.249	 0	 1.7	 full
7	 39	 x	 0	 x	 4.906	 1	 1.7	 full
7	 40	 R	 0	 x	 4.020	 1	 x	 half
7	 41	 x	 1	 right	 1.792	 1	 6	 full
7	 42	 L	 1	 right	 2.981	 0	 x	 half
7	 43	 x	 0	 x	 4.129	 1	 6	 full
7	 44	 R	 0	 x	 8.976	 1	 x	 half
7	 45	 L	 1	 left	 3.826	 1	 x	 half
7	 46	 R	 0	 x	 5.259	 1	 x	 half
7	 47	 x	 0	 x	 6.705	 1	 1.7	 full
7	 48	 x	 1	 right	 6.322	 0	 1.7	 full
7	 49	 x	 1	 right	 1.901	 1	 6	 full
7	 50	 L	 1	 left	 2.031	 1	 x	 half
7	 51	 R	 0	 x	 3.978	 1	 x	 half
7	 52	 R	 0	 x	 7.047	 1	 x	 half
7	 53	 L	 1	 left	 7.118	 0	 x	 half
7	 54	 L	 1	 right	 6.307	 0	 x	 half
7	 55	 x	 1	 left	 1.828	 1	 6	 full
7	 56	 x	 0	 x	 2.854	 1	 6	 full
7	 57	 R	 1	 right	 2.242	 1	 x	 half
7	 58	 x	 1	 left	 3.800	 0	 1.7	 full
7	 59	 R	 1	 left	 4.598	 1	 x	 half
7	 60	 x	 0	 x	 3.740	 1	 6	 full
7	 61	 x	 0	 x	 6.399	 1	 1.7	 full
7	 62	 x	 1	 left	 1.888	 1	 6	 full
7	 63	 L	 0	 x	 2.931	 1	 x	 half
7	 64	 L	 0	 x	 6.118	 1	 x	 half
7	 65	 x	 1	 left	 2.841	 1	 1.7	 full
7	 66	 L	 1	 left	 4.680	 0	 x	 half
7	 67	 x	 1	 right	 2.631	 1	 6	 full
7	 68	 R	 0	 x	 5.649	 1	 x	 half
7	 69	 x	 0	 x	 6.697	 1	 6	 full
7	 70	 x	 0	 x	 5.689	 1	 1.7	 full
7	 71	 L	 1	 right	 5.428	 0	 x	 half
7	 72	 x	 1	 left	 1.902	 1	 6	 full
7	 73	 x	 1	 right	 3.404	 1	 1.7	 full
7	 74	 R	 1	 right	 2.411	 1	 x	 half
7	 75	 L	 0	 x	 3.970	 1	 x	 half
7	 76	 x	 1	 left	 2.102	 1	 6	 full
7	 77	 x	 0	 x	 1.862	 0	 1.7	 full
7	 78	 x	 1	 right	 1.852	 1	 6	 full
7	 79	 x	 1	 right	 3.401	 0	 1.7	 full
7	 80	 x	 1	 left	 1.732	 1	 6	 full
7	 81	 x	 0	 x	 3.540	 1	 1.7	 full
7	 82	 R	 1	 left	 3.910	 0	 x	 half
7	 83	 L	 1	 left	 1.942	 1	 x	 half
7	 84	 x	 0	 x	 3.020	 1	 6	 full
7	 85	 L	 1	 right	 4.021	 0	 x	 half
7	 86	 x	 0	 x	 3.932	 1	 1.7	 full
7	 87	 x	 0	 x	 4.160	 1	 1.7	 full
7	 88	 L	 0	 x	 3.047	 1	 x	 half
7	 89	 x	 0	 x	 2.653	 1	 6	 full
7	 90	 x	 0	 x	 3.341	 1	 6	 full
7	 91	 x	 1	 left	 2.021	 1	 1.7	 full
7	 92	 x	 0	 x	 2.671	 0	 1.7	 full
7	 93	 x	 1	 right	 1.724	 1	 6	 full
7	 94	 x	 0	 x	 2.901	 1	 1.7	 full
7	 95	 R	 0	 x	 3.389	 1	 x	 half
7	 96	 x	 1	 right	 2.831	 1	 1.7	 full
7	 97	 R	 0	 x	 3.611	 1	 x	 half
7	 98	 L	 1	 left	 1.892	 1	 x	 half
7	 99	 x	 1	 right	 3.071	 1	 1.7	 full
7	 100	 x	 1	 right	 2.782	 1	 6	 full
7	 101	 x	 0	 x	 4.090	 1	 1.7	 full
7	 102	 x	 1	 right	 3.890	 0	 1.7	 full
7	 103	 x	 0	 x	 2.958	 1	 6	 full
7	 104	 L	 0	 x	 3.449	 1	 x	 half
7	 105	 x	 0	 x	 2.880	 1	 1.7	 full
7	 106	 R	 1	 right	 1.643	 1	 x	 half
7	 107	 x	 1	 left	 2.581	 1	 6	 full
7	 108	 x	 1	 left	 3.421	 0	 1.7	 full
7	 109	 x	 0	 x	 3.031	 1	 6	 full
7	 110	 x	 1	 left	 1.611	 1	 6	 full
7	 111	 x	 1	 right	 2.233	 1	 6	 full
7	 112	 R	 0	 x	 2.240	 1	 x	 half
7	 113	 x	 1	 left	 2.132	 1	 1.7	 full
7	 114	 x	 0	 x	 1.992	 1	 6	 full
7	 115	 x	 1	 right	 1.679	 1	 6	 full
7	 116	 x	 1	 left	 2.398	 1	 6	 full
7	 117	 x	 0	 x	 1.781	 0	 6	 full
7	 118	 L	 1	 left	 2.042	 1	 x	 half
7	 119	 R	 1	 left	 4.046	 0	 x	 half
7	 120	 x	 0	 x	 4.710	 1	 6	 full
7	 121	 x	 0	 x	 3.100	 1	 6	 full
7	 122	 x	 1	 right	 2.041	 1	 6	 full
7	 123	 R	 1	 right	 2.220	 1	 x	 half
7	 124	 x	 1	 right	 2.713	 0	 1.7	 full
7	 125	 x	 0	 x	 2.892	 1	 1.7	 full
7	 126	 L	 1	 right	 2.926	 0	 x	 half
7	 127	 x	 0	 x	 2.377	 1	 6	 full
7	 128	 x	 1	 left	 3.032	 0	 1.7	 full
7	 129	 x	 0	 x	 1.909	 0	 1.7	 full
7	 130	 x	 0	 x	 1.882	 1	 1.7	 full
7	 131	 x	 0	 x	 3.140	 1	 1.7	 full
7	 132	 x	 0	 x	 4.049	 1	 1.7	 full
7	 133	 x	 0	 x	 3.280	 1	 1.7	 full
7	 134	 x	 1	 left	 3.930	 0	 1.7	 full
7	 135	 L	 0	 x	 4.170	 1	 x	 half
7	 136	 x	 1	 right	 6.468	 0	 1.7	 full
7	 137	 x	 1	 left	 1.971	 1	 6	 full
7	 138	 L	 0	 x	 2.511	 1	 x	 half
7	 139	 x	 0	 x	 5.209	 1	 6	 full
7	 140	 x	 1	 left	 4.997	 0	 1.7	 full
7	 141	 x	 1	 right	 1.822	 1	 6	 full
7	 142	 R	 0	 x	 2.329	 1	 x	 half
7	 143	 R	 1	 right	 1.751	 1	 x	 half
7	 144	 x	 1	 right	 3.118	 0	 1.7	 full
7	 145	 x	 1	 left	 2.082	 1	 6	 full
7	 146	 x	 1	 right	 1.608	 1	 6	 full
7	 147	 x	 1	 left	 3.599	 1	 1.7	 full
7	 148	 x	 0	 x	 3.621	 1	 6	 full
7	 149	 L	 1	 left	 1.726	 1	 x	 half
7	 150	 L	 0	 x	 2.645	 1	 x	 half
7	 151	 x	 1	 left	 3.041	 0	 1.7	 full
7	 152	 x	 1	 left	 1.868	 0	 1.7	 full
7	 153	 L	 0	 x	 1.911	 1	 x	 half
7	 154	 R	 0	 x	 3.399	 1	 x	 half
7	 155	 x	 0	 x	 1.937	 1	 6	 full
7	 156	 x	 1	 left	 1.643	 1	 6	 full
7	 157	 L	 1	 left	 2.191	 1	 x	 half
7	 158	 L	 0	 x	 2.790	 1	 x	 half
7	 159	 x	 1	 right	 2.660	 0	 1.7	 full
7	 160	 x	 0	 x	 2.651	 1	 1.7	 full
7	 161	 x	 0	 x	 2.430	 1	 1.7	 full
7	 162	 x	 0	 x	 1.952	 1	 6	 full
7	 163	 x	 1	 right	 1.851	 0	 1.7	 full
7	 164	 x	 1	 right	 2.062	 0	 1.7	 full
7	 165	 x	 1	 left	 2.123	 1	 6	 full
7	 166	 R	 1	 right	 1.920	 1	 x	 half
7	 167	 x	 1	 right	 2.103	 0	 1.7	 full
7	 168	 x	 1	 right	 2.061	 0	 1.7	 full
7	 169	 R	 1	 right	 2.069	 1	 x	 half
7	 170	 x	 1	 right	 1.732	 1	 6	 full
7	 171	 x	 0	 x	 2.801	 1	 1.7	 full
7	 172	 L	 1	 right	 3.760	 0	 x	 half
7	 173	 x	 1	 left	 2.479	 0	 1.7	 full
7	 174	 L	 0	 x	 2.347	 1	 x	 half
7	 175	 x	 0	 x	 2.232	 1	 1.7	 full
7	 176	 x	 1	 left	 2.470	 0	 1.7	 full
7	 177	 R	 1	 right	 1.701	 1	 x	 half
7	 178	 x	 1	 left	 1.991	 1	 6	 full
7	 179	 x	 0	 x	 2.252	 1	 6	 full
7	 180	 L	 1	 left	 1.761	 1	 x	 half
7	 181	 x	 0	 x	 2.491	 1	 1.7	 full
7	 182	 L	 0	 x	 2.850	 1	 x	 half
7	 183	 L	 0	 x	 1.942	 1	 x	 half
7	 184	 R	 0	 x	 2.282	 1	 x	 half
7	 185	 x	 0	 x	 3.171	 1	 1.7	 full
7	 186	 x	 1	 right	 1.762	 1	 6	 full
7	 187	 x	 0	 x	 1.971	 1	 6	 full
7	 188	 R	 1	 left	 2.170	 0	 x	 half
7	 189	 x	 0	 x	 2.141	 1	 6	 full
7	 190	 x	 0	 x	 6.342	 1	 1.7	 full
7	 191	 x	 1	 left	 2.691	 0	 1.7	 full
7	 192	 L	 0	 x	 2.159	 1	 x	 half
7	 193	 L	 0	 x	 2.169	 1	 x	 half
7	 194	 x	 1	 left	 1.842	 1	 6	 full
7	 195	 x	 1	 right	 2.482	 0	 1.7	 full
7	 196	 x	 0	 x	 1.851	 1	 1.7	 full
7	 197	 x	 0	 x	 1.942	 0	 1.7	 full
7	 198	 x	 0	 x	 1.787	 1	 6	 full
7	 199	 x	 0	 x	 1.863	 1	 1.7	 full
7	 200	 x	 0	 x	 2.712	 1	 1.7	 full
7	 201	 L	 1	 right	 3.379	 1	 x	 half
7	 202	 x	 0	 x	 1.823	 1	 6	 full
7	 203	 x	 0	 x	 1.952	 1	 1.7	 full
7	 204	 R	 0	 x	 2.049	 1	 x	 half
7	 205	 x	 0	 x	 1.881	 1	 6	 full
7	 206	 x	 1	 right	 1.790	 0	 1.7	 full
7	 207	 x	 1	 left	 1.462	 1	 1.7	 full
7	 208	 x	 0	 x	 1.772	 1	 6	 full
7	 209	 x	 1	 right	 1.741	 0	 1.7	 full
7	 210	 x	 0	 x	 1.701	 1	 6	 full
7	 211	 L	 0	 x	 3.110	 1	 x	 half
7	 212	 R	 0	 x	 1.746	 1	 x	 half
7	 213	 x	 0	 x	 1.690	 1	 6	 full
7	 214	 x	 1	 right	 1.823	 0	 1.7	 full
7	 215	 R	 1	 left	 1.617	 0	 x	 half
7	 216	 x	 0	 x	 1.621	 1	 6	 full
7	 217	 x	 1	 right	 1.605	 1	 6	 full
7	 218	 x	 1	 right	 1.692	 0	 1.7	 full
7	 219	 L	 0	 x	 1.761	 1	 x	 half
7	 220	 x	 0	 x	 1.622	 1	 1.7	 full
7	 221	 L	 1	 left	 1.742	 0	 x	 half
7	 222	 R	 0	 x	 1.861	 1	 x	 half
7	 223	 x	 0	 x	 1.662	 1	 1.7	 full
7	 224	 x	 1	 left	 1.632	 1	 6	 full
7	 225	 R	 1	 right	 1.790	 1	 x	 half
7	 226	 x	 0	 x	 2.019	 1	 6	 full
7	 227	 x	 1	 left	 1.611	 1	 6	 full
7	 228	 x	 0	 x	 1.682	 1	 6	 full
7	 229	 L	 0	 x	 1.772	 1	 x	 half
7	 230	 L	 1	 left	 1.682	 0	 x	 half
7	 231	 R	 0	 x	 2.441	 1	 x	 half
7	 232	 x	 0	 x	 2.031	 1	 6	 full
7	 233	 x	 1	 left	 3.289	 0	 1.7	 full
7	 234	 x	 1	 left	 1.652	 1	 6	 full
7	 235	 x	 1	 right	 1.862	 0	 1.7	 full
7	 236	 x	 0	 x	 2.402	 1	 6	 full
7	 237	 R	 0	 x	 2.591	 1	 x	 half
7	 238	 R	 1	 right	 1.651	 1	 x	 half
7	 239	 x	 0	 x	 2.128	 1	 6	 full
7	 240	 L	 1	 right	 2.041	 0	 x	 half
8	 1	 L	 1	 left	 6.359	 1	 x	 half
8	 2	 x	 1	 right	 2.909	 1	 6	 full
8	 3	 x	 1	 left	 2.601	 1	 6	 full
8	 4	 R	 0	 x	 7.766	 0	 x	 half
8	 5	 R	 1	 right	 2.557	 1	 x	 half
8	 6	 x	 1	 right	 1.992	 1	 6	 full
8	 7	 R	 0	 x	 6.769	 1	 x	 half
8	 8	 x	 0	 x	 5.928	 1	 1.7	 full
8	 9	 x	 0	 x	 3.397	 0	 6	 full
8	 10	 x	 1	 right	 2.264	 1	 6	 full
8	 11	 x	 1	 left	 2.404	 1	 1.7	 full
8	 12	 x	 0	 x	 4.658	 1	 6	 full
8	 13	 x	 1	 left	 4.864	 1	 1.7	 full
8	 14	 x	 1	 right	 2.339	 1	 1.7	 full
8	 15	 x	 0	 x	 2.774	 0	 6	 full
8	 16	 x	 0	 x	 3.951	 1	 1.7	 full
8	 17	 x	 1	 right	 2.280	 1	 1.7	 full
8	 18	 L	 1	 left	 2.553	 1	 x	 half
8	 19	 x	 0	 x	 5.619	 1	 1.7	 full
8	 20	 x	 0	 x	 3.432	 0	 1.7	 full
8	 21	 x	 0	 x	 3.060	 0	 6	 full
8	 22	 x	 0	 x	 2.986	 1	 6	 full
8	 23	 x	 1	 right	 2.500	 1	 6	 full
8	 24	 x	 0	 x	 3.510	 1	 6	 full
8	 25	 R	 1	 left	 4.937	 1	 x	 half
8	 26	 L	 0	 x	 4.190	 0	 x	 half
8	 27	 x	 0	 x	 3.050	 0	 1.7	 full
8	 28	 x	 0	 x	 3.020	 0	 6	 full
8	 29	 x	 0	 x	 3.888	 0	 1.7	 full
8	 30	 L	 0	 x	 3.098	 0	 x	 half
8	 31	 x	 0	 x	 3.389	 1	 1.7	 full
8	 32	 x	 0	 x	 4.778	 1	 6	 full
8	 33	 x	 1	 left	 2.131	 1	 6	 full
8	 34	 x	 1	 left	 4.129	 1	 1.7	 full
8	 35	 x	 1	 left	 1.969	 1	 6	 full
8	 36	 x	 1	 left	 1.751	 1	 6	 full
8	 37	 x	 1	 right	 4.438	 1	 1.7	 full
8	 38	 L	 0	 x	 3.860	 0	 x	 half
8	 39	 x	 0	 x	 4.279	 1	 1.7	 full
8	 40	 x	 0	 x	 2.280	 0	 6	 full
8	 41	 L	 0	 x	 5.718	 1	 x	 half
8	 42	 L	 0	 x	 3.969	 1	 x	 half
8	 43	 x	 1	 right	 4.629	 0	 1.7	 full
8	 44	 x	 1	 right	 3.072	 1	 1.7	 full
8	 45	 x	 1	 left	 2.072	 1	 6	 full
8	 46	 L	 1	 right	 2.350	 1	 x	 half
8	 47	 L	 0	 x	 4.958	 1	 x	 half
8	 48	 R	 0	 x	 3.950	 1	 x	 half
8	 49	 x	 1	 right	 3.151	 1	 1.7	 full
8	 50	 R	 1	 left	 2.682	 1	 x	 half
8	 51	 x	 1	 right	 4.046	 0	 1.7	 full
8	 52	 x	 0	 x	 3.118	 0	 6	 full
8	 53	 x	 0	 x	 4.709	 0	 1.7	 full
8	 54	 x	 1	 left	 2.374	 1	 1.7	 full
8	 55	 R	 0	 x	 3.801	 1	 x	 half
8	 56	 x	 0	 x	 2.692	 1	 6	 full
8	 57	 L	 0	 x	 3.520	 1	 x	 half
8	 58	 x	 1	 right	 4.009	 0	 1.7	 full
8	 59	 x	 0	 x	 4.721	 1	 1.7	 full
8	 60	 x	 0	 x	 4.398	 0	 1.7	 full
8	 61	 x	 0	 x	 3.459	 1	 1.7	 full
8	 62	 x	 0	 x	 2.480	 1	 6	 full
8	 63	 R	 0	 x	 3.295	 0	 x	 half
8	 64	 x	 0	 x	 3.360	 1	 6	 full
8	 65	 R	 0	 x	 3.849	 1	 x	 half
8	 66	 L	 1	 left	 2.401	 1	 x	 half
8	 67	 L	 1	 left	 2.051	 1	 x	 half
8	 68	 x	 0	 x	 2.711	 1	 1.7	 full
8	 69	 x	 1	 left	 1.766	 1	 6	 full
8	 70	 x	 1	 right	 1.742	 1	 6	 full
8	 71	 x	 1	 left	 1.843	 1	 6	 full
8	 72	 R	 0	 x	 3.221	 1	 x	 half
8	 73	 x	 0	 x	 2.791	 1	 6	 full
8	 74	 x	 0	 x	 4.263	 1	 6	 full
8	 75	 x	 0	 x	 2.860	 1	 6	 full
8	 76	 L	 0	 x	 3.120	 0	 x	 half
8	 77	 R	 1	 left	 4.176	 0	 x	 half
8	 78	 x	 0	 x	 3.777	 1	 6	 full
8	 79	 L	 1	 right	 3.889	 0	 x	 half
8	 80	 x	 1	 left	 1.839	 1	 6	 full
8	 81	 x	 1	 right	 2.242	 1	 1.7	 full
8	 82	 L	 1	 right	 3.670	 0	 x	 half
8	 83	 L	 0	 x	 3.910	 1	 x	 half
8	 84	 L	 0	 x	 3.720	 1	 x	 half
8	 85	 x	 1	 left	 2.581	 1	 1.7	 full
8	 86	 x	 0	 x	 3.341	 1	 6	 full
8	 87	 x	 0	 x	 4.547	 1	 1.7	 full
8	 88	 x	 0	 x	 4.031	 1	 1.7	 full
8	 89	 x	 1	 left	 1.992	 1	 6	 full
8	 90	 x	 1	 right	 1.821	 1	 6	 full
8	 91	 x	 1	 left	 3.319	 0	 1.7	 full
8	 92	 x	 0	 x	 3.939	 1	 1.7	 full
8	 93	 x	 1	 right	 5.069	 1	 1.7	 full
8	 94	 x	 1	 left	 2.716	 0	 1.7	 full
8	 95	 x	 1	 left	 2.181	 1	 6	 full
8	 96	 R	 1	 right	 2.132	 1	 x	 half
8	 97	 x	 1	 right	 1.870	 1	 6	 full
8	 98	 L	 1	 left	 1.970	 1	 x	 half
8	 99	 x	 1	 right	 1.682	 1	 6	 full
8	 100	 x	 0	 x	 2.491	 1	 6	 full
8	 101	 x	 0	 x	 4.139	 1	 1.7	 full
8	 102	 R	 1	 right	 1.890	 1	 x	 half
8	 103	 x	 0	 x	 2.557	 1	 1.7	 full
8	 104	 x	 0	 x	 3.170	 1	 6	 full
8	 105	 x	 0	 x	 3.792	 1	 1.7	 full
8	 106	 x	 0	 x	 2.942	 1	 6	 full
8	 107	 x	 1	 right	 1.842	 1	 6	 full
8	 108	 x	 0	 x	 2.381	 1	 1.7	 full
8	 109	 L	 1	 left	 2.033	 1	 x	 half
8	 110	 x	 0	 x	 2.314	 1	 6	 full
8	 111	 x	 0	 x	 2.451	 1	 1.7	 full
8	 112	 R	 1	 right	 1.820	 1	 x	 half
8	 113	 x	 1	 left	 2.159	 0	 1.7	 full
8	 114	 x	 0	 x	 2.231	 1	 6	 full
8	 115	 R	 0	 x	 2.708	 1	 x	 half
8	 116	 x	 1	 left	 2.837	 1	 1.7	 full
8	 117	 L	 1	 right	 2.851	 0	 x	 half
8	 118	 x	 0	 x	 3.661	 1	 1.7	 full
8	 119	 L	 1	 left	 1.877	 1	 x	 half
8	 120	 x	 1	 right	 2.297	 0	 1.7	 full
8	 121	 x	 1	 right	 1.848	 1	 6	 full
8	 122	 x	 1	 left	 2.301	 1	 1.7	 full
8	 123	 x	 0	 x	 2.133	 1	 6	 full
8	 124	 x	 0	 x	 2.799	 1	 1.7	 full
8	 125	 x	 0	 x	 4.978	 1	 1.7	 full
8	 126	 x	 1	 right	 2.128	 1	 1.7	 full
8	 127	 x	 1	 right	 1.659	 1	 6	 full
8	 128	 L	 1	 left	 1.696	 1	 x	 half
8	 129	 x	 0	 x	 2.469	 1	 1.7	 full
8	 130	 L	 1	 left	 1.802	 1	 x	 half
8	 131	 x	 0	 x	 2.140	 1	 1.7	 full
8	 132	 L	 0	 x	 2.851	 1	 x	 half
8	 133	 L	 1	 left	 1.801	 1	 x	 half
8	 134	 x	 0	 x	 2.150	 1	 1.7	 full
8	 135	 R	 0	 x	 2.402	 1	 x	 half
8	 136	 x	 0	 x	 2.758	 1	 6	 full
8	 137	 L	 1	 left	 2.047	 1	 x	 half
8	 138	 x	 1	 left	 2.564	 0	 1.7	 full
8	 139	 x	 1	 left	 1.832	 1	 6	 full
8	 140	 x	 1	 left	 2.470	 1	 1.7	 full
8	 141	 x	 0	 x	 3.170	 1	 1.7	 full
8	 142	 x	 1	 left	 1.977	 1	 1.7	 full
8	 143	 x	 1	 left	 1.810	 1	 6	 full
8	 144	 x	 0	 x	 2.138	 1	 6	 full
8	 145	 L	 1	 right	 2.980	 0	 x	 half
8	 146	 x	 0	 x	 2.050	 1	 6	 full
8	 147	 x	 1	 left	 2.261	 1	 1.7	 full
8	 148	 R	 0	 x	 2.624	 1	 x	 half
8	 149	 x	 1	 right	 3.085	 1	 1.7	 full
8	 150	 x	 1	 right	 2.032	 1	 1.7	 full
8	 151	 x	 1	 right	 1.640	 1	 6	 full
8	 152	 R	 1	 right	 1.827	 1	 x	 half
8	 153	 x	 0	 x	 2.162	 1	 6	 full
8	 154	 x	 0	 x	 2.409	 1	 6	 full
8	 155	 L	 0	 x	 4.071	 1	 x	 half
8	 156	 x	 0	 x	 2.564	 0	 1.7	 full
8	 157	 R	 1	 left	 2.918	 1	 x	 half
8	 158	 R	 0	 x	 3.488	 1	 x	 half
8	 159	 L	 0	 x	 3.620	 1	 x	 half
8	 160	 R	 1	 right	 1.831	 1	 x	 half
8	 161	 x	 1	 left	 1.702	 1	 6	 full
8	 162	 L	 1	 left	 3.100	 1	 x	 half
8	 163	 x	 1	 left	 1.721	 1	 6	 full
8	 164	 x	 1	 left	 2.640	 1	 1.7	 full
8	 165	 x	 1	 left	 2.230	 1	 6	 full
8	 166	 x	 0	 x	 2.149	 1	 6	 full
8	 167	 x	 1	 left	 1.661	 1	 6	 full
8	 168	 R	 1	 left	 2.241	 1	 x	 half
8	 169	 x	 0	 x	 3.070	 1	 1.7	 full
8	 170	 x	 1	 right	 1.726	 1	 6	 full
8	 171	 x	 0	 x	 2.091	 1	 6	 full
8	 172	 x	 1	 right	 1.692	 0	 6	 full
8	 173	 L	 1	 right	 3.055	 0	 x	 half
8	 174	 x	 1	 right	 2.771	 1	 1.7	 full
8	 175	 x	 0	 x	 3.470	 1	 1.7	 full
8	 176	 R	 1	 right	 1.881	 1	 x	 half
8	 177	 R	 1	 right	 1.690	 1	 x	 half
8	 178	 x	 1	 left	 1.982	 1	 1.7	 full
8	 179	 x	 0	 x	 3.070	 1	 1.7	 full
8	 180	 x	 1	 right	 1.837	 1	 6	 full
8	 181	 L	 0	 x	 3.041	 1	 x	 half
8	 182	 R	 1	 right	 1.859	 1	 x	 half
8	 183	 x	 0	 x	 2.253	 1	 6	 full
8	 184	 x	 0	 x	 2.981	 1	 1.7	 full
8	 185	 x	 0	 x	 2.031	 1	 6	 full
8	 186	 x	 1	 left	 1.933	 1	 1.7	 full
8	 187	 L	 0	 x	 3.081	 1	 x	 half
8	 188	 x	 0	 x	 6.188	 1	 1.7	 full
8	 189	 R	 0	 x	 3.977	 1	 x	 half
8	 190	 x	 0	 x	 4.024	 1	 1.7	 full
8	 191	 R	 0	 x	 2.550	 1	 x	 half
8	 192	 L	 1	 left	 1.866	 1	 x	 half
8	 193	 x	 1	 right	 1.655	 1	 6	 full
8	 194	 x	 1	 right	 2.361	 0	 1.7	 full
8	 195	 x	 1	 left	 1.732	 1	 6	 full
8	 196	 L	 1	 right	 2.271	 1	 x	 half
8	 197	 L	 0	 x	 2.951	 1	 x	 half
8	 198	 x	 0	 x	 2.340	 1	 6	 full
8	 199	 x	 1	 right	 2.011	 1	 6	 full
8	 200	 x	 1	 right	 1.843	 1	 6	 full
8	 201	 x	 1	 right	 3.381	 0	 1.7	 full
8	 202	 x	 0	 x	 3.830	 1	 1.7	 full
8	 203	 x	 1	 right	 4.538	 0	 1.7	 full
8	 204	 R	 1	 left	 4.212	 0	 x	 half
8	 205	 R	 0	 x	 4.163	 1	 x	 half
8	 206	 L	 0	 x	 4.259	 1	 x	 half
8	 207	 R	 0	 x	 2.551	 1	 x	 half
8	 208	 x	 1	 right	 2.328	 1	 1.7	 full
8	 209	 x	 1	 right	 1.901	 1	 6	 full
8	 210	 x	 1	 left	 1.817	 1	 6	 full
8	 211	 x	 0	 x	 2.538	 1	 6	 full
8	 212	 L	 0	 x	 3.170	 1	 x	 half
8	 213	 x	 0	 x	 2.081	 1	 6	 full
8	 214	 x	 1	 left	 2.141	 1	 1.7	 full
8	 215	 L	 0	 x	 3.759	 1	 x	 half
8	 216	 x	 0	 x	 2.029	 1	 6	 full
8	 217	 x	 0	 x	 3.764	 1	 1.7	 full
8	 218	 L	 0	 x	 3.979	 1	 x	 half
8	 219	 x	 1	 left	 1.980	 1	 6	 full
8	 220	 R	 1	 right	 1.851	 1	 x	 half
8	 221	 R	 1	 right	 1.749	 1	 x	 half
8	 222	 L	 1	 right	 1.911	 1	 x	 half
8	 223	 x	 0	 x	 2.010	 1	 6	 full
8	 224	 x	 0	 x	 4.658	 1	 1.7	 full
8	 225	 x	 0	 x	 4.506	 1	 1.7	 full
8	 226	 x	 0	 x	 2.919	 1	 1.7	 full
8	 227	 R	 0	 x	 3.743	 1	 x	 half
8	 228	 L	 0	 x	 4.947	 1	 x	 half
8	 229	 x	 1	 left	 2.336	 1	 1.7	 full
8	 230	 x	 0	 x	 2.104	 1	 6	 full
8	 231	 R	 0	 x	 4.219	 1	 x	 half
8	 232	 x	 0	 x	 1.997	 1	 6	 full
8	 233	 L	 1	 right	 2.910	 0	 x	 half
8	 234	 L	 1	 left	 2.111	 1	 x	 half
8	 235	 x	 1	 left	 2.800	 1	 1.7	 full
8	 236	 x	 1	 right	 1.754	 1	 6	 full
8	 237	 R	 0	 x	 4.159	 1	 x	 half
8	 238	 x	 1	 left	 1.851	 1	 6	 full
8	 239	 x	 1	 right	 3.653	 1	 1.7	 full
8	 240	 R	 0	 x	 3.326	 1	 x	 half
9	 1	 x	 1	 left	 6.312	 1	 1.7	 full
9	 2	 x	 0	 x	 5.909	 1	 6	 full
9	 3	 x	 1	 right	 6.736	 0	 1.7	 full
9	 4	 x	 1	 right	 2.139	 1	 6	 full
9	 5	 x	 0	 x	 3.107	 1	 6	 full
9	 6	 R	 0	 x	 4.323	 1	 x	 half
9	 7	 R	 0	 x	 3.420	 1	 x	 half
9	 8	 x	 0	 x	 3.651	 1	 1.7	 full
9	 9	 x	 0	 x	 2.661	 1	 6	 full
9	 10	 x	 1	 right	 2.431	 0	 6	 full
9	 11	 L	 1	 left	 1.931	 1	 x	 half
9	 12	 x	 0	 x	 2.922	 1	 6	 full
9	 13	 x	 1	 left	 2.430	 1	 1.7	 full
9	 14	 x	 1	 right	 1.922	 1	 6	 full
9	 15	 x	 0	 x	 3.901	 1	 1.7	 full
9	 16	 x	 1	 left	 2.109	 1	 1.7	 full
9	 17	 R	 1	 left	 4.340	 0	 x	 half
9	 18	 L	 0	 x	 3.189	 1	 x	 half
9	 19	 L	 1	 right	 4.349	 0	 x	 half
9	 20	 R	 0	 x	 5.559	 1	 x	 half
9	 21	 L	 1	 right	 5.179	 0	 x	 half
9	 22	 x	 1	 right	 3.157	 1	 6	 full
9	 23	 x	 1	 left	 2.741	 1	 1.7	 full
9	 24	 x	 1	 right	 5.851	 1	 1.7	 full
9	 25	 R	 1	 right	 1.682	 1	 x	 half
9	 26	 x	 1	 right	 1.721	 1	 6	 full
9	 27	 x	 0	 x	 2.861	 1	 6	 full
9	 28	 L	 0	 x	 5.336	 1	 x	 half
9	 29	 x	 0	 x	 4.064	 1	 1.7	 full
9	 30	 x	 0	 x	 4.730	 1	 1.7	 full
9	 31	 R	 0	 x	 6.058	 1	 x	 half
9	 32	 x	 1	 right	 4.446	 1	 1.7	 full
9	 33	 x	 1	 right	 5.761	 0	 1.7	 full
9	 34	 x	 0	 x	 2.859	 1	 6	 full
9	 35	 R	 0	 x	 3.936	 1	 x	 half
9	 36	 L	 0	 x	 5.230	 1	 x	 half
9	 37	 L	 1	 left	 1.900	 1	 x	 half
9	 38	 x	 1	 right	 2.771	 1	 6	 full
9	 39	 x	 0	 x	 5.330	 1	 1.7	 full
9	 40	 L	 1	 right	 5.139	 0	 x	 half
9	 41	 x	 0	 x	 6.506	 1	 1.7	 full
9	 42	 x	 1	 left	 3.961	 0	 1.7	 full
9	 43	 R	 1	 right	 4.418	 1	 x	 half
9	 44	 R	 0	 x	 6.336	 1	 x	 half
9	 45	 x	 1	 left	 1.832	 1	 6	 full
9	 46	 L	 0	 x	 5.619	 1	 x	 half
9	 47	 x	 1	 left	 2.990	 1	 1.7	 full
9	 48	 L	 1	 right	 4.840	 0	 x	 half
9	 49	 x	 0	 x	 4.829	 1	 1.7	 full
9	 50	 x	 0	 x	 2.957	 1	 6	 full
9	 51	 x	 0	 x	 3.207	 1	 6	 full
9	 52	 x	 1	 right	 5.141	 0	 1.7	 full
9	 53	 x	 1	 left	 2.230	 1	 1.7	 full
9	 54	 x	 0	 x	 3.791	 1	 6	 full
9	 55	 x	 0	 x	 5.470	 1	 1.7	 full
9	 56	 x	 1	 right	 1.912	 1	 6	 full
9	 57	 x	 1	 right	 1.573	 1	 6	 full
9	 58	 x	 1	 right	 1.563	 1	 6	 full
9	 59	 L	 0	 x	 2.891	 1	 x	 half
9	 60	 x	 1	 right	 1.712	 1	 6	 full
9	 61	 L	 0	 x	 6.288	 1	 x	 half
9	 62	 L	 1	 left	 2.811	 1	 x	 half
9	 63	 x	 0	 x	 3.220	 1	 6	 full
9	 64	 x	 0	 x	 4.780	 1	 1.7	 full
9	 65	 x	 1	 left	 2.477	 0	 6	 full
9	 66	 L	 0	 x	 3.089	 1	 x	 half
9	 67	 x	 0	 x	 3.392	 1	 1.7	 full
9	 68	 x	 0	 x	 4.849	 1	 1.7	 full
9	 69	 x	 0	 x	 3.002	 1	 6	 full
9	 70	 x	 1	 left	 4.691	 0	 1.7	 full
9	 71	 x	 0	 x	 3.101	 1	 6	 full
9	 72	 R	 1	 left	 3.424	 0	 x	 half
9	 73	 R	 0	 x	 4.600	 1	 x	 half
9	 74	 x	 1	 left	 1.743	 1	 6	 full
9	 75	 R	 1	 right	 2.002	 1	 x	 half
9	 76	 L	 0	 x	 6.288	 1	 x	 half
9	 77	 x	 1	 left	 1.629	 1	 6	 full
9	 78	 x	 1	 right	 2.026	 1	 1.7	 full
9	 79	 x	 0	 x	 3.587	 1	 6	 full
9	 80	 x	 0	 x	 2.781	 1	 6	 full
9	 81	 x	 0	 x	 3.929	 1	 6	 full
9	 82	 x	 0	 x	 3.291	 1	 6	 full
9	 83	 R	 0	 x	 3.871	 1	 x	 half
9	 84	 x	 0	 x	 3.773	 1	 6	 full
9	 85	 x	 0	 x	 4.377	 0	 1.7	 full
9	 86	 x	 1	 left	 5.269	 0	 1.7	 full
9	 87	 x	 1	 right	 4.389	 0	 1.7	 full
9	 88	 x	 1	 right	 2.610	 1	 1.7	 full
9	 89	 R	 1	 left	 4.069	 1	 x	 half
9	 90	 x	 1	 right	 1.583	 1	 6	 full
9	 91	 x	 1	 right	 6.130	 1	 1.7	 full
9	 92	 L	 0	 x	 5.667	 1	 x	 half
9	 93	 x	 0	 x	 4.517	 1	 1.7	 full
9	 94	 x	 0	 x	 4.739	 1	 1.7	 full
9	 95	 x	 0	 x	 5.367	 1	 1.7	 full
9	 96	 x	 1	 left	 1.679	 1	 6	 full
9	 97	 x	 1	 left	 3.537	 0	 1.7	 full
9	 98	 x	 1	 left	 1.824	 1	 6	 full
9	 99	 x	 0	 x	 4.503	 1	 6	 full
9	 100	 R	 0	 x	 6.796	 1	 x	 half
9	 101	 x	 0	 x	 7.118	 1	 1.7	 full
9	 102	 L	 1	 left	 2.411	 1	 x	 half
9	 103	 x	 0	 x	 3.081	 1	 6	 full
9	 104	 x	 1	 left	 1.803	 1	 6	 full
9	 105	 x	 0	 x	 2.611	 1	 6	 full
9	 106	 x	 1	 left	 1.639	 1	 6	 full
9	 107	 x	 0	 x	 6.278	 1	 1.7	 full
9	 108	 L	 1	 right	 4.952	 0	 x	 half
9	 109	 L	 1	 right	 1.952	 1	 x	 half
9	 110	 x	 1	 left	 1.633	 1	 6	 full
9	 111	 x	 0	 x	 2.971	 1	 6	 full
9	 112	 R	 0	 x	 6.185	 1	 x	 half
9	 113	 R	 0	 x	 6.200	 1	 x	 half
9	 114	 x	 0	 x	 3.130	 1	 6	 full
9	 115	 x	 1	 left	 2.345	 1	 6	 full
9	 116	 x	 0	 x	 8.672	 1	 1.7	 full
9	 117	 x	 1	 left	 1.801	 1	 6	 full
9	 118	 x	 1	 right	 6.714	 0	 1.7	 full
9	 119	 x	 1	 left	 6.292	 0	 1.7	 full
9	 120	 L	 1	 right	 8.056	 0	 x	 half
9	 121	 R	 1	 right	 1.721	 1	 x	 half
9	 122	 x	 0	 x	 2.860	 1	 6	 full
9	 123	 x	 1	 left	 1.733	 1	 6	 full
9	 124	 x	 0	 x	 2.282	 1	 6	 full
9	 125	 x	 0	 x	 4.570	 1	 1.7	 full
9	 126	 R	 1	 right	 1.788	 1	 x	 half
9	 127	 x	 1	 left	 1.978	 1	 1.7	 full
9	 128	 x	 1	 right	 1.593	 1	 6	 full
9	 129	 L	 1	 left	 1.583	 1	 x	 half
9	 130	 x	 0	 x	 2.811	 1	 6	 full
9	 131	 L	 1	 left	 1.644	 1	 x	 half
9	 132	 x	 0	 x	 3.495	 1	 6	 full
9	 133	 x	 0	 x	 2.076	 1	 6	 full
9	 134	 x	 1	 left	 3.164	 1	 1.7	 full
9	 135	 L	 0	 x	 4.289	 1	 x	 half
9	 136	 x	 1	 left	 1.751	 1	 6	 full
9	 137	 x	 0	 x	 3.391	 1	 6	 full
9	 138	 L	 0	 x	 6.368	 1	 x	 half
9	 139	 x	 0	 x	 3.866	 1	 6	 full
9	 140	 x	 0	 x	 5.884	 1	 1.7	 full
9	 141	 x	 1	 right	 1.762	 1	 6	 full
9	 142	 x	 0	 x	 4.364	 1	 1.7	 full
9	 143	 R	 1	 right	 1.620	 1	 x	 half
9	 144	 R	 1	 right	 1.662	 1	 x	 half
9	 145	 x	 1	 right	 1.855	 1	 1.7	 full
9	 146	 R	 0	 x	 5.546	 1	 x	 half
9	 147	 x	 1	 right	 2.801	 1	 1.7	 full
9	 148	 x	 1	 right	 1.621	 1	 6	 full
9	 149	 L	 0	 x	 5.609	 1	 x	 half
9	 150	 x	 1	 right	 1.583	 1	 6	 full
9	 151	 R	 1	 left	 2.648	 1	 x	 half
9	 152	 x	 1	 left	 1.685	 1	 6	 full
9	 153	 L	 0	 x	 5.279	 1	 x	 half
9	 154	 x	 0	 x	 6.139	 1	 1.7	 full
9	 155	 x	 1	 right	 1.832	 1	 6	 full
9	 156	 L	 0	 x	 5.234	 1	 x	 half
9	 157	 R	 0	 x	 4.649	 1	 x	 half
9	 158	 x	 1	 left	 3.091	 1	 1.7	 full
9	 159	 x	 1	 right	 1.706	 1	 6	 full
9	 160	 L	 1	 left	 1.593	 1	 x	 half
9	 161	 R	 0	 x	 4.006	 1	 x	 half
9	 162	 L	 1	 right	 3.971	 0	 x	 half
9	 163	 R	 0	 x	 3.495	 1	 x	 half
9	 164	 x	 0	 x	 3.191	 1	 1.7	 full
9	 165	 x	 0	 x	 2.811	 1	 6	 full
9	 166	 L	 1	 left	 1.702	 1	 x	 half
9	 167	 R	 1	 right	 3.560	 1	 x	 half
9	 168	 x	 0	 x	 2.266	 1	 6	 full
9	 169	 x	 0	 x	 3.460	 1	 1.7	 full
9	 170	 x	 0	 x	 5.011	 1	 1.7	 full
9	 171	 L	 1	 left	 1.715	 1	 x	 half
9	 172	 x	 1	 right	 1.772	 1	 6	 full
9	 173	 x	 1	 right	 4.620	 0	 1.7	 full
9	 174	 x	 0	 x	 6.004	 0	 1.7	 full
9	 175	 x	 0	 x	 2.861	 1	 6	 full
9	 176	 x	 1	 right	 1.593	 1	 6	 full
9	 177	 x	 0	 x	 4.101	 1	 1.7	 full
9	 178	 x	 1	 right	 3.541	 0	 1.7	 full
9	 179	 x	 0	 x	 5.147	 1	 1.7	 full
9	 180	 x	 1	 right	 5.879	 0	 1.7	 full
9	 181	 L	 0	 x	 4.591	 1	 x	 half
9	 182	 x	 1	 left	 5.781	 0	 1.7	 full
9	 183	 x	 1	 left	 4.788	 0	 1.7	 full
9	 184	 R	 0	 x	 7.196	 1	 x	 half
9	 185	 x	 0	 x	 1.901	 1	 6	 full
9	 186	 x	 1	 left	 5.810	 1	 1.7	 full
9	 187	 x	 1	 right	 6.666	 0	 1.7	 full
9	 188	 L	 0	 x	 5.678	 1	 x	 half
9	 189	 x	 0	 x	 7.496	 1	 1.7	 full
9	 190	 x	 0	 x	 2.082	 1	 6	 full
9	 191	 x	 1	 right	 6.405	 0	 1.7	 full
9	 192	 R	 0	 x	 7.027	 1	 x	 half
9	 193	 R	 1	 left	 5.566	 0	 x	 half
9	 194	 x	 0	 x	 3.690	 1	 1.7	 full
9	 195	 x	 0	 x	 2.869	 1	 6	 full
9	 196	 R	 1	 right	 1.792	 1	 x	 half
9	 197	 L	 1	 right	 6.629	 0	 x	 half
9	 198	 x	 0	 x	 10.043	 1	 1.7	 full
9	 199	 x	 0	 x	 6.532	 1	 1.7	 full
9	 200	 x	 0	 x	 9.966	 1	 1.7	 full
9	 201	 L	 1	 left	 1.901	 1	 x	 half
9	 202	 R	 1	 right	 2.824	 1	 x	 half
9	 203	 R	 0	 x	 6.507	 1	 x	 half
9	 204	 x	 1	 left	 2.272	 1	 6	 full
9	 205	 x	 0	 x	 8.846	 1	 1.7	 full
9	 206	 L	 1	 left	 1.907	 1	 x	 half
9	 207	 R	 1	 right	 2.162	 1	 x	 half
9	 208	 x	 1	 right	 5.010	 1	 1.7	 full
9	 209	 x	 0	 x	 9.065	 1	 1.7	 full
9	 210	 L	 1	 left	 2.095	 1	 x	 half
9	 211	 L	 0	 x	 7.310	 0	 x	 half
9	 212	 L	 0	 x	 4.846	 1	 x	 half
9	 213	 x	 1	 left	 1.662	 1	 6	 full
9	 214	 L	 0	 x	 4.939	 1	 x	 half
9	 215	 x	 1	 left	 1.583	 1	 6	 full
9	 216	 x	 0	 x	 2.671	 1	 6	 full
9	 217	 x	 0	 x	 2.113	 1	 6	 full
9	 218	 x	 1	 left	 1.851	 1	 6	 full
9	 219	 x	 0	 x	 1.962	 1	 6	 full
9	 220	 x	 0	 x	 7.687	 1	 1.7	 full
9	 221	 R	 0	 x	 6.313	 1	 x	 half
9	 222	 L	 0	 x	 6.319	 1	 x	 half
9	 223	 x	 1	 left	 1.656	 1	 6	 full
9	 224	 L	 1	 left	 1.752	 1	 x	 half
9	 225	 L	 1	 left	 1.662	 1	 x	 half
9	 226	 x	 1	 right	 1.618	 1	 6	 full
9	 227	 x	 0	 x	 1.943	 1	 6	 full
9	 228	 x	 1	 left	 1.582	 1	 6	 full
9	 229	 L	 0	 x	 4.161	 1	 x	 half
9	 230	 x	 1	 left	 1.693	 1	 1.7	 full
9	 231	 x	 1	 left	 2.292	 1	 1.7	 full
9	 232	 x	 0	 x	 3.331	 1	 1.7	 full
9	 233	 x	 0	 x	 2.080	 1	 6	 full
9	 234	 x	 1	 right	 3.974	 0	 1.7	 full
9	 235	 x	 1	 right	 4.919	 0	 1.7	 full
9	 236	 R	 1	 left	 4.478	 0	 x	 half
9	 237	 x	 1	 left	 6.321	 1	 1.7	 full
9	 238	 x	 0	 x	 11.871	 0	 1.7	 full
9	 239	 x	 0	 x	 10.488	 1	 1.7	 full
9	 240	 x	 0	 x	 8.367	 1	 1.7	 full
10	 1	 x	 1	 right	 5.820	 1	 1.7	 full
10	 2	 R	 1	 right	 7.815	 1	 x	 half
10	 3	 x	 1	 right	 2.270	 1	 6	 full
10	 4	 x	 1	 right	 4.108	 1	 1.7	 full
10	 5	 x	 0	 x	 5.559	 1	 6	 full
10	 6	 x	 0	 x	 4.078	 1	 6	 full
10	 7	 x	 0	 x	 6.078	 1	 6	 full
10	 8	 R	 1	 right	 2.031	 1	 x	 half
10	 9	 x	 1	 left	 9.115	 0	 1.7	 full
10	 10	 x	 0	 x	 8.326	 1	 1.7	 full
10	 11	 x	 1	 right	 1.741	 1	 6	 full
10	 12	 L	 1	 right	 8.255	 1	 x	 half
10	 13	 L	 1	 right	 2.079	 1	 x	 half
10	 14	 x	 0	 x	 5.230	 1	 6	 full
10	 15	 x	 0	 x	 7.247	 1	 1.7	 full
10	 16	 R	 0	 x	 6.817	 1	 x	 half
10	 17	 x	 0	 x	 4.070	 1	 6	 full
10	 18	 x	 0	 x	 7.726	 1	 1.7	 full
10	 19	 x	 1	 right	 1.889	 1	 6	 full
10	 20	 x	 0	 x	 6.168	 1	 1.7	 full
10	 21	 x	 0	 x	 5.888	 1	 1.7	 full
10	 22	 x	 0	 x	 3.330	 1	 6	 full
10	 23	 x	 1	 left	 1.962	 1	 6	 full
10	 24	 L	 0	 x	 5.869	 1	 x	 half
10	 25	 x	 0	 x	 5.959	 1	 1.7	 full
10	 26	 L	 1	 right	 7.287	 0	 x	 half
10	 27	 R	 1	 left	 4.550	 0	 x	 half
10	 28	 x	 1	 left	 1.881	 1	 6	 full
10	 29	 x	 1	 left	 1.852	 1	 6	 full
10	 30	 x	 1	 left	 10.430	 1	 1.7	 full
10	 31	 L	 0	 x	 6.077	 1	 x	 half
10	 32	 x	 0	 x	 5.939	 0	 1.7	 full
10	 33	 R	 0	 x	 7.354	 1	 x	 half
10	 34	 L	 1	 left	 2.211	 1	 x	 half
10	 35	 L	 0	 x	 5.846	 1	 x	 half
10	 36	 x	 0	 x	 2.340	 1	 6	 full
10	 37	 x	 1	 right	 2.051	 1	 6	 full
10	 38	 x	 1	 right	 2.771	 1	 1.7	 full
10	 39	 x	 0	 x	 2.561	 1	 6	 full
10	 40	 x	 1	 left	 1.821	 1	 6	 full
10	 41	 x	 1	 right	 6.508	 0	 1.7	 full
10	 42	 x	 0	 x	 2.441	 1	 6	 full
10	 43	 x	 1	 left	 13.351	 0	 1.7	 full
10	 44	 x	 1	 left	 15.050	 0	 1.7	 full
10	 45	 x	 0	 x	 2.440	 1	 6	 full
10	 46	 x	 0	 x	 6.348	 0	 1.7	 full
10	 47	 x	 0	 x	 2.311	 1	 6	 full
10	 48	 x	 1	 right	 13.032	 0	 1.7	 full
10	 49	 R	 1	 right	 2.236	 1	 x	 half
10	 50	 x	 0	 x	 10.595	 0	 1.7	 full
10	 51	 x	 1	 left	 2.021	 1	 6	 full
10	 52	 L	 0	 x	 7.517	 1	 x	 half
10	 53	 x	 1	 left	 6.917	 0	 1.7	 full
10	 54	 x	 1	 left	 4.619	 1	 1.7	 full
10	 55	 L	 0	 x	 5.606	 0	 x	 half
10	 56	 L	 1	 left	 2.090	 1	 x	 half
10	 57	 x	 0	 x	 13.571	 1	 1.7	 full
10	 58	 x	 1	 right	 5.689	 0	 1.7	 full
10	 59	 x	 0	 x	 7.522	 1	 1.7	 full
10	 60	 x	 0	 x	 8.216	 1	 1.7	 full
10	 61	 x	 1	 right	 1.901	 1	 6	 full
10	 62	 x	 1	 left	 1.982	 1	 6	 full
10	 63	 R	 1	 left	 2.051	 1	 x	 half
10	 64	 R	 1	 right	 2.171	 1	 x	 half
10	 65	 L	 0	 x	 5.278	 1	 x	 half
10	 66	 x	 0	 x	 3.372	 1	 6	 full
10	 67	 L	 0	 x	 5.260	 1	 x	 half
10	 68	 x	 1	 left	 1.851	 1	 6	 full
10	 69	 x	 0	 x	 2.092	 1	 6	 full
10	 70	 R	 0	 x	 3.831	 1	 x	 half
10	 71	 x	 0	 x	 5.346	 1	 1.7	 full
10	 72	 x	 0	 x	 3.631	 0	 1.7	 full
10	 73	 x	 0	 x	 2.321	 1	 6	 full
10	 74	 x	 0	 x	 1.842	 1	 6	 full
10	 75	 R	 0	 x	 4.560	 1	 x	 half
10	 76	 x	 1	 right	 6.896	 0	 1.7	 full
10	 77	 x	 1	 left	 1.921	 1	 6	 full
10	 78	 x	 0	 x	 1.860	 0	 6	 full
10	 79	 R	 1	 right	 2.151	 1	 x	 half
10	 80	 x	 0	 x	 2.012	 1	 6	 full
10	 81	 x	 1	 left	 1.841	 1	 6	 full
10	 82	 R	 0	 x	 3.511	 1	 x	 half
10	 83	 L	 1	 left	 1.894	 1	 x	 half
10	 84	 R	 1	 right	 1.942	 1	 x	 half
10	 85	 x	 0	 x	 4.240	 1	 1.7	 full
10	 86	 x	 0	 x	 3.291	 1	 6	 full
10	 87	 L	 0	 x	 5.859	 1	 x	 half
10	 88	 x	 1	 left	 6.309	 0	 1.7	 full
10	 89	 x	 0	 x	 1.861	 1	 6	 full
10	 90	 L	 1	 left	 1.913	 1	 x	 half
10	 91	 x	 1	 left	 2.643	 1	 1.7	 full
10	 92	 R	 0	 x	 5.826	 1	 x	 half
10	 93	 R	 1	 right	 2.042	 1	 x	 half
10	 94	 x	 1	 left	 1.962	 1	 6	 full
10	 95	 R	 1	 right	 1.790	 1	 x	 half
10	 96	 x	 1	 left	 1.932	 1	 6	 full
10	 97	 x	 1	 right	 1.777	 1	 6	 full
10	 98	 x	 0	 x	 6.618	 1	 1.7	 full
10	 99	 x	 1	 right	 6.165	 0	 1.7	 full
10	 100	 x	 0	 x	 6.127	 1	 1.7	 full
10	 101	 R	 0	 x	 3.254	 1	 x	 half
10	 102	 L	 1	 left	 1.872	 1	 x	 half
10	 103	 x	 1	 left	 6.988	 0	 1.7	 full
10	 104	 x	 0	 x	 2.801	 1	 1.7	 full
10	 105	 R	 0	 x	 7.486	 1	 x	 half
10	 106	 x	 1	 left	 1.781	 1	 6	 full
10	 107	 x	 0	 x	 4.429	 1	 1.7	 full
10	 108	 x	 1	 left	 1.750	 1	 6	 full
10	 109	 x	 1	 left	 1.893	 1	 6	 full
10	 110	 L	 1	 left	 1.772	 1	 x	 half
10	 111	 x	 1	 left	 2.770	 0	 1.7	 full
10	 112	 x	 1	 right	 1.901	 1	 6	 full
10	 113	 L	 1	 left	 1.882	 1	 x	 half
10	 114	 x	 1	 right	 2.571	 1	 1.7	 full
10	 115	 R	 1	 left	 5.389	 0	 x	 half
10	 116	 R	 1	 right	 2.471	 1	 x	 half
10	 117	 x	 0	 x	 2.299	 1	 6	 full
10	 118	 x	 0	 x	 6.608	 1	 1.7	 full
10	 119	 x	 0	 x	 2.481	 1	 6	 full
10	 120	 L	 0	 x	 6.129	 1	 x	 half
10	 121	 L	 0	 x	 3.890	 1	 x	 half
10	 122	 L	 1	 right	 2.811	 0	 x	 half
10	 123	 x	 0	 x	 7.707	 1	 1.7	 full
10	 124	 x	 0	 x	 7.334	 1	 1.7	 full
10	 125	 x	 0	 x	 1.921	 1	 6	 full
10	 126	 x	 0	 x	 5.239	 1	 1.7	 full
10	 127	 L	 0	 x	 5.609	 1	 x	 half
10	 128	 x	 1	 right	 1.972	 1	 6	 full
10	 129	 x	 0	 x	 2.559	 1	 6	 full
10	 130	 x	 1	 right	 2.342	 1	 6	 full
10	 131	 x	 0	 x	 1.852	 1	 6	 full
10	 132	 x	 1	 left	 3.119	 1	 1.7	 full
10	 133	 x	 0	 x	 1.903	 1	 6	 full
10	 134	 x	 1	 left	 2.831	 0	 1.7	 full
10	 135	 x	 0	 x	 2.031	 1	 6	 full
10	 136	 x	 1	 left	 1.692	 1	 6	 full
10	 137	 x	 0	 x	 1.917	 1	 6	 full
10	 138	 x	 1	 right	 1.742	 1	 6	 full
10	 139	 L	 0	 x	 5.103	 1	 x	 half
10	 140	 R	 0	 x	 6.416	 1	 x	 half
10	 141	 x	 0	 x	 3.889	 1	 1.7	 full
10	 142	 R	 0	 x	 5.668	 1	 x	 half
10	 143	 L	 1	 left	 1.902	 1	 x	 half
10	 144	 R	 1	 left	 3.910	 0	 x	 half
10	 145	 L	 1	 right	 4.389	 0	 x	 half
10	 146	 R	 0	 x	 4.680	 1	 x	 half
10	 147	 x	 0	 x	 6.219	 1	 1.7	 full
10	 148	 x	 1	 right	 2.410	 1	 6	 full
10	 149	 R	 0	 x	 2.382	 1	 x	 half
10	 150	 x	 0	 x	 2.255	 1	 1.7	 full
10	 151	 L	 1	 left	 1.881	 1	 x	 half
10	 152	 x	 1	 left	 4.478	 0	 1.7	 full
10	 153	 x	 0	 x	 6.468	 1	 1.7	 full
10	 154	 L	 0	 x	 4.872	 1	 x	 half
10	 155	 x	 1	 right	 1.801	 1	 6	 full
10	 156	 L	 1	 right	 4.189	 0	 x	 half
10	 157	 x	 1	 right	 1.668	 1	 6	 full
10	 158	 x	 0	 x	 1.968	 1	 6	 full
10	 159	 R	 0	 x	 7.197	 1	 x	 half
10	 160	 x	 0	 x	 4.628	 1	 1.7	 full
10	 161	 x	 1	 right	 1.792	 1	 6	 full
10	 162	 x	 1	 right	 2.121	 0	 1.7	 full
10	 163	 x	 1	 left	 1.931	 1	 6	 full
10	 164	 x	 0	 x	 3.330	 1	 1.7	 full
10	 165	 x	 1	 right	 1.648	 1	 6	 full
10	 166	 x	 1	 right	 1.902	 1	 6	 full
10	 167	 x	 0	 x	 1.832	 1	 6	 full
10	 168	 x	 1	 left	 1.722	 1	 6	 full
10	 169	 x	 0	 x	 1.842	 1	 6	 full
10	 170	 R	 1	 right	 1.942	 1	 x	 half
10	 171	 L	 1	 left	 1.882	 1	 x	 half
10	 172	 x	 0	 x	 4.420	 1	 1.7	 full
10	 173	 L	 0	 x	 3.511	 1	 x	 half
10	 174	 R	 0	 x	 2.891	 1	 x	 half
10	 175	 L	 0	 x	 2.470	 0	 x	 half
10	 176	 x	 0	 x	 2.350	 1	 6	 full
10	 177	 x	 1	 right	 3.068	 0	 1.7	 full
10	 178	 x	 1	 right	 2.795	 0	 1.7	 full
10	 179	 x	 0	 x	 3.700	 1	 1.7	 full
10	 180	 x	 0	 x	 1.921	 1	 6	 full
10	 181	 x	 1	 left	 4.120	 0	 1.7	 full
10	 182	 R	 0	 x	 4.069	 1	 x	 half
10	 183	 x	 1	 right	 1.843	 1	 6	 full
10	 184	 x	 1	 left	 1.862	 1	 6	 full
10	 185	 R	 1	 left	 5.869	 0	 x	 half
10	 186	 x	 0	 x	 5.319	 1	 1.7	 full
10	 187	 R	 0	 x	 2.681	 1	 x	 half
10	 188	 x	 1	 left	 3.820	 0	 1.7	 full
10	 189	 L	 1	 right	 2.960	 0	 x	 half
10	 190	 x	 0	 x	 6.888	 1	 1.7	 full
10	 191	 x	 0	 x	 2.123	 1	 6	 full
10	 192	 x	 1	 left	 2.691	 1	 1.7	 full
10	 193	 L	 1	 left	 1.978	 1	 x	 half
10	 194	 x	 0	 x	 1.962	 1	 6	 full
10	 195	 x	 0	 x	 2.271	 1	 1.7	 full
10	 196	 x	 1	 right	 2.560	 0	 1.7	 full
10	 197	 R	 0	 x	 3.270	 1	 x	 half
10	 198	 x	 0	 x	 2.590	 1	 1.7	 full
10	 199	 x	 0	 x	 1.933	 1	 1.7	 full
10	 200	 L	 1	 left	 1.812	 1	 x	 half
10	 201	 R	 1	 right	 1.714	 1	 x	 half
10	 202	 x	 1	 left	 2.620	 0	 1.7	 full
10	 203	 x	 1	 right	 1.792	 0	 1.7	 full
10	 204	 x	 1	 left	 2.340	 1	 1.7	 full
10	 205	 L	 0	 x	 3.111	 1	 x	 half
10	 206	 L	 1	 left	 1.691	 1	 x	 half
10	 207	 x	 0	 x	 3.010	 1	 1.7	 full
10	 208	 R	 1	 left	 2.362	 0	 x	 half
10	 209	 R	 0	 x	 4.518	 1	 x	 half
10	 210	 R	 0	 x	 2.965	 1	 x	 half
10	 211	 x	 1	 right	 2.100	 1	 6	 full
10	 212	 x	 1	 right	 1.941	 0	 1.7	 full
10	 213	 x	 1	 right	 4.549	 1	 1.7	 full
10	 214	 x	 0	 x	 2.002	 1	 6	 full
10	 215	 L	 1	 right	 3.671	 0	 x	 half
10	 216	 x	 0	 x	 1.861	 1	 6	 full
10	 217	 x	 1	 right	 7.005	 0	 1.7	 full
10	 218	 L	 0	 x	 3.007	 1	 x	 half
10	 219	 L	 0	 x	 1.932	 1	 x	 half
10	 220	 x	 1	 right	 2.911	 0	 1.7	 full
10	 221	 x	 0	 x	 2.491	 1	 1.7	 full
10	 222	 L	 1	 right	 3.401	 0	 x	 half
10	 223	 x	 1	 right	 5.269	 0	 1.7	 full
10	 224	 L	 1	 left	 1.792	 1	 x	 half
10	 225	 x	 1	 right	 3.701	 0	 1.7	 full
10	 226	 x	 0	 x	 1.921	 1	 6	 full
10	 227	 x	 1	 right	 1.862	 1	 6	 full
10	 228	 x	 0	 x	 2.231	 1	 1.7	 full
10	 229	 x	 1	 left	 1.702	 1	 6	 full
10	 230	 x	 0	 x	 1.886	 1	 6	 full
10	 231	 x	 1	 left	 2.272	 0	 1.7	 full
10	 232	 x	 0	 x	 2.782	 1	 1.7	 full
10	 233	 L	 0	 x	 3.611	 1	 x	 half
10	 234	 x	 0	 x	 1.809	 1	 6	 full
10	 235	 L	 0	 x	 3.221	 1	 x	 half
10	 236	 L	 0	 x	 1.911	 1	 x	 half
10	 237	 x	 1	 left	 2.021	 1	 1.7	 full
10	 238	 x	 1	 right	 1.801	 1	 6	 full
10	 239	 x	 1	 left	 1.580	 1	 6	 full
10	 240	 x	 0	 x	 2.003	 1	 6	 full
11	 1	 R	 1	 left	 8.636	 1	 x	 half
11	 2	 L	 0	 x	 8.425	 1	 x	 half
11	 3	 x	 1	 right	 3.230	 0	 6	 full
11	 4	 R	 1	 right	 3.089	 1	 x	 half
11	 5	 x	 1	 right	 2.840	 1	 6	 full
11	 6	 x	 1	 left	 5.682	 0	 1.7	 full
11	 7	 x	 1	 left	 2.531	 1	 6	 full
11	 8	 x	 1	 left	 2.535	 1	 6	 full
11	 9	 R	 0	 x	 7.006	 1	 x	 half
11	 10	 x	 1	 right	 2.282	 1	 6	 full
11	 11	 L	 0	 x	 7.777	 1	 x	 half
11	 12	 L	 0	 x	 5.978	 1	 x	 half
11	 13	 x	 0	 x	 6.059	 1	 1.7	 full
11	 14	 R	 0	 x	 6.858	 1	 x	 half
11	 15	 x	 1	 right	 3.440	 1	 1.7	 full
11	 16	 x	 0	 x	 6.285	 1	 6	 full
11	 17	 x	 0	 x	 5.309	 1	 6	 full
11	 18	 x	 1	 left	 7.298	 0	 1.7	 full
11	 19	 x	 0	 x	 5.419	 1	 6	 full
11	 20	 x	 0	 x	 6.948	 1	 6	 full
11	 21	 x	 1	 right	 2.650	 1	 6	 full
11	 22	 x	 0	 x	 7.109	 1	 6	 full
11	 23	 x	 0	 x	 6.632	 1	 1.7	 full
11	 24	 x	 1	 right	 3.969	 1	 1.7	 full
11	 25	 L	 0	 x	 8.496	 1	 x	 half
11	 26	 L	 1	 left	 2.471	 1	 x	 half
11	 27	 x	 0	 x	 4.920	 1	 6	 full
11	 28	 L	 1	 left	 2.361	 1	 x	 half
11	 29	 L	 0	 x	 7.216	 1	 x	 half
11	 30	 x	 0	 x	 5.569	 1	 6	 full
11	 31	 L	 0	 x	 9.314	 1	 x	 half
11	 32	 x	 1	 left	 11.263	 0	 1.7	 full
11	 33	 x	 1	 left	 13.701	 0	 1.7	 full
11	 34	 x	 0	 x	 11.373	 1	 1.7	 full
11	 35	 x	 0	 x	 5.669	 1	 6	 full
11	 36	 x	 1	 left	 4.252	 1	 1.7	 full
11	 37	 L	 1	 right	 6.957	 0	 x	 half
11	 38	 x	 1	 right	 2.271	 1	 6	 full
11	 39	 L	 0	 x	 7.467	 1	 x	 half
11	 40	 R	 1	 right	 2.062	 1	 x	 half
11	 41	 x	 0	 x	 8.114	 1	 1.7	 full
11	 42	 R	 0	 x	 9.232	 1	 x	 half
11	 43	 x	 0	 x	 11.444	 1	 1.7	 full
11	 44	 x	 0	 x	 10.601	 1	 1.7	 full
11	 45	 R	 1	 right	 2.170	 1	 x	 half
11	 46	 L	 0	 x	 8.965	 1	 x	 half
11	 47	 x	 1	 right	 7.803	 0	 1.7	 full
11	 48	 R	 1	 right	 2.042	 1	 x	 half
11	 49	 x	 0	 x	 3.840	 1	 6	 full
11	 50	 R	 0	 x	 8.035	 1	 x	 half
11	 51	 x	 1	 right	 2.421	 1	 6	 full
11	 52	 x	 1	 right	 9.244	 1	 1.7	 full
11	 53	 x	 1	 right	 7.726	 1	 1.7	 full
11	 54	 x	 0	 x	 10.195	 1	 1.7	 full
11	 55	 x	 0	 x	 9.486	 1	 1.7	 full
11	 56	 x	 1	 right	 10.430	 0	 1.7	 full
11	 57	 R	 1	 right	 1.990	 1	 x	 half
11	 58	 x	 1	 right	 3.570	 1	 6	 full
11	 59	 x	 1	 right	 2.091	 1	 6	 full
11	 60	 x	 1	 left	 2.282	 1	 6	 full
11	 61	 x	 1	 left	 1.901	 1	 6	 full
11	 62	 x	 0	 x	 5.639	 1	 6	 full
11	 63	 x	 1	 left	 3.600	 1	 1.7	 full
11	 64	 x	 0	 x	 3.332	 1	 6	 full
11	 65	 x	 1	 right	 2.280	 1	 1.7	 full
11	 66	 x	 1	 left	 2.052	 1	 6	 full
11	 67	 x	 0	 x	 11.903	 1	 1.7	 full
11	 68	 x	 1	 right	 2.282	 1	 1.7	 full
11	 69	 L	 1	 left	 1.917	 1	 x	 half
11	 70	 L	 0	 x	 5.073	 1	 x	 half
11	 71	 x	 1	 right	 6.798	 0	 1.7	 full
11	 72	 x	 1	 left	 2.402	 1	 6	 full
11	 73	 x	 0	 x	 6.070	 1	 1.7	 full
11	 74	 x	 0	 x	 6.836	 1	 6	 full
11	 75	 x	 1	 left	 2.371	 1	 1.7	 full
11	 76	 x	 0	 x	 5.149	 1	 6	 full
11	 77	 L	 1	 left	 1.982	 1	 x	 half
11	 78	 x	 0	 x	 6.937	 1	 1.7	 full
11	 79	 R	 0	 x	 5.798	 0	 x	 half
11	 80	 x	 0	 x	 7.965	 1	 1.7	 full
11	 81	 x	 1	 left	 1.961	 1	 6	 full
11	 82	 x	 1	 left	 3.980	 1	 1.7	 full
11	 83	 x	 1	 right	 1.881	 1	 6	 full
11	 84	 x	 1	 left	 1.761	 1	 1.7	 full
11	 85	 x	 0	 x	 4.100	 1	 6	 full
11	 86	 x	 0	 x	 8.226	 1	 1.7	 full
11	 87	 x	 0	 x	 4.252	 1	 6	 full
11	 88	 x	 1	 right	 4.048	 1	 1.7	 full
11	 89	 R	 0	 x	 8.976	 1	 x	 half
11	 90	 L	 1	 left	 1.860	 1	 x	 half
11	 91	 x	 1	 left	 1.952	 1	 6	 full
11	 92	 x	 0	 x	 9.695	 1	 1.7	 full
11	 93	 x	 1	 right	 10.229	 0	 1.7	 full
11	 94	 R	 1	 left	 4.307	 1	 x	 half
11	 95	 x	 1	 left	 2.127	 1	 6	 full
11	 96	 L	 1	 right	 10.630	 0	 x	 half
11	 97	 x	 1	 left	 2.182	 1	 1.7	 full
11	 98	 x	 0	 x	 3.773	 0	 6	 full
11	 99	 x	 1	 left	 2.342	 1	 6	 full
11	 100	 L	 0	 x	 5.318	 1	 x	 half
11	 101	 x	 1	 right	 2.501	 1	 6	 full
11	 102	 R	 1	 right	 1.861	 1	 x	 half
11	 103	 x	 0	 x	 3.161	 1	 6	 full
11	 104	 L	 1	 left	 2.709	 1	 x	 half
11	 105	 x	 0	 x	 10.645	 1	 1.7	 full
11	 106	 x	 1	 left	 2.390	 1	 1.7	 full
11	 107	 x	 0	 x	 5.479	 1	 1.7	 full
11	 108	 L	 1	 left	 1.792	 1	 x	 half
11	 109	 L	 0	 x	 7.357	 1	 x	 half
11	 110	 R	 1	 right	 2.495	 1	 x	 half
11	 111	 L	 1	 left	 2.096	 1	 x	 half
11	 112	 L	 0	 x	 4.409	 1	 x	 half
11	 113	 x	 0	 x	 9.386	 1	 1.7	 full
11	 114	 L	 1	 left	 1.912	 1	 x	 half
11	 115	 x	 1	 left	 1.821	 1	 6	 full
11	 116	 R	 0	 x	 4.499	 1	 x	 half
11	 117	 x	 0	 x	 7.987	 1	 1.7	 full
11	 118	 R	 1	 right	 2.681	 1	 x	 half
11	 119	 L	 0	 x	 4.469	 1	 x	 half
11	 120	 R	 0	 x	 5.258	 1	 x	 half
11	 121	 x	 1	 left	 2.752	 1	 1.7	 full
11	 122	 R	 0	 x	 5.119	 1	 x	 half
11	 123	 x	 0	 x	 6.109	 1	 1.7	 full
11	 124	 L	 0	 x	 6.870	 1	 x	 half
11	 125	 x	 1	 right	 2.960	 1	 6	 full
11	 126	 x	 0	 x	 5.237	 1	 6	 full
11	 127	 x	 1	 left	 2.162	 1	 1.7	 full
11	 128	 x	 1	 left	 2.146	 1	 1.7	 full
11	 129	 x	 1	 right	 7.420	 0	 1.7	 full
11	 130	 x	 1	 right	 12.183	 1	 1.7	 full
11	 131	 x	 0	 x	 10.304	 1	 1.7	 full
11	 132	 x	 0	 x	 6.508	 1	 6	 full
11	 133	 x	 0	 x	 3.340	 1	 6	 full
11	 134	 L	 1	 right	 7.969	 0	 x	 half
11	 135	 x	 1	 left	 3.030	 1	 1.7	 full
11	 136	 x	 0	 x	 3.120	 1	 6	 full
11	 137	 x	 0	 x	 12.531	 1	 1.7	 full
11	 138	 x	 0	 x	 8.707	 1	 1.7	 full
11	 139	 L	 0	 x	 6.118	 1	 x	 half
11	 140	 x	 0	 x	 2.509	 1	 6	 full
11	 141	 L	 0	 x	 9.524	 1	 x	 half
11	 142	 L	 1	 left	 2.381	 1	 x	 half
11	 143	 x	 0	 x	 9.186	 1	 1.7	 full
11	 144	 x	 0	 x	 6.898	 1	 1.7	 full
11	 145	 x	 0	 x	 2.352	 1	 6	 full
11	 146	 L	 1	 right	 2.496	 1	 x	 half
11	 147	 R	 1	 left	 3.591	 1	 x	 half
11	 148	 x	 0	 x	 9.156	 1	 1.7	 full
11	 149	 x	 0	 x	 8.587	 1	 1.7	 full
11	 150	 x	 0	 x	 2.232	 1	 6	 full
11	 151	 R	 0	 x	 7.229	 1	 x	 half
11	 152	 x	 1	 right	 5.779	 1	 1.7	 full
11	 153	 x	 1	 right	 1.912	 1	 6	 full
11	 154	 x	 1	 right	 1.792	 1	 6	 full
11	 155	 x	 1	 left	 2.611	 1	 1.7	 full
11	 156	 R	 1	 right	 1.692	 1	 x	 half
11	 157	 x	 0	 x	 4.878	 1	 6	 full
11	 158	 x	 1	 right	 1.782	 1	 6	 full
11	 159	 x	 0	 x	 4.640	 1	 6	 full
11	 160	 x	 0	 x	 7.106	 1	 1.7	 full
11	 161	 x	 0	 x	 4.989	 1	 6	 full
11	 162	 x	 0	 x	 9.175	 1	 1.7	 full
11	 163	 x	 1	 right	 1.882	 1	 6	 full
11	 164	 R	 0	 x	 3.779	 1	 x	 half
11	 165	 x	 0	 x	 2.491	 1	 6	 full
11	 166	 x	 1	 right	 1.688	 1	 6	 full
11	 167	 x	 0	 x	 4.140	 1	 6	 full
11	 168	 x	 1	 right	 2.322	 1	 1.7	 full
11	 169	 R	 0	 x	 6.574	 1	 x	 half
11	 170	 x	 0	 x	 2.472	 1	 6	 full
11	 171	 x	 0	 x	 2.761	 1	 6	 full
11	 172	 L	 1	 left	 2.333	 1	 x	 half
11	 173	 x	 0	 x	 5.449	 1	 1.7	 full
11	 174	 L	 1	 left	 2.930	 1	 x	 half
11	 175	 L	 0	 x	 4.089	 1	 x	 half
11	 176	 x	 0	 x	 5.118	 1	 1.7	 full
11	 177	 x	 1	 left	 1.811	 1	 6	 full
11	 178	 x	 1	 left	 1.638	 1	 6	 full
11	 179	 x	 0	 x	 2.541	 1	 6	 full
11	 180	 x	 0	 x	 4.110	 1	 1.7	 full
11	 181	 R	 0	 x	 4.200	 1	 x	 half
11	 182	 R	 1	 right	 1.921	 1	 x	 half
11	 183	 x	 1	 left	 1.762	 1	 6	 full
11	 184	 x	 1	 right	 1.573	 1	 6	 full
11	 185	 x	 0	 x	 2.530	 1	 1.7	 full
11	 186	 x	 0	 x	 3.176	 1	 6	 full
11	 187	 x	 0	 x	 2.921	 1	 6	 full
11	 188	 x	 0	 x	 2.701	 1	 6	 full
11	 189	 x	 1	 right	 1.839	 1	 1.7	 full
11	 190	 x	 0	 x	 2.311	 1	 6	 full
11	 191	 x	 1	 right	 1.901	 1	 1.7	 full
11	 192	 x	 1	 left	 1.633	 1	 6	 full
11	 193	 x	 1	 right	 1.930	 1	 1.7	 full
11	 194	 x	 0	 x	 2.291	 1	 6	 full
11	 195	 x	 0	 x	 2.728	 1	 6	 full
11	 196	 R	 1	 left	 2.131	 1	 x	 half
11	 197	 L	 1	 right	 1.742	 1	 x	 half
11	 198	 R	 1	 left	 5.869	 1	 x	 half
11	 199	 R	 1	 right	 2.772	 1	 x	 half
11	 200	 x	 0	 x	 2.382	 1	 6	 full
11	 201	 x	 1	 right	 1.761	 1	 6	 full
11	 202	 x	 1	 left	 2.111	 1	 1.7	 full
11	 203	 x	 1	 left	 1.621	 1	 6	 full
11	 204	 x	 1	 left	 2.172	 1	 1.7	 full
11	 205	 x	 1	 left	 1.841	 1	 1.7	 full
11	 206	 L	 0	 x	 3.438	 1	 x	 half
11	 207	 L	 1	 right	 2.312	 1	 x	 half
11	 208	 x	 0	 x	 2.362	 1	 6	 full
11	 209	 R	 0	 x	 4.089	 1	 x	 half
11	 210	 x	 0	 x	 5.115	 1	 1.7	 full
11	 211	 L	 1	 left	 1.901	 1	 x	 half
11	 212	 x	 0	 x	 3.951	 1	 1.7	 full
11	 213	 L	 0	 x	 4.084	 1	 x	 half
11	 214	 x	 0	 x	 6.498	 1	 1.7	 full
11	 215	 x	 1	 left	 1.782	 1	 6	 full
11	 216	 x	 0	 x	 4.298	 1	 1.7	 full
