expName,subjectId,subjectGender,subjectAge,session,block,blockType,trial,setSize,targetOri,targetPos,distrMean,dtype,dsd,targetDist,t_dist_to_prev_d,answer,rt,correct,prev_correct,blockId,tid
set_size_experiment_1,1,f,27,2,0,prime,0,14,-175,10,-64,norm,15,-69,,j,943.78836453,1,,1,1
set_size_experiment_1,1,f,27,2,0,prime,1,14,-161,1,-64,norm,15,-83,,j,661.40660923,1,1,1,2
set_size_experiment_1,1,f,27,2,0,prime,2,14,-159,1,-64,norm,15,-85,,i,599.944253452,1,1,1,3
set_size_experiment_1,1,f,27,2,0,prime,3,14,-153,1,-64,norm,15,89,,i,573.94500263,1,1,1,4
set_size_experiment_1,1,f,27,2,1,probe,0,36,-42,12,-154,norm,10,68,21.678981867,j,593.740018085,1,1,2,5
set_size_experiment_1,1,f,27,2,2,prime,0,24,-107,5,-40,norm,15,67,47.150695803,j,816.180573776,1,1,3,6
set_size_experiment_1,1,f,27,2,2,prime,1,24,-137,4,-40,norm,15,-83,17.150695803,j,744.049748406,1,1,3,7
set_size_experiment_1,1,f,27,2,2,prime,2,24,-133,17,-40,norm,15,-87,21.150695803,i,536.874974146,1,1,3,8
set_size_experiment_1,1,f,27,2,3,probe,0,36,-52,32,-159,norm,10,73,-12.436211547,j,605.553104542,1,1,4,9
set_size_experiment_1,1,f,27,2,3,probe,1,36,-52,15,-158,norm,10,74,-12.436211547,j,499.369946308,1,1,4,10
set_size_experiment_1,1,f,27,2,4,prime,0,36,-162,33,-74,norm,15,88,-3.74102347600001,i,664.874303155,1,1,5,11
set_size_experiment_1,1,f,27,2,4,prime,1,36,-165,14,-74,norm,15,-89,-6.74102347600001,j,493.139171973,1,1,5,12
set_size_experiment_1,1,f,27,2,4,prime,2,36,-193,15,-74,norm,15,-61,-34.741023476,j,503.632641397,1,1,5,13
set_size_experiment_1,1,f,27,2,5,probe,0,36,-104,24,-172,norm,10,-68,-29.686429979,j,543.23728662,1,1,6,14
set_size_experiment_1,1,f,27,2,5,probe,1,36,-104,15,-178,norm,10,-74,-29.686429979,i,519.370730035,1,1,6,15
set_size_experiment_1,1,f,27,2,6,prime,0,36,-3,0,69,uni,15,72,-4.92382199499997,j,620.324268937,1,1,7,16
set_size_experiment_1,1,f,27,2,6,prime,1,36,-31,10,69,uni,15,-80,-32.923821995,i,466.313766316,1,1,7,17
set_size_experiment_1,1,f,27,2,6,prime,2,36,6,23,69,uni,15,63,4.07617800500003,i,650.610830635,1,1,7,18
set_size_experiment_1,1,f,27,2,7,probe,0,36,79,10,15,norm,10,-64,10.020888438,j,541.255746968,1,1,8,19
set_size_experiment_1,1,f,27,2,8,prime,0,36,-22,35,89,norm,15,-69,-37.121108331,i,719.092037529,1,1,9,20
set_size_experiment_1,1,f,27,2,8,prime,1,36,6,6,89,norm,15,83,-9.12110833099999,i,527.494967915,1,1,9,21
set_size_experiment_1,1,f,27,2,8,prime,2,36,-1,11,89,norm,15,-90,-16.121108331,j,489.100706764,1,1,9,22
set_size_experiment_1,1,f,27,2,9,probe,0,36,69,18,-9,norm,10,-78,-20.713783736,j,639.052744955,1,1,10,23
set_size_experiment_1,1,f,27,2,10,prime,0,14,-176,7,-107,uni,15,69,13.363574829,j,1545.74690387,0,1,11,24
set_size_experiment_1,1,f,27,2,10,prime,1,14,-178,10,-107,uni,15,71,11.363574829,j,628.451967612,0,0,11,25
set_size_experiment_1,1,f,27,2,10,prime,2,14,-212,12,-107,uni,15,-75,-22.636425171,j,612.191186287,0,0,11,26
set_size_experiment_1,1,f,27,2,11,probe,0,36,-94,5,-183,norm,10,-89,13.177086441,i,610.417723656,1,0,12,27
set_size_experiment_1,1,f,27,2,12,prime,0,24,-33,7,72,uni,15,-75,-29.836486087,i,1034.66766514,1,1,13,28
set_size_experiment_1,1,f,27,2,12,prime,1,24,-10,14,72,uni,15,82,-6.83648608699997,i,449.483753182,1,1,13,29
set_size_experiment_1,1,f,27,2,12,prime,2,24,3,14,72,uni,15,69,6.16351391300003,i,573.47923331,1,1,13,30
set_size_experiment_1,1,f,27,2,12,prime,3,24,8,19,72,uni,15,64,11.163513913,j,563.136917539,1,1,13,31
set_size_experiment_1,1,f,27,2,13,probe,0,36,119,23,11,norm,10,72,46.18541388,i,537.093050778,1,1,14,32
set_size_experiment_1,1,f,27,2,13,probe,1,36,119,13,25,norm,10,86,46.18541388,j,482.034932822,1,1,14,33
set_size_experiment_1,1,f,27,2,14,prime,0,36,15,35,131,uni,15,-64.0000000004,-9.75224902000002,j,586.158858612,1,1,15,34
set_size_experiment_1,1,f,27,2,14,prime,1,36,45,11,131,uni,15,85.9999999996,20.24775098,i,652.644294314,0,1,15,35
set_size_experiment_1,1,f,27,2,14,prime,2,36,53,17,131,uni,15,77.9999999996,28.24775098,j,1413.22487965,1,0,15,36
set_size_experiment_1,1,f,27,2,14,prime,3,36,26,19,131,uni,15,-75.0000000004,1.24775097999998,i,865.854457952,1,1,15,37
set_size_experiment_1,1,f,27,2,15,probe,0,36,65,9,-40,norm,10,75,-66.0883660896,j,1304.26479504,1,1,16,38
set_size_experiment_1,1,f,27,2,16,prime,0,14,-207,13,-133,uni,15,74,13.715172696,j,1794.07940246,1,1,17,39
set_size_experiment_1,1,f,27,2,16,prime,1,14,-214,11,-133,uni,15,81,6.71517269599997,i,661.63891647,1,1,17,40
set_size_experiment_1,1,f,27,2,16,prime,2,14,-207,13,-133,uni,15,74,13.715172696,i,1036.89458966,1,1,17,41
set_size_experiment_1,1,f,27,2,16,prime,3,14,-230,5,-133,uni,15,-83,-9.28482730400003,j,670.124307275,1,1,17,42
set_size_experiment_1,1,f,27,2,17,probe,0,36,-146,34,-210,norm,10,-64,-13.565005631,i,808.244798332,1,1,18,43
set_size_experiment_1,1,f,27,2,18,prime,0,36,-82,24,25,uni,15,-73,-51.469871891,i,532.280355692,1,1,19,44
set_size_experiment_1,1,f,27,2,18,prime,1,36,-72,29,25,uni,15,-83,-41.469871891,i,618.666576222,1,1,19,45
set_size_experiment_1,1,f,27,2,18,prime,2,36,-68,30,25,uni,15,-87,-37.469871891,j,573.875772767,1,1,19,46
set_size_experiment_1,1,f,27,2,18,prime,3,36,-83,10,25,uni,15,-72,-52.469871891,j,532.243816182,1,1,19,47
set_size_experiment_1,1,f,27,2,19,probe,0,36,56,0,-6,norm,10,-62,30.648565419,i,601.970793679,1,1,20,48
set_size_experiment_1,1,f,27,2,19,probe,1,36,56,35,-34,norm,10,-90,30.648565419,j,573.831540532,1,1,20,49
set_size_experiment_1,1,f,27,2,20,prime,0,24,-13,12,105,norm,15,-62,21.326580589,j,625.828888267,1,1,21,50
set_size_experiment_1,1,f,27,2,20,prime,1,24,-1,2,105,norm,15,-74,33.326580589,j,596.643482335,1,1,21,51
set_size_experiment_1,1,f,27,2,20,prime,2,24,10,0,105,norm,15,-85,44.326580589,i,617.434267886,1,1,21,52
set_size_experiment_1,1,f,27,2,20,prime,3,24,40,3,105,norm,15,65,74.326580589,j,651.694293134,1,1,21,53
set_size_experiment_1,1,f,27,2,21,probe,0,36,122,8,23,norm,10,81,16.157718958,i,837.695975788,1,1,22,54
set_size_experiment_1,1,f,27,2,21,probe,1,36,122,12,3,norm,10,61,16.157718958,i,685.398934409,1,1,22,55
set_size_experiment_1,1,f,27,2,22,prime,0,8,-102,3,2,uni,15,-76,75.342296457,i,871.459847316,1,1,23,56
set_size_experiment_1,1,f,27,2,22,prime,1,8,-110,1,2,uni,15,-68,67.342296457,i,920.897577889,1,1,23,57
set_size_experiment_1,1,f,27,2,22,prime,2,8,-81,5,2,uni,15,83,-83.657703543,j,608.403490856,1,1,23,58
set_size_experiment_1,1,f,27,2,22,prime,3,8,-95,5,2,uni,15,-83,82.342296457,i,612.505801953,0,1,23,59
set_size_experiment_1,1,f,27,2,23,probe,0,36,-28,3,-119,norm,10,89,-29.751602172,i,579.54885345,1,0,24,60
set_size_experiment_1,1,f,27,2,24,prime,0,24,-194,9,-128,norm,15,66,-75.481443585,j,647.258521058,1,1,25,61
set_size_experiment_1,1,f,27,2,24,prime,1,24,-239,0,-128,norm,15,-69,59.518556415,i,602.361947298,1,1,25,62
set_size_experiment_1,1,f,27,2,24,prime,2,24,-203,0,-128,norm,15,75,-84.481443585,j,621.01427,1,1,25,63
set_size_experiment_1,1,f,27,2,25,probe,0,36,-123,35,-187,norm,10,-64,5.76561300599997,j,512.753802352,1,1,26,64
set_size_experiment_1,1,f,27,2,25,probe,1,36,-123,18,-229,norm,10,74,5.76561300599997,j,506.610335782,1,1,26,65
set_size_experiment_1,1,f,27,2,26,prime,0,8,-72,1,30,norm,15,-78,-23.18207801,j,735.547434539,1,1,27,66
set_size_experiment_1,1,f,27,2,26,prime,1,8,-79,0,30,norm,15,-71,-30.18207801,j,902.756025083,1,1,27,67
set_size_experiment_1,1,f,27,2,26,prime,2,8,-67,2,30,norm,15,-83,-18.18207801,i,575.658464804,1,1,27,68
set_size_experiment_1,1,f,27,2,27,probe,0,36,3,26,-99,norm,10,78,-26.86074134,j,517.455728725,1,1,28,69
set_size_experiment_1,1,f,27,2,27,probe,1,36,3,21,-61,norm,10,-64,-26.86074134,i,542.50151664,1,1,28,70
set_size_experiment_1,1,f,27,2,28,prime,0,8,-142,3,-41,norm,15,-79,-81.286172203,j,1299.71479159,1,1,29,71
set_size_experiment_1,1,f,27,2,28,prime,1,8,-103,6,-41,norm,15,62,-42.286172203,j,838.906745426,0,1,29,72
set_size_experiment_1,1,f,27,2,28,prime,2,8,-101,7,-41,norm,15,60,-40.286172203,j,871.128308587,0,0,29,73
set_size_experiment_1,1,f,27,2,29,probe,0,36,-18,1,-134,norm,10,64,23.204075915,j,541.434208862,1,0,30,74
set_size_experiment_1,1,f,27,2,29,probe,1,36,-18,26,-99,norm,10,-81,23.204075915,j,486.348012462,1,1,30,75
set_size_experiment_1,1,f,27,2,30,prime,0,36,-207,18,-130,norm,15,77,71.989932038,j,745.377058163,1,1,31,76
set_size_experiment_1,1,f,27,2,30,prime,1,36,-239,32,-130,norm,15,-71,39.989932038,j,505.891104229,1,1,31,77
set_size_experiment_1,1,f,27,2,30,prime,2,36,-192,29,-130,norm,15,62,86.989932038,i,577.815391123,1,1,31,78
set_size_experiment_1,1,f,27,2,31,probe,0,36,-62,4,-172,norm,10,70,67.891140971,j,519.514190964,1,1,32,79
set_size_experiment_1,1,f,27,2,31,probe,1,36,-62,1,-173,norm,10,69,67.891140971,j,527.926121838,1,1,32,80
set_size_experiment_1,1,f,27,2,32,prime,0,36,-15,20,76,uni,15,-89,-22.013934635,j,691.305478103,1,1,33,81
set_size_experiment_1,1,f,27,2,32,prime,1,36,-38,14,76,uni,15,-66,-45.013934635,j,532.981509343,1,1,33,82
set_size_experiment_1,1,f,27,2,32,prime,2,36,-39,1,76,uni,15,-65,-46.013934635,i,572.574232705,1,1,33,83
set_size_experiment_1,1,f,27,2,32,prime,3,36,-38,1,76,uni,15,-66,-45.013934635,j,499.777253717,1,1,33,84
set_size_experiment_1,1,f,27,2,33,probe,0,36,154,23,44,norm,10,69.9999999999,77.3658126311,j,524.873426184,1,1,34,85
set_size_experiment_1,1,f,27,2,33,probe,1,36,154,5,50,norm,10,75.9999999999,77.3658126311,i,502.05379352,1,1,34,86
set_size_experiment_1,1,f,27,2,34,prime,0,8,97,2,160,norm,15,63.0000000001,47.678718146,i,1760.59322339,1,1,35,87
set_size_experiment_1,1,f,27,2,34,prime,1,8,94,2,160,norm,15,66.0000000001,44.678718146,i,630.356969312,1,1,35,88
set_size_experiment_1,1,f,27,2,34,prime,2,8,95,7,160,norm,15,65.0000000001,45.678718146,j,617.764267139,1,1,35,89
set_size_experiment_1,1,f,27,2,34,prime,3,8,66,2,160,norm,15,-85.9999999999,16.678718146,j,1525.64535104,1,1,35,90
set_size_experiment_1,1,f,27,2,35,probe,0,36,189,17,110,norm,10,-79,28.6252731329,i,517.365728505,1,1,36,91
set_size_experiment_1,1,f,27,2,36,prime,0,14,-16,9,57,norm,15,73,54.071490945,j,621.505809017,1,1,37,92
set_size_experiment_1,1,f,27,2,36,prime,1,14,-54,8,57,norm,15,-69,16.071490945,j,685.902011581,1,1,37,93
set_size_experiment_1,1,f,27,2,36,prime,2,14,-55,3,57,norm,15,-68,15.071490945,j,1152.80121751,1,1,37,94
set_size_experiment_1,1,f,27,2,37,probe,0,36,-33,31,-131,norm,10,82,-89.828137943,i,1025.90535022,1,1,38,95
set_size_experiment_1,1,f,27,2,37,probe,1,36,-33,28,-108,norm,10,-75,-89.828137943,i,549.889984541,1,1,38,96
set_size_experiment_1,1,f,27,2,38,prime,0,36,35,32,110,uni,15,75,-37.108817904,i,758.948991075,0,1,39,97
set_size_experiment_1,1,f,27,2,38,prime,1,36,35,33,110,uni,15,75,-37.108817904,j,530.278814957,1,0,39,98
set_size_experiment_1,1,f,27,2,38,prime,2,36,5,33,110,uni,15,-75,-67.108817904,i,507.454952225,1,1,39,99
set_size_experiment_1,1,f,27,2,38,prime,3,36,38,3,110,uni,15,72,-34.108817904,i,813.356725499,1,1,39,100
set_size_experiment_1,1,f,27,2,39,probe,0,36,153,0,63,norm,10,89.9999999998,43.2659310242,j,521.852655336,1,1,40,101
set_size_experiment_1,1,f,27,2,40,prime,0,24,-222,2,-112,uni,15,-70,74.965214138,j,1684.55124181,1,1,41,102
set_size_experiment_1,1,f,27,2,40,prime,1,24,-229,18,-112,uni,15,-63,67.965214138,j,964.159918018,1,1,41,103
set_size_experiment_1,1,f,27,2,40,prime,2,24,-226,20,-112,uni,15,-66,70.965214138,j,1444.05759592,1,1,41,104
set_size_experiment_1,1,f,27,2,41,probe,0,36,-140,28,-209,norm,10,-69,-28.06634956,j,519.072652794,1,1,42,105
set_size_experiment_1,1,f,27,2,42,prime,0,36,-233,14,-125,uni,15,-72,-24.29489247,i,1446.78836595,1,1,43,106
set_size_experiment_1,1,f,27,2,42,prime,1,36,-233,10,-125,uni,15,-72,-24.29489247,i,554.156141356,1,1,43,107
set_size_experiment_1,1,f,27,2,42,prime,2,36,-238,6,-125,uni,15,-67,-29.29489247,i,919.179114513,1,1,43,108
set_size_experiment_1,1,f,27,2,43,probe,0,36,-42,18,-139,norm,10,83,82.845559273,i,557.748836465,0,1,44,109
set_size_experiment_1,1,f,27,2,43,probe,1,36,-42,6,-146,norm,10,76,82.845559273,i,497.848020867,0,0,44,110
set_size_experiment_1,1,f,27,2,44,prime,0,36,-96,12,22,norm,15,-62,50.133620693,j,612.780417316,1,0,45,111
set_size_experiment_1,1,f,27,2,44,prime,1,36,-44,30,22,norm,15,66,-77.866379307,j,569.051537663,1,1,45,112
set_size_experiment_1,1,f,27,2,44,prime,2,36,-93,25,22,norm,15,-65,53.133620693,j,589.918476529,1,1,45,113
set_size_experiment_1,1,f,27,2,44,prime,3,36,-83,14,22,norm,15,-75,63.133620693,j,469.182998873,0,1,45,114
set_size_experiment_1,1,f,27,2,45,probe,0,36,83,27,-16,norm,10,81,61.489709762,j,444.782979786,1,0,46,115
set_size_experiment_1,1,f,27,2,46,prime,0,8,-45,0,54,norm,15,-81,-28.799858006,i,2549.96729176,1,1,47,116
set_size_experiment_1,1,f,27,2,46,prime,1,8,-33,3,54,norm,15,87,-16.799858006,j,1166.77622776,1,1,47,117
set_size_experiment_1,1,f,27,2,46,prime,2,8,-21,2,54,norm,15,75,-4.79985800599999,j,589.729245752,1,1,47,118
set_size_experiment_1,1,f,27,2,47,probe,0,36,137,30,42,norm,10,85,82.79862524,i,530.471893027,1,1,48,119
set_size_experiment_1,1,f,27,2,48,prime,0,8,53,3,121,norm,15,68,10.383294525,i,3410.25641561,1,1,49,120
set_size_experiment_1,1,f,27,2,48,prime,1,8,54,0,121,norm,15,67,11.383294525,j,1347.6063665,1,1,49,121
set_size_experiment_1,1,f,27,2,48,prime,2,8,57,3,121,norm,15,64,14.383294525,i,1133.20966344,1,1,49,122
set_size_experiment_1,1,f,27,2,49,probe,0,36,149,28,73,norm,10,-75.9999999998,28.6857307538,i,478.132236749,1,1,50,123
set_size_experiment_1,1,f,27,2,50,prime,0,14,-241,13,-128,norm,15,-67,46.085633444,j,693.604325876,0,1,51,124
set_size_experiment_1,1,f,27,2,50,prime,1,14,-192,0,-128,norm,15,64,-84.914366556,j,844.621749595,1,0,51,125
set_size_experiment_1,1,f,27,2,50,prime,2,14,-228,2,-128,norm,15,-80,59.085633444,j,2425.04142597,1,1,51,126
set_size_experiment_1,1,f,27,2,51,probe,0,36,-130,8,-206,norm,10,-76,-2.098876373,j,532.330740243,1,1,52,127
set_size_experiment_1,1,f,27,2,52,prime,0,8,-119,2,-59,norm,15,60,86.450136401,j,666.611612774,0,1,53,128
set_size_experiment_1,1,f,27,2,52,prime,1,8,-122,3,-59,norm,15,63,83.450136401,i,741.840900853,1,0,53,129
set_size_experiment_1,1,f,27,2,52,prime,2,8,-141,5,-59,norm,15,82,64.450136401,j,534.622664563,1,1,53,130
set_size_experiment_1,1,f,27,2,53,probe,0,36,-112,6,-172,norm,10,-60,-53.053564058,j,618.888498284,1,1,54,131
set_size_experiment_1,1,f,27,2,54,prime,0,14,-113,11,-28,uni,15,85,59.158055004,j,980.736085214,1,1,55,132
set_size_experiment_1,1,f,27,2,54,prime,1,14,-120,11,-28,uni,15,-88,52.158055004,j,695.136634633,1,1,55,133
set_size_experiment_1,1,f,27,2,54,prime,2,14,-126,2,-28,uni,15,-82,46.158055004,j,522.335732356,1,1,55,134
set_size_experiment_1,1,f,27,2,55,probe,0,36,-42,5,-158,norm,10,64,-13.58839306,i,654.470449314,1,1,56,135
set_size_experiment_1,1,f,27,2,56,prime,0,36,-177,35,-99,uni,15,78,-19.695204453,i,497.249559499,1,1,57,136
set_size_experiment_1,1,f,27,2,56,prime,1,36,-176,0,-99,uni,15,77,-18.695204453,j,539.070744999,1,1,57,137
set_size_experiment_1,1,f,27,2,56,prime,2,36,-182,12,-99,uni,15,83,-24.695204453,j,577.577698044,1,1,57,138
set_size_experiment_1,1,f,27,2,57,probe,0,36,-62,31,-157,norm,10,85,37.836201632,j,581.662701443,1,1,58,139
set_size_experiment_1,1,f,27,2,58,prime,0,8,-189,6,-127,uni,15,62,-32.274931624,i,946.732982062,0,1,59,140
set_size_experiment_1,1,f,27,2,58,prime,1,8,-195,0,-127,uni,15,68,-38.274931624,j,3047.41267487,0,0,59,141
set_size_experiment_1,1,f,27,2,58,prime,2,8,-231,5,-127,uni,15,-76,-74.274931624,i,1269.68938392,0,0,59,142
set_size_experiment_1,1,f,27,2,58,prime,3,8,-243,1,-127,uni,15,-64,-86.274931624,j,1196.17932756,1,0,59,143
set_size_experiment_1,1,f,27,2,59,probe,0,36,-45,2,-113,norm,10,-68,82.249164691,i,692.893940955,1,1,60,144
set_size_experiment_1,1,f,27,2,60,prime,0,24,98,15,175,norm,15,77.0000000002,30.985771468,j,674.973157234,1,1,61,145
set_size_experiment_1,1,f,27,2,60,prime,1,24,107,15,175,norm,15,68.0000000002,39.985771468,i,735.10166537,1,1,61,146
set_size_experiment_1,1,f,27,2,60,prime,2,24,99,4,175,norm,15,76.0000000002,31.985771468,i,574.740773067,1,1,61,147
set_size_experiment_1,1,f,27,2,60,prime,3,24,76,14,175,norm,15,-80.9999999998,8.98577146800002,j,548.71075321,1,1,61,148
set_size_experiment_1,1,f,27,2,61,probe,0,36,207,25,95,norm,10,67.9999999998,31.568104373,j,633.059663698,1,1,62,149
set_size_experiment_1,1,f,27,2,62,prime,0,36,-110,25,-9,norm,15,-79,-24.591765468,i,540.274976753,1,1,63,150
set_size_experiment_1,1,f,27,2,62,prime,1,36,-102,29,-9,norm,15,-87,-16.591765468,i,563.286917284,1,1,63,151
set_size_experiment_1,1,f,27,2,62,prime,2,36,-83,20,-9,norm,15,74,2.40823453199999,j,585.112318397,1,1,63,152
set_size_experiment_1,1,f,27,2,62,prime,3,36,-69,9,-9,norm,15,60,16.408234532,i,604.840410873,1,1,63,153
set_size_experiment_1,1,f,27,2,63,probe,0,36,-15,16,-110,norm,10,85,-6.74965602500001,j,591.254246421,1,1,64,154
set_size_experiment_1,1,f,27,2,63,probe,1,36,-15,20,-76,norm,10,-61,-6.74965602500001,j,595.366173424,1,1,64,155
set_size_experiment_1,1,f,27,2,64,prime,0,24,-112,16,-31,norm,15,81,-35.65331621,i,1067.49769021,1,1,65,156
set_size_experiment_1,1,f,27,2,64,prime,1,24,-126,7,-31,norm,15,-85,-49.65331621,j,589.380014688,1,1,65,157
set_size_experiment_1,1,f,27,2,64,prime,2,24,-125,8,-31,norm,15,-86,-48.65331621,i,953.35760247,1,1,65,158
set_size_experiment_1,1,f,27,2,65,probe,0,36,-105,2,-183,norm,10,-78,-74.446561389,i,480.592623353,1,1,66,159
set_size_experiment_1,1,f,27,2,65,probe,1,36,-105,15,-191,norm,10,-86,-74.446561389,i,459.921453148,1,1,66,160
set_size_experiment_1,1,f,27,2,66,prime,0,14,-5,1,97,uni,15,-78,6.11152722099999,i,660.876992159,1,1,67,161
set_size_experiment_1,1,f,27,2,66,prime,1,14,-6,2,97,uni,15,-77,5.11152722099999,i,552.56190896,1,1,67,162
set_size_experiment_1,1,f,27,2,66,prime,2,14,-14,9,97,uni,15,-69,-2.88847277900001,i,528.674199246,1,1,67,163
set_size_experiment_1,1,f,27,2,66,prime,3,14,34,12,97,uni,15,63,45.111527221,j,521.51265461,0,1,67,164
set_size_experiment_1,1,f,27,2,67,probe,0,36,57,28,-58,norm,10,65,-39.770942668,i,682.166624814,1,0,68,165
set_size_experiment_1,1,f,27,2,67,probe,1,36,57,28,-35,norm,10,88,-39.770942668,j,618.504651822,1,1,68,166
set_size_experiment_1,1,f,27,2,68,prime,0,24,16,4,122,uni,15,-74,51.066603112,j,1806.19941279,1,1,69,167
set_size_experiment_1,1,f,27,2,68,prime,1,24,57,10,122,uni,15,65,-87.933396888,i,1685.63931994,1,1,69,168
set_size_experiment_1,1,f,27,2,68,prime,2,24,26,23,122,uni,15,-84,61.066603112,i,840.423669666,1,1,69,169
set_size_experiment_1,1,f,27,2,68,prime,3,24,40,11,122,uni,15,82,75.066603112,i,970.021461137,1,1,69,170
set_size_experiment_1,1,f,27,2,69,probe,0,36,85,4,8,norm,10,-77,-36.602766692,i,510.694954544,1,1,70,171
set_size_experiment_1,1,f,27,2,69,probe,1,36,85,26,-27,norm,10,68,-36.602766692,i,613.780032843,1,1,70,172
set_size_experiment_1,1,f,27,2,70,prime,0,36,-58,6,51,uni,15,-71,-31.757485841,j,1021.32842317,1,1,71,173
set_size_experiment_1,1,f,27,2,70,prime,1,36,-37,4,51,uni,15,88,-10.757485841,j,763.728225604,1,1,71,174
set_size_experiment_1,1,f,27,2,70,prime,2,36,-36,19,51,uni,15,87,-9.757485841,j,1396.80986665,1,1,71,175
set_size_experiment_1,1,f,27,2,70,prime,3,36,-62,16,51,uni,15,-67,-35.757485841,i,507.324951701,1,1,71,176
set_size_experiment_1,1,f,27,2,71,probe,0,36,70,3,-44,norm,10,66,19.294770603,j,843.304440379,1,1,72,177
set_size_experiment_1,1,f,27,2,72,prime,0,14,22,6,133,norm,15,-69.0000000003,65.739652587,i,598.510406911,1,1,73,178
set_size_experiment_1,1,f,27,2,72,prime,1,14,43,4,133,norm,15,89.9999999997,86.739652587,j,588.096937165,1,1,73,179
set_size_experiment_1,1,f,27,2,72,prime,2,14,18,7,133,norm,15,-65.0000000003,61.739652587,j,1716.528574,1,1,73,180
set_size_experiment_1,1,f,27,2,72,prime,3,14,67,7,133,norm,15,65.9999999997,-69.260347413,i,870.242538862,1,1,73,181
set_size_experiment_1,1,f,27,2,73,probe,0,36,119,25,11,norm,10,72,-13.4937071407,j,745.982442982,1,1,74,182
set_size_experiment_1,1,f,27,2,73,probe,1,36,119,21,13,norm,10,74,-13.4937071407,j,506.576489657,1,1,74,183
set_size_experiment_1,1,f,27,2,74,prime,0,36,104,14,181,uni,15,77,-88.873077133,i,546.073442325,1,1,75,184
set_size_experiment_1,1,f,27,2,74,prime,1,36,120,26,181,uni,15,61,-72.873077133,i,537.832283415,1,1,75,185
set_size_experiment_1,1,f,27,2,74,prime,2,36,76,16,181,uni,15,-75,63.126922867,j,498.414944857,1,1,75,186
set_size_experiment_1,1,f,27,2,75,probe,0,36,181,5,76,norm,10,75.0000000004,0.0759166736000054,i,648.261213675,1,1,76,187
set_size_experiment_1,1,f,27,2,76,prime,0,8,60,7,154,norm,15,-86.0000000005,-16.318449801,i,1243.03128663,0,1,77,188
set_size_experiment_1,1,f,27,2,76,prime,1,8,81,1,154,norm,15,72.9999999995,4.68155019900001,i,610.125030391,1,0,77,189
set_size_experiment_1,1,f,27,2,76,prime,2,8,91,5,154,norm,15,62.9999999995,14.681550199,i,1051.03344657,1,1,77,190
set_size_experiment_1,1,f,27,2,76,prime,3,8,74,5,154,norm,15,79.9999999995,-2.31844980099999,j,651.981601492,1,1,77,191
set_size_experiment_1,1,f,27,2,77,probe,0,36,220,2,111,norm,10,71.00000000017,66.15361818833,j,541.55574739,1,1,78,192
set_size_experiment_1,1,f,27,2,77,probe,1,36,220,2,109,norm,10,69.00000000017,66.15361818833,i,533.280356787,1,1,78,193
set_size_experiment_1,1,f,27,2,78,prime,0,36,120,12,204,uni,15,83.9999999998,10.939920746,j,556.303066202,0,1,79,194
set_size_experiment_1,1,f,27,2,78,prime,1,36,98,20,204,uni,15,-74.0000000002,-11.060079254,j,652.366601862,1,0,79,195
set_size_experiment_1,1,f,27,2,78,prime,2,36,97,14,204,uni,15,-73.0000000002,-12.060079254,i,543.009594083,1,1,79,196
set_size_experiment_1,1,f,27,2,79,probe,0,36,158,23,63,norm,10,84.9999999996,-45.8944705404,j,486.902243458,1,1,80,197
set_size_experiment_1,1,f,27,2,79,probe,1,36,158,11,49,norm,10,70.9999999996,-45.8944705404,i,497.446097434,1,1,80,198
set_size_experiment_1,1,f,27,2,80,prime,0,24,-22,22,59,norm,15,81,-70.981739961,i,1272.34707866,1,1,81,199
set_size_experiment_1,1,f,27,2,80,prime,1,24,-12,1,59,norm,15,71,-60.981739961,j,1388.80486041,1,1,81,200
set_size_experiment_1,1,f,27,2,80,prime,2,24,-47,10,59,norm,15,-74,84.018260039,j,671.980078332,1,1,81,201
set_size_experiment_1,1,f,27,2,81,probe,0,36,-4,6,-113,norm,10,71,-62.891143467,i,559.440760873,1,1,82,202
set_size_experiment_1,1,f,27,2,82,prime,0,14,-201,4,-131,uni,15,70,-87.988429694,j,1954.08414118,0,1,83,203
set_size_experiment_1,1,f,27,2,82,prime,1,14,-235,13,-131,uni,15,-76,58.011570306,i,886.319858022,1,0,83,204
set_size_experiment_1,1,f,27,2,82,prime,2,14,-199,1,-131,uni,15,68,-85.988429694,i,1418.32565237,1,1,83,205
set_size_experiment_1,1,f,27,2,82,prime,3,14,-247,2,-131,uni,15,-64,46.011570306,i,699.438560754,1,1,83,206
set_size_experiment_1,1,f,27,2,83,probe,0,36,-70,12,-133,norm,10,-63,60.814688467,j,1054.86152694,1,1,84,207
set_size_experiment_1,1,f,27,2,83,probe,1,36,-70,9,-145,norm,10,-75,60.814688467,i,498.749945313,1,1,84,208
set_size_experiment_1,1,f,27,2,84,prime,0,8,-127,2,-54,norm,15,73,17.655080524,j,1025.12150444,1,1,85,209
set_size_experiment_1,1,f,27,2,84,prime,1,8,-114,2,-54,norm,15,60,30.655080524,j,534.616895951,1,1,85,210
set_size_experiment_1,1,f,27,2,84,prime,2,8,-143,6,-54,norm,15,89,1.65508052399997,j,1182.58470204,1,1,85,211
set_size_experiment_1,1,f,27,2,84,prime,3,8,-164,6,-54,norm,15,-70,-19.344919476,j,557.701529004,1,1,85,212
set_size_experiment_1,1,f,27,2,85,probe,0,36,-18,14,-116,norm,10,82,36.128740425,j,672.048924491,1,1,86,213
set_size_experiment_1,1,f,27,2,86,prime,0,24,-223,1,-108,uni,15,-65,72.835206315,i,1716.10434353,1,1,87,214
set_size_experiment_1,1,f,27,2,86,prime,1,24,-214,17,-108,uni,15,-74,81.835206315,j,603.49887237,1,1,87,215
set_size_experiment_1,1,f,27,2,86,prime,2,24,-190,9,-108,uni,15,82,-74.164793685,j,545.241903514,1,1,87,216
set_size_experiment_1,1,f,27,2,87,probe,0,36,-192,30,-296,norm,10,76,-83.495569242,i,457.906452008,1,1,88,217
set_size_experiment_1,1,f,27,2,88,prime,0,8,88,3,174,norm,15,86.0000000005,23.608898189,j,892.852940597,1,1,89,218
set_size_experiment_1,1,f,27,2,88,prime,1,8,95,3,174,norm,15,79.0000000005,30.608898189,j,1206.43164404,1,1,89,219
set_size_experiment_1,1,f,27,2,88,prime,2,8,84,4,174,norm,15,-89.9999999995,19.608898189,j,719.780884683,1,1,89,220
set_size_experiment_1,1,f,27,2,88,prime,3,8,95,2,174,norm,15,79.0000000005,30.608898189,i,654.050064273,1,1,89,221
set_size_experiment_1,1,f,27,2,89,probe,0,36,155,13,41,norm,10,65.9999999997,-18.8851242162,j,1744.85436548,1,1,90,222
set_size_experiment_1,1,f,27,2,89,probe,1,36,155,9,93,norm,10,-62.0000000003,-18.8851242162,i,552.177678794,1,1,90,223
set_size_experiment_1,1,f,27,2,90,prime,0,8,-78,7,29,norm,15,-73,8.56682208700002,i,1604.7042571,1,1,91,224
set_size_experiment_1,1,f,27,2,90,prime,1,8,-52,5,29,norm,15,81,34.566822087,j,1451.24683157,1,1,91,225
set_size_experiment_1,1,f,27,2,90,prime,2,8,-81,5,29,norm,15,-70,5.56682208700002,j,1416.56795889,1,1,91,226
set_size_experiment_1,1,f,27,2,90,prime,3,8,-55,5,29,norm,15,84,31.566822087,j,1431.90104701,1,1,91,227
set_size_experiment_1,1,f,27,2,91,probe,0,36,14,20,-49,norm,10,-63,-14.223798499,j,2395.63525002,1,1,92,228
set_size_experiment_1,1,f,27,2,92,prime,0,8,43,4,135,norm,15,-88.0000000004,-88.686316389,i,1365.21715019,1,1,93,229
set_size_experiment_1,1,f,27,2,92,prime,1,8,21,3,135,norm,15,-66.0000000004,69.313683611,j,1863.10945544,1,1,93,230
set_size_experiment_1,1,f,27,2,92,prime,2,8,70,6,135,norm,15,64.9999999996,-61.686316389,i,1756.01552706,1,1,93,231
set_size_experiment_1,1,f,27,2,92,prime,3,8,23,0,135,norm,15,-68.0000000004,71.313683611,i,2326.15596615,1,1,93,232
set_size_experiment_1,1,f,27,2,93,probe,0,36,140,8,37,norm,10,77.0000000005,5.83860363189999,i,767.504766583,1,1,94,233
set_size_experiment_1,1,f,27,2,94,prime,0,8,-66,5,19,norm,15,85,76.359922707,j,1838.43443729,1,1,95,234
set_size_experiment_1,1,f,27,2,94,prime,1,8,-41,7,19,norm,15,60,-78.640077293,i,1139.58197553,0,1,95,235
set_size_experiment_1,1,f,27,2,94,prime,2,8,-99,4,19,norm,15,-62,43.359922707,j,2088.65963016,1,0,95,236
set_size_experiment_1,1,f,27,2,95,probe,0,36,25,25,-51,norm,10,-76,6.09437715300001,i,544.906519353,1,1,96,237
set_size_experiment_1,1,f,27,2,95,probe,1,36,25,25,-62,norm,10,-87,6.09437715300001,j,521.036500111,1,1,96,238
set_size_experiment_1,1,f,27,2,96,prime,0,24,23,6,142,norm,15,-60.9999999997,84.979485642,i,545.075749978,1,1,97,239
set_size_experiment_1,1,f,27,2,96,prime,1,24,67,16,142,norm,15,75.0000000003,-51.020514358,i,1160.77699326,1,1,97,240
set_size_experiment_1,1,f,27,2,96,prime,2,24,56,11,142,norm,15,86.0000000003,-62.020514358,j,677.356236614,1,1,97,241
set_size_experiment_1,1,f,27,2,97,probe,0,36,191,10,98,norm,10,86.9999999997,48.792480914,i,517.981497571,1,1,98,242
set_size_experiment_1,1,f,27,2,98,prime,0,8,33,5,96,uni,15,63,-64.893455172,i,496.262635104,1,1,99,243
set_size_experiment_1,1,f,27,2,98,prime,1,8,6,1,96,uni,15,-90,88.106544828,j,741.844747216,1,1,99,244
set_size_experiment_1,1,f,27,2,98,prime,2,8,-20,3,96,uni,15,-64,62.106544828,i,503.496872261,1,1,99,245
set_size_experiment_1,1,f,27,2,99,probe,0,36,120,12,6,norm,10,66,24.1152308,i,480.626469478,1,1,100,246
set_size_experiment_1,1,f,27,2,99,probe,1,36,120,10,1,norm,10,61,24.1152308,j,523.428426124,1,1,100,247
set_size_experiment_1,1,f,27,2,100,prime,0,8,-197,2,-110,uni,15,87,-17.724976999,j,1125.74696541,1,1,101,248
set_size_experiment_1,1,f,27,2,100,prime,1,8,-229,5,-110,uni,15,-61,-49.724976999,i,831.55020047,1,1,101,249
set_size_experiment_1,1,f,27,2,100,prime,2,8,-175,5,-110,uni,15,65,4.27502300100002,i,2303.86364181,0,1,101,250
set_size_experiment_1,1,f,27,2,101,probe,0,36,-46,26,-113,norm,10,-67,63.442398274,i,478.358006105,1,0,102,251
set_size_experiment_1,1,f,27,2,101,probe,1,36,-46,4,-123,norm,10,-77,63.442398274,j,630.344277248,1,1,102,252
set_size_experiment_1,1,f,27,2,102,prime,0,36,-241,6,-127,uni,15,-66,62.520663722,j,1083.71193334,1,1,103,253
set_size_experiment_1,1,f,27,2,102,prime,1,36,-212,5,-127,uni,15,85,-88.479336278,j,509.834953584,1,1,103,254
set_size_experiment_1,1,f,27,2,102,prime,2,36,-236,34,-127,uni,15,-71,67.520663722,j,675.283541903,1,1,103,255
set_size_experiment_1,1,f,27,2,102,prime,3,36,-228,7,-127,uni,15,-79,75.520663722,j,1032.914971,1,1,103,256
set_size_experiment_1,1,f,27,2,103,probe,0,36,-119,11,-184,norm,10,-65,8.16847040499999,j,665.004688315,1,1,104,257
set_size_experiment_1,1,f,27,2,104,prime,0,36,51,6,151,norm,15,-79.9999999999,54.954624469,j,773.012079298,1,1,105,258
set_size_experiment_1,1,f,27,2,104,prime,1,36,63,7,151,norm,15,88.0000000001,66.954624469,j,593.818094581,1,1,105,259
set_size_experiment_1,1,f,27,2,104,prime,2,36,54,18,151,norm,15,-82.9999999999,57.954624469,i,707.15472009,1,1,105,260
set_size_experiment_1,1,f,27,2,104,prime,3,36,53,0,151,norm,15,-81.9999999999,56.954624469,i,563.402687199,1,1,105,261
set_size_experiment_1,1,f,27,2,105,probe,0,36,149,30,38,norm,10,68.9999999997,-1.86811107579999,i,927.384121343,1,1,106,262
set_size_experiment_1,1,f,27,2,106,prime,0,36,-42,20,58,norm,15,-80,-80.056909583,j,519.146499224,1,1,107,263
set_size_experiment_1,1,f,27,2,106,prime,1,36,-27,8,58,norm,15,85,-65.056909583,i,636.716204695,1,1,107,264
set_size_experiment_1,1,f,27,2,106,prime,2,36,-3,17,58,norm,15,61,-41.056909583,j,512.862648815,1,1,107,265
set_size_experiment_1,1,f,27,2,107,probe,0,36,58,27,-59,norm,10,63,-0.409426630000013,i,880.095623434,1,1,108,266
set_size_experiment_1,1,f,27,2,108,prime,0,8,-41,5,28,uni,15,69,18.159676273,j,1101.15117766,0,1,109,267
set_size_experiment_1,1,f,27,2,108,prime,1,8,-89,3,28,uni,15,-63,-29.840323727,j,1116.36695825,0,0,109,268
set_size_experiment_1,1,f,27,2,108,prime,2,8,-34,2,28,uni,15,62,25.159676273,i,1022.32265472,0,0,109,269
set_size_experiment_1,1,f,27,2,109,probe,0,36,61,28,-29,norm,10,-90,32.416596369,i,525.900734589,1,0,110,270
set_size_experiment_1,1,f,27,2,110,prime,0,8,-103,1,5,norm,15,-72,-73.165718958,j,629.055044614,1,1,111,271
set_size_experiment_1,1,f,27,2,110,prime,1,8,-76,5,5,norm,15,81,-46.165718958,j,975.260311738,1,1,111,272
set_size_experiment_1,1,f,27,2,110,prime,2,8,-65,7,5,norm,15,70,-35.165718958,i,581.505008042,1,1,111,273
set_size_experiment_1,1,f,27,2,111,probe,0,36,-16,14,-120,norm,10,76,-20.9874299,i,616.870035417,1,1,112,274
set_size_experiment_1,1,f,27,2,112,prime,0,24,-202,1,-105,norm,15,-83,-82.570034985,j,557.540374808,1,1,113,275
set_size_experiment_1,1,f,27,2,112,prime,1,24,-169,21,-105,norm,15,64,-49.570034985,j,563.763456419,1,1,113,276
set_size_experiment_1,1,f,27,2,112,prime,2,24,-214,9,-105,norm,15,-71,85.429965015,j,539.913438261,1,1,113,277
set_size_experiment_1,1,f,27,2,112,prime,3,24,-207,0,-105,norm,15,-78,-87.570034985,j,563.906917349,1,1,113,278
set_size_experiment_1,1,f,27,2,113,probe,0,36,-182,32,-242,norm,10,-60,-76.480925067,j,584.770010784,1,1,114,279
set_size_experiment_1,1,f,27,2,114,prime,0,8,-1,5,114,norm,15,-65,60.708889477,i,558.703067712,1,1,115,280
set_size_experiment_1,1,f,27,2,114,prime,1,8,38,0,114,norm,15,76,-80.291110523,i,753.240524791,1,1,115,281
set_size_experiment_1,1,f,27,2,114,prime,2,8,48,4,114,norm,15,66,-70.291110523,i,1293.78440324,1,1,115,282
set_size_experiment_1,1,f,27,2,115,probe,0,36,113,9,-6,norm,10,61,-0.779979936000004,i,628.023889847,1,1,116,283
set_size_experiment_1,1,f,27,2,115,probe,1,36,113,25,36,norm,10,-77,-0.779979936000004,j,630.014276132,1,1,116,284
set_size_experiment_1,1,f,27,2,116,prime,0,24,-106,13,-25,uni,15,81,37.454359442,i,647.665059194,1,1,117,285
set_size_experiment_1,1,f,27,2,116,prime,1,24,-112,0,-25,uni,15,87,31.454359442,i,712.085878477,1,1,117,286
set_size_experiment_1,1,f,27,2,116,prime,2,24,-134,11,-25,uni,15,-71,9.454359442,i,1129.93081473,0,1,117,287
set_size_experiment_1,1,f,27,2,116,prime,3,24,-94,12,-25,uni,15,69,49.454359442,j,660.45353096,1,0,117,288
set_size_experiment_1,1,f,27,2,117,probe,0,36,-2,1,-99,norm,10,83,23.249942439,j,581.245008856,1,1,118,289
set_size_experiment_1,1,f,27,2,118,prime,0,36,95,24,213,norm,15,-62.0000000002,14.023798532,i,787.107474171,1,1,119,290
set_size_experiment_1,1,f,27,2,118,prime,1,36,107,0,213,norm,15,-74.0000000002,26.023798532,i,466.401458718,1,1,119,291
set_size_experiment_1,1,f,27,2,118,prime,2,36,144,31,213,norm,15,69,63.0237985318,i,884.722934105,1,1,119,292
set_size_experiment_1,1,f,27,2,119,probe,0,36,200,29,126,norm,10,-74,-13.4984711997,i,650.175445713,1,1,120,293
set_size_experiment_1,1,f,27,2,119,probe,1,36,200,0,113,norm,10,-87.0000000001,-13.4984711997,i,541.906132363,1,1,120,294
set_size_experiment_1,1,f,27,2,120,prime,0,8,-55,7,33,uni,15,88,12.193517128,i,893.517941236,1,1,121,295
set_size_experiment_1,1,f,27,2,120,prime,1,8,-79,6,33,uni,15,-68,-11.806482872,j,598.672330379,1,1,121,296
set_size_experiment_1,1,f,27,2,120,prime,2,8,-51,2,33,uni,15,84,16.193517128,j,557.07229767,1,1,121,297
set_size_experiment_1,1,f,27,2,121,probe,0,36,69,20,-34,norm,10,77,36.036423142,j,531.088431366,1,1,122,298
set_size_experiment_1,1,f,27,2,121,probe,1,36,69,31,-9,norm,10,-78,36.036423142,i,600.855792873,1,1,122,299
set_size_experiment_1,1,f,27,2,122,prime,0,14,-247,9,-130,norm,15,-63,-58.221797928,j,996.043404564,1,1,123,300
set_size_experiment_1,1,f,27,2,122,prime,1,14,-219,4,-130,norm,15,89,-30.221797928,j,601.166946813,1,1,123,301
set_size_experiment_1,1,f,27,2,122,prime,2,14,-225,1,-130,norm,15,-85,-36.221797928,i,605.395411141,1,1,123,302
set_size_experiment_1,1,f,27,2,123,probe,0,36,-89,24,-188,norm,10,81,41.22724002,i,544.956519268,1,1,124,303
set_size_experiment_1,1,f,27,2,123,probe,1,36,-89,19,-171,norm,10,-82,41.22724002,i,443.091055378,1,1,124,304
set_size_experiment_1,1,f,27,2,124,prime,0,8,-180,0,-111,norm,15,69,-8.873204531,j,847.861751914,1,1,125,305
set_size_experiment_1,1,f,27,2,124,prime,1,8,-188,7,-111,norm,15,77,-16.873204531,j,556.273066439,1,1,125,306
set_size_experiment_1,1,f,27,2,124,prime,2,8,-223,4,-111,norm,15,-68,-51.873204531,i,1140.77582303,1,1,125,307
set_size_experiment_1,1,f,27,2,124,prime,3,8,-220,6,-111,norm,15,-71,-48.873204531,j,1188.78624495,1,1,125,308
set_size_experiment_1,1,f,27,2,125,probe,0,36,-140,5,-216,norm,10,-76,-28.405906428,j,1013.07764836,1,1,126,309
set_size_experiment_1,1,f,27,2,125,probe,1,36,-140,30,-230,norm,10,-90,-28.405906428,i,584.895011038,1,1,126,310
set_size_experiment_1,1,f,27,2,126,prime,0,14,5,10,99,norm,15,-86,54.762681113,j,792.94170998,1,1,127,311
set_size_experiment_1,1,f,27,2,126,prime,1,14,11,5,99,norm,15,88,60.762681113,i,582.550394349,1,1,127,312
set_size_experiment_1,1,f,27,2,126,prime,2,14,-14,12,99,norm,15,-67,35.762681113,j,526.373043656,1,1,127,313
set_size_experiment_1,1,f,27,2,126,prime,3,14,17,10,99,norm,15,82,66.762681113,i,660.705070011,1,1,127,314
set_size_experiment_1,1,f,27,2,127,probe,0,36,68,35,-25,norm,10,87,-31.70093238,j,550.229599699,1,1,128,315
set_size_experiment_1,1,f,27,2,128,prime,0,24,-85,1,11,uni,15,-84,-59.801318853,i,760.375530459,1,1,129,316
set_size_experiment_1,1,f,27,2,128,prime,1,24,-71,15,11,uni,15,82,-45.801318853,i,473.037232645,1,1,129,317
set_size_experiment_1,1,f,27,2,128,prime,2,24,-71,19,11,uni,15,82,-45.801318853,j,532.524202019,1,1,129,318
set_size_experiment_1,1,f,27,2,129,probe,0,36,-41,30,-156,norm,10,65,-51.984972146,i,616.821189411,1,1,130,319
set_size_experiment_1,1,f,27,2,130,prime,0,24,75,6,181,norm,15,-74.0000000002,51.347313366,i,479.469930753,1,1,131,320
set_size_experiment_1,1,f,27,2,130,prime,1,24,102,1,181,norm,15,78.9999999998,78.347313366,i,491.069554351,1,1,131,321
set_size_experiment_1,1,f,27,2,130,prime,2,24,69,15,181,norm,15,-68.0000000002,45.347313366,i,830.236738548,1,1,131,322
set_size_experiment_1,1,f,27,2,130,prime,3,24,102,19,181,norm,15,78.9999999998,78.347313366,j,631.168123335,1,1,131,323
set_size_experiment_1,1,f,27,2,131,probe,0,36,162,6,102,norm,10,-60.0000000002,-19.2465539006,j,538.530744612,1,1,132,324
set_size_experiment_1,1,f,27,2,132,prime,0,24,-188,2,-116,uni,15,72,70.440977909,j,499.021483585,1,1,133,325
set_size_experiment_1,1,f,27,2,132,prime,1,24,-178,17,-116,uni,15,62,80.440977909,j,682.23777879,1,1,133,326
set_size_experiment_1,1,f,27,2,132,prime,2,24,-213,5,-116,uni,15,-83,45.440977909,i,618.6373448,1,1,133,327
set_size_experiment_1,1,f,27,2,133,probe,0,36,-107,7,-207,norm,10,80,8.52577222500003,j,587.250397541,1,1,134,328
set_size_experiment_1,1,f,27,2,134,prime,0,14,-224,1,-115,uni,15,-71,-16.753923384,i,779.718237929,0,1,135,329
set_size_experiment_1,1,f,27,2,134,prime,1,14,-204,8,-115,uni,15,89,3.24607661599998,i,707.011643797,1,0,135,330
set_size_experiment_1,1,f,27,2,134,prime,2,14,-213,0,-115,uni,15,-82,-5.75392338400002,i,611.139262095,1,1,135,331
set_size_experiment_1,1,f,27,2,134,prime,3,14,-217,1,-115,uni,15,-78,-9.75392338400002,i,552.916910499,0,1,135,332
set_size_experiment_1,1,f,27,2,135,probe,0,36,-148,29,-263,norm,10,65,-33.012400911,j,476.398389786,1,0,136,333
set_size_experiment_1,1,f,27,2,135,probe,1,36,-148,6,-221,norm,10,-73,-33.012400911,i,550.471908413,1,1,136,334
set_size_experiment_1,1,f,27,2,136,prime,0,14,42,9,159,uni,15,-63,82.582106466,j,574.418080039,0,1,137,335
set_size_experiment_1,1,f,27,2,136,prime,1,14,52,13,159,uni,15,-73,-87.417893534,j,530.11073824,1,0,137,336
set_size_experiment_1,1,f,27,2,136,prime,2,14,62,5,159,uni,15,-83,-77.417893534,i,726.779351011,1,1,137,337
set_size_experiment_1,1,f,27,2,137,probe,0,36,194,5,108,norm,10,-85.9999999998,35.5917406458,j,549.716522917,1,1,138,338
set_size_experiment_1,1,f,27,2,138,prime,0,24,61,23,159,uni,15,-82.0000000001,-47.275514073,j,1352.62560192,1,1,139,339
set_size_experiment_1,1,f,27,2,138,prime,1,24,97,5,159,uni,15,61.9999999999,-11.275514073,j,714.85857293,1,1,139,340
set_size_experiment_1,1,f,27,2,138,prime,2,24,78,4,159,uni,15,80.9999999999,-30.275514073,i,478.607237339,1,1,139,341
set_size_experiment_1,1,f,27,2,139,probe,0,36,199,32,83,norm,10,64.0000000004,39.9573802587,i,628.48850619,1,1,140,342
set_size_experiment_1,1,f,27,2,140,prime,0,14,-138,6,-36,norm,15,-78,-40.899876192,j,974.731080234,1,1,141,343
set_size_experiment_1,1,f,27,2,140,prime,1,14,-135,8,-36,norm,15,-81,-37.899876192,j,595.527326688,1,1,141,344
set_size_experiment_1,1,f,27,2,140,prime,2,14,-126,11,-36,norm,15,-90,-28.899876192,i,1021.93842456,1,1,141,345
set_size_experiment_1,1,f,27,2,141,probe,0,36,-93,11,-182,norm,10,-89,-57.073211226,j,513.656495139,1,1,142,346
set_size_experiment_1,1,f,27,2,142,prime,0,36,64,1,140,norm,15,75.9999999996,66.115934766,i,568.86269059,1,1,143,347
set_size_experiment_1,1,f,27,2,142,prime,1,36,25,6,140,norm,15,-65.0000000004,27.115934766,j,775.772081688,1,1,143,348
set_size_experiment_1,1,f,27,2,142,prime,2,36,25,22,140,norm,15,-65.0000000004,27.115934766,i,486.322243698,1,1,143,349
set_size_experiment_1,1,f,27,2,143,probe,0,36,170,34,55,norm,10,65.0000000001,29.5536165893,j,589.371937327,1,1,144,350
set_size_experiment_1,1,f,27,2,143,probe,1,36,170,17,58,norm,10,68.0000000001,29.5536165893,j,499.921868555,1,1,144,351
set_size_experiment_1,1,f,27,2,144,prime,0,24,-43,0,29,norm,15,72,79.189127795,i,494.887249544,1,1,145,352
set_size_experiment_1,1,f,27,2,144,prime,1,24,-65,13,29,norm,15,-86,57.189127795,i,693.643555976,1,1,145,353
set_size_experiment_1,1,f,27,2,144,prime,2,24,-72,12,29,norm,15,-79,50.189127795,i,505.258026533,1,1,145,354
set_size_experiment_1,1,f,27,2,145,probe,0,36,49,4,-55,norm,10,76,20.693447969,j,591.656170785,1,1,146,355
set_size_experiment_1,1,f,27,2,146,prime,0,24,-69,17,9,uni,15,78,-14.1229645940001,j,751.782831736,1,1,147,356
set_size_experiment_1,1,f,27,2,146,prime,1,24,-96,11,9,uni,15,-75,-41.1229645940001,i,511.251108721,1,1,147,357
set_size_experiment_1,1,f,27,2,146,prime,2,24,-81,16,9,uni,15,-90,-26.1229645940001,i,552.966524847,1,1,147,358
set_size_experiment_1,1,f,27,2,147,probe,0,36,79,4,-33,norm,10,68,70.019171229,j,527.002274059,1,1,148,359
set_size_experiment_1,1,f,27,2,148,prime,0,36,-155,24,-87,uni,15,68,57.28939417,j,611.279646866,1,1,149,360
set_size_experiment_1,1,f,27,2,148,prime,1,36,-160,24,-87,uni,15,73,52.28939417,j,536.323820241,1,1,149,361
set_size_experiment_1,1,f,27,2,148,prime,2,36,-184,21,-87,uni,15,-83,28.28939417,j,699.61586874,1,1,149,362
set_size_experiment_1,1,f,27,2,149,probe,0,36,-103,22,-191,norm,10,-88,-15.39711701,i,587.122320198,0,1,150,363
set_size_experiment_1,1,f,27,2,149,probe,1,36,-103,9,-199,norm,10,84,-15.39711701,i,510.593030602,1,0,150,364
set_size_experiment_1,1,f,27,2,150,prime,0,24,-88,2,-13,norm,15,75,-69.662542468,j,894.454864785,1,1,151,365
set_size_experiment_1,1,f,27,2,150,prime,1,24,-91,4,-13,norm,15,78,-72.662542468,i,506.016873755,1,1,151,366
set_size_experiment_1,1,f,27,2,150,prime,2,24,-116,21,-13,norm,15,-77,82.337457532,i,531.123046763,1,1,151,367
set_size_experiment_1,1,f,27,2,151,probe,0,36,17,14,-45,norm,10,-62,30.721162594,j,522.828040645,1,1,152,368
set_size_experiment_1,1,f,27,2,151,probe,1,36,17,3,-96,norm,10,67,30.721162594,i,531.235354021,1,1,152,369
set_size_experiment_1,1,f,27,2,152,prime,0,24,63,11,153,uni,15,-89.9999999997,-21.229277629,i,1162.57391684,1,1,153,370
set_size_experiment_1,1,f,27,2,152,prime,1,24,54,2,153,uni,15,-80.9999999997,-30.229277629,i,974.44646433,1,1,153,371
set_size_experiment_1,1,f,27,2,152,prime,2,24,72,9,153,uni,15,81.0000000003,-12.229277629,i,1313.9294181,1,1,153,372
set_size_experiment_1,1,f,27,2,153,probe,0,36,141,13,44,norm,10,82.9999999996,-12.4452204349,i,506.687259302,1,1,154,373
set_size_experiment_1,1,f,27,2,153,probe,1,36,141,24,59,norm,10,-82.0000000004,-12.4452204349,j,1124.56465699,1,1,154,374
set_size_experiment_1,1,f,27,2,154,prime,0,24,17,8,106,uni,15,89,-41.758918889,j,625.530427322,1,1,155,375
set_size_experiment_1,1,f,27,2,154,prime,1,24,-6,17,106,uni,15,-68,-64.758918889,j,643.118132837,1,1,155,376
set_size_experiment_1,1,f,27,2,154,prime,2,24,29,4,106,uni,15,77,-29.758918889,i,645.081595518,0,1,155,377
set_size_experiment_1,1,f,27,2,154,prime,3,24,11,6,106,uni,15,-85,-47.758918889,i,1844.60290335,1,0,155,378
set_size_experiment_1,1,f,27,2,155,probe,0,36,95,34,6,norm,10,-89,-10.683801446,i,644.435057417,1,1,156,379
set_size_experiment_1,1,f,27,2,156,prime,0,8,-124,5,-8,uni,15,-64,49.746254229,j,1114.41041809,1,1,157,380
set_size_experiment_1,1,f,27,2,156,prime,1,8,-75,6,-8,uni,15,67,-81.253745771,i,2942.96451751,0,1,157,381
set_size_experiment_1,1,f,27,2,156,prime,2,8,-68,1,-8,uni,15,60,-74.253745771,i,625.621195883,1,0,157,382
set_size_experiment_1,1,f,27,2,157,probe,0,36,-17,8,-132,norm,10,65,-9.15512402900001,i,751.346678473,1,1,158,383
set_size_experiment_1,1,f,27,2,157,probe,1,36,-17,5,-80,norm,10,-63,-9.15512402900001,j,619.987346232,1,1,158,384
set_size_experiment_1,1,f,27,2,158,prime,0,24,-206,7,-123,uni,15,83,53.885517891,i,1183.58277902,0,1,159,385
set_size_experiment_1,1,f,27,2,158,prime,1,24,-192,4,-123,uni,15,69,67.885517891,j,550.898062065,0,0,159,386
set_size_experiment_1,1,f,27,2,158,prime,2,24,-204,11,-123,uni,15,81,55.885517891,i,1183.5670108,1,0,159,387
set_size_experiment_1,1,f,27,2,159,probe,0,36,-122,8,-185,norm,10,-63,1.08728304200002,i,524.243810214,1,1,160,388
set_size_experiment_1,1,f,27,2,159,probe,1,36,-122,11,-232,norm,10,70,1.08728304200002,j,595.080019906,1,1,160,389
set_size_experiment_1,1,f,27,2,160,prime,0,8,-166,7,-50,norm,15,-64,65.863952681,j,569.024229422,1,1,161,390
set_size_experiment_1,1,f,27,2,160,prime,1,8,-123,6,-50,norm,15,73,-71.136047319,i,559.722684324,1,1,161,391
set_size_experiment_1,1,f,27,2,160,prime,2,8,-149,3,-50,norm,15,-81,82.863952681,i,1425.05181115,0,1,161,392
set_size_experiment_1,1,f,27,2,161,probe,0,36,17,11,-99,norm,10,64,67.720635728,j,871.88907899,1,0,162,393
set_size_experiment_1,1,f,27,2,162,prime,0,14,-109,0,-6,uni,15,-77,-10.725905467,i,904.640257359,1,1,163,394
set_size_experiment_1,1,f,27,2,162,prime,1,14,-122,13,-6,uni,15,-64,-23.725905467,j,671.166616492,1,1,163,395
set_size_experiment_1,1,f,27,2,162,prime,2,14,-82,3,-6,uni,15,76,16.274094533,j,1075.55192709,1,1,163,396
set_size_experiment_1,1,f,27,2,163,probe,0,36,-86,15,-164,norm,10,-78,-79.336432714,j,532.88689442,1,1,164,397
set_size_experiment_1,1,f,27,2,163,probe,1,36,-86,28,-156,norm,10,-70,-79.336432714,i,619.278499857,1,1,164,398
set_size_experiment_1,1,f,27,2,164,prime,0,36,121,1,195,uni,15,73.9999999999,-83.142367958,j,557.85960611,1,1,165,399
set_size_experiment_1,1,f,27,2,164,prime,1,36,125,29,195,uni,15,70,-79.1423679581,j,564.120763913,1,1,165,400
set_size_experiment_1,1,f,27,2,164,prime,2,36,108,32,195,uni,15,86.9999999999,83.857632042,i,554.765757173,1,1,165,401
set_size_experiment_1,1,f,27,2,164,prime,3,36,110,19,195,uni,15,84.9999999999,85.857632042,i,514.223803766,1,1,165,402
set_size_experiment_1,1,f,27,2,165,probe,0,36,251,24,173,norm,10,-78,55.699846,i,553.841910325,1,1,166,403
set_size_experiment_1,1,f,27,2,166,prime,0,36,-149,33,-80,norm,15,69,38.3337943701,i,605.821565725,1,1,167,404
set_size_experiment_1,1,f,27,2,166,prime,1,36,-185,22,-80,norm,15,-75,2.33379437010001,i,530.894585885,1,1,167,405
set_size_experiment_1,1,f,27,2,166,prime,2,36,-162,6,-80,norm,15,82,25.3337943701,i,491.404939443,1,1,167,406
set_size_experiment_1,1,f,27,2,167,probe,0,36,-123,21,-238,norm,10,65,-43.241360484,j,578.916545957,1,1,168,407
set_size_experiment_1,1,f,27,2,168,prime,0,24,-70,17,21,norm,15,-89,-12.380155713,j,1504.4934107,1,1,169,408
set_size_experiment_1,1,f,27,2,168,prime,1,24,-89,9,21,norm,15,-70,-31.380155713,j,529.53881491,1,1,169,409
set_size_experiment_1,1,f,27,2,168,prime,2,24,-83,16,21,norm,15,-76,-25.380155713,j,648.211214691,1,1,169,410
set_size_experiment_1,1,f,27,2,168,prime,3,24,-47,8,21,norm,15,68,10.619844287,i,540.999208577,1,1,169,411
set_size_experiment_1,1,f,27,2,169,probe,0,36,-42,16,-113,norm,10,-71,-62.185729739,i,625.266196206,1,1,170,412
set_size_experiment_1,1,f,27,2,170,prime,0,14,-136,10,-31,norm,15,-75,-23.608941523,i,2547.15536721,1,1,171,413
set_size_experiment_1,1,f,27,2,170,prime,1,14,-111,10,-31,norm,15,80,1.391058477,i,789.50978443,1,1,171,414
set_size_experiment_1,1,f,27,2,170,prime,2,14,-146,0,-31,norm,15,-65,-33.608941523,j,1546.41844332,1,1,171,415
set_size_experiment_1,1,f,27,2,171,probe,0,36,0,17,-69,norm,10,-69,30.986495472,i,537.019589916,1,1,172,416
set_size_experiment_1,1,f,27,2,171,probe,1,36,0,29,-91,norm,10,89,30.986495472,i,575.516158715,1,1,172,417
set_size_experiment_1,1,f,27,2,172,prime,0,14,-135,6,-48,uni,15,87,-44.068576615,j,893.790634349,1,1,173,418
set_size_experiment_1,1,f,27,2,172,prime,1,14,-126,1,-48,uni,15,78,-35.068576615,i,755.02552744,1,1,173,419
set_size_experiment_1,1,f,27,2,172,prime,2,14,-156,6,-48,uni,15,-72,-65.068576615,i,1373.5629255,1,1,173,420
set_size_experiment_1,1,f,27,2,172,prime,3,14,-118,3,-48,uni,15,70,-27.068576615,i,579.773468897,1,1,173,421
set_size_experiment_1,1,f,27,2,173,probe,0,36,30,35,-46,norm,10,-76,78.569026467,j,630.719278008,1,1,174,422
set_size_experiment_1,1,f,27,2,174,prime,0,8,-3,2,58,norm,15,61,42.275448843,j,2646.19967435,1,1,175,423
set_size_experiment_1,1,f,27,2,174,prime,1,8,-19,3,58,norm,15,77,26.275448843,i,1412.58449387,1,1,175,424
set_size_experiment_1,1,f,27,2,174,prime,2,8,-22,2,58,norm,15,80,23.275448843,i,1225.12281127,1,1,175,425
set_size_experiment_1,1,f,27,2,175,probe,0,36,19,18,-82,norm,10,79,-38.425241196,j,579.237699509,1,1,176,426
set_size_experiment_1,1,f,27,2,176,prime,0,24,-30,14,89,uni,15,-61,51.597788731,i,537.606128491,1,1,177,427
set_size_experiment_1,1,f,27,2,176,prime,1,24,7,10,89,uni,15,82,88.597788731,j,529.363045469,1,1,177,428
set_size_experiment_1,1,f,27,2,176,prime,2,24,16,11,89,uni,15,73,-82.402211269,i,1053.69037203,1,1,177,429
set_size_experiment_1,1,f,27,2,176,prime,3,24,8,11,89,uni,15,81,89.597788731,i,606.738105416,1,1,177,430
set_size_experiment_1,1,f,27,2,177,probe,0,36,101,16,-18,norm,10,61,12.295114568,i,499.524176121,1,1,178,431
set_size_experiment_1,1,f,27,2,177,probe,1,36,101,27,19,norm,10,-82,12.295114568,i,525.61265789,1,1,178,432
set_size_experiment_1,1,f,27,2,178,prime,0,24,-57,11,17,norm,15,74,-75.498382225,i,471.66030854,1,1,179,433
set_size_experiment_1,1,f,27,2,178,prime,1,24,-75,15,17,norm,15,-88,86.501617775,i,561.264608055,1,1,179,434
set_size_experiment_1,1,f,27,2,178,prime,2,24,-55,5,17,norm,15,72,-73.498382225,j,910.722954199,1,1,179,435
set_size_experiment_1,1,f,27,2,178,prime,3,24,-93,1,17,norm,15,-70,68.501617775,j,505.682642572,1,1,179,436
set_size_experiment_1,1,f,27,2,179,probe,0,36,-29,17,-118,norm,10,-89,-46.607937559,i,545.2272892,1,1,180,437
set_size_experiment_1,1,f,27,2,180,prime,0,14,-225,4,-125,uni,15,-80,72.803757582,i,2815.63865021,1,1,181,438
set_size_experiment_1,1,f,27,2,180,prime,1,14,-224,1,-125,uni,15,-81,73.803757582,j,1524.59188737,1,1,181,439
set_size_experiment_1,1,f,27,2,180,prime,2,14,-227,6,-125,uni,15,-78,70.803757582,j,1016.60572737,1,1,181,440
set_size_experiment_1,1,f,27,2,181,probe,0,36,-47,15,-160,norm,10,67,77.835732462,j,1180.14546949,1,1,182,441
set_size_experiment_1,1,f,27,2,181,probe,1,36,-47,26,-113,norm,10,-66,77.835732462,i,631.076585501,1,1,182,442
set_size_experiment_1,1,f,27,2,182,prime,0,24,108,9,200,uni,15,-88,41.646156674,j,726.677428,1,1,183,443
set_size_experiment_1,1,f,27,2,182,prime,1,24,99,10,200,uni,15,-79,32.646156674,i,519.466498867,1,1,183,444
set_size_experiment_1,1,f,27,2,182,prime,2,24,103,0,200,uni,15,-83,36.646156674,i,557.980759069,1,1,183,445
set_size_experiment_1,1,f,27,2,183,probe,0,36,262,30,182,norm,10,-80,61.4002708559,j,532.015355304,1,1,184,446
set_size_experiment_1,1,f,27,2,183,probe,1,36,262,30,166,norm,10,84,61.4002708559,j,556.003835052,1,1,184,447
set_size_experiment_1,1,f,27,2,184,prime,0,36,38,5,99,norm,15,61,52.8264016491,j,685.996242799,1,1,185,448
set_size_experiment_1,1,f,27,2,184,prime,1,36,11,20,99,norm,15,88,25.8264016491,i,636.934666894,1,1,185,449
set_size_experiment_1,1,f,27,2,184,prime,2,36,-7,35,99,norm,15,-74,7.82640164910001,i,450.650677085,1,1,185,450
set_size_experiment_1,1,f,27,2,184,prime,3,36,27,6,99,norm,15,72,41.8264016491,i,480.002238415,1,1,185,451
set_size_experiment_1,1,f,27,2,185,probe,0,36,60,33,-27,norm,10,-87,-39.478683435,i,786.919012666,1,1,186,452
set_size_experiment_1,1,f,27,2,186,prime,0,14,89,11,196,uni,15,-72.9999999998,-63.492879881,i,1855.74560426,1,1,187,453
set_size_experiment_1,1,f,27,2,186,prime,1,14,82,13,196,uni,15,-65.9999999998,-70.492879881,i,719.083190896,1,1,187,454
set_size_experiment_1,1,f,27,2,186,prime,2,14,92,1,196,uni,15,-75.9999999998,-60.492879881,j,683.497009799,1,1,187,455
set_size_experiment_1,1,f,27,2,187,probe,0,36,166,35,103,norm,10,-63.0000000004,-30.8260327648,i,540.784977376,1,1,188,456
set_size_experiment_1,1,f,27,2,188,prime,0,14,-92,1,22,norm,15,-66,-14.326861182,j,1188.78739886,1,1,189,457
set_size_experiment_1,1,f,27,2,188,prime,1,14,-84,2,22,norm,15,-74,-6.326861182,j,625.210427679,1,1,189,458
set_size_experiment_1,1,f,27,2,188,prime,2,14,-57,1,22,norm,15,79,20.673138818,j,1065.04845712,1,1,189,459
set_size_experiment_1,1,f,27,2,189,probe,0,36,31,29,-87,norm,10,62,8.77991815499999,i,476.63954366,1,1,190,460
set_size_experiment_1,1,f,27,2,189,probe,1,36,31,35,-64,norm,10,85,8.77991815499999,i,472.70030994,1,1,190,461
set_size_experiment_1,1,f,27,2,190,prime,0,14,-199,11,-113,norm,15,86,44.660935272,i,563.30768764,1,1,191,462
set_size_experiment_1,1,f,27,2,190,prime,1,14,-199,8,-113,norm,15,86,44.660935272,j,555.111141875,1,1,191,463
set_size_experiment_1,1,f,27,2,190,prime,2,14,-193,3,-113,norm,15,80,50.660935272,i,765.211303718,0,1,191,464
set_size_experiment_1,1,f,27,2,190,prime,3,14,-206,2,-113,norm,15,-87,37.660935272,j,646.751597524,1,0,191,465
set_size_experiment_1,1,f,27,2,191,probe,0,36,-79,27,-139,norm,10,-60,34.742578664,j,490.631861612,1,1,192,466
set_size_experiment_1,1,f,27,2,191,probe,1,36,-79,22,-170,norm,10,89,34.742578664,j,454.362603836,1,1,192,467
set_size_experiment_1,1,f,27,2,192,prime,0,24,105,10,221,uni,15,-64.00000000016,-85.772811722,i,1980.25300819,1,1,193,468
set_size_experiment_1,1,f,27,2,192,prime,1,24,103,15,221,uni,15,-62.00000000016,-87.772811722,j,616.628113203,1,1,193,469
set_size_experiment_1,1,f,27,2,192,prime,2,24,132,8,221,uni,15,89.00000000004,-58.7728117222,i,557.332682423,1,1,193,470
set_size_experiment_1,1,f,27,2,193,probe,0,36,205,18,98,norm,10,73.0000000004,-15.44732685524,i,500.13263803,1,1,194,471
set_size_experiment_1,1,f,27,2,193,probe,1,36,205,32,93,norm,10,68.0000000004,-15.44732685524,j,666.677381843,1,1,194,472
set_size_experiment_1,1,f,27,2,194,prime,0,14,1,7,64,uni,15,63,88.191855859,j,1057.54652899,1,1,195,473
set_size_experiment_1,1,f,27,2,194,prime,1,14,-6,13,64,uni,15,70,81.191855859,i,596.078866161,1,1,195,474
set_size_experiment_1,1,f,27,2,194,prime,2,14,-4,7,64,uni,15,68,83.191855859,i,1334.46827997,1,1,195,475
set_size_experiment_1,1,f,27,2,194,prime,3,14,-8,4,64,uni,15,72,79.191855859,j,589.680399746,1,1,195,476
set_size_experiment_1,1,f,27,2,195,probe,0,36,12,21,-94,norm,10,74,-52.816637235,i,577.077697963,1,1,196,477
set_size_experiment_1,1,f,27,2,196,prime,0,14,-6,11,99,uni,15,-75,87.991308525,j,1098.22156001,0,1,197,478
set_size_experiment_1,1,f,27,2,196,prime,1,14,16,11,99,uni,15,83,-70.008691475,j,506.102642976,1,0,197,479
set_size_experiment_1,1,f,27,2,196,prime,2,14,8,7,99,uni,15,-89,-78.008691475,j,485.416472889,1,1,197,480
set_size_experiment_1,1,f,27,2,197,probe,0,36,128,5,46,norm,10,-82.0000000002,29.0870858492,i,494.861096144,1,1,198,481
set_size_experiment_1,1,f,27,2,197,probe,1,36,128,23,51,norm,10,-77.0000000002,29.0870858492,j,1316.62518904,1,1,198,482
set_size_experiment_1,1,f,27,2,198,prime,0,14,-155,5,-52,uni,15,-77,-26.059810826,i,3288.31555229,1,1,199,483
set_size_experiment_1,1,f,27,2,198,prime,1,14,-160,4,-52,uni,15,-72,-31.059810826,j,811.937109567,1,1,199,484
set_size_experiment_1,1,f,27,2,198,prime,2,14,-153,5,-52,uni,15,-79,-24.059810826,i,491.251477972,0,1,199,485
set_size_experiment_1,1,f,27,2,198,prime,3,14,-136,10,-52,uni,15,84,-7.05981082600002,i,1653.57429441,1,0,199,486
set_size_experiment_1,1,f,27,2,199,probe,0,36,-56,7,-167,norm,10,69,-3.35682184299998,i,480.756085366,1,1,200,487
set_size_experiment_1,1,f,27,2,199,probe,1,36,-56,32,-152,norm,10,84,-3.35682184299998,j,741.910131648,1,1,200,488
set_size_experiment_1,1,f,27,2,200,prime,0,36,-92,1,-11,uni,15,81,59.23695257,i,688.567014411,1,1,201,489
set_size_experiment_1,1,f,27,2,200,prime,1,36,-107,10,-11,uni,15,-84,44.23695257,j,577.136543579,1,1,201,490
set_size_experiment_1,1,f,27,2,200,prime,2,36,-129,22,-11,uni,15,-62,22.23695257,i,722.722809762,0,1,201,491
set_size_experiment_1,1,f,27,2,200,prime,3,36,-104,3,-11,uni,15,-87,47.23695257,j,511.803801171,1,0,201,492
set_size_experiment_1,1,f,27,2,201,probe,0,36,-84,6,-146,norm,10,-62,-72.673901536,i,691.770862788,1,1,202,493
set_size_experiment_1,1,f,27,2,201,probe,1,36,-84,2,-153,norm,10,-69,-72.673901536,i,486.709551886,1,1,202,494
set_size_experiment_1,1,f,27,2,202,prime,0,36,-95,5,-29,uni,15,66,58.415736122,i,698.965483345,1,1,203,495
set_size_experiment_1,1,f,27,2,202,prime,1,36,-130,28,-29,uni,15,-79,23.415736122,j,556.305758655,1,1,203,496
set_size_experiment_1,1,f,27,2,202,prime,2,36,-147,12,-29,uni,15,-62,6.415736122,j,1670.20776868,0,1,203,497
set_size_experiment_1,1,f,27,2,203,probe,0,36,-3,13,-65,norm,10,-62,25.323760094,i,461.358762346,1,0,204,498
set_size_experiment_1,1,f,27,2,203,probe,1,36,-3,29,-106,norm,10,77,25.323760094,j,708.075875416,1,1,204,499
set_size_experiment_1,1,f,27,2,204,prime,0,8,7,4,117,uni,15,-70,-66.185364142,i,2421.80873174,1,1,205,500
set_size_experiment_1,1,f,27,2,204,prime,1,8,5,1,117,uni,15,-68,-68.185364142,j,718.425113708,1,1,205,501
set_size_experiment_1,1,f,27,2,204,prime,2,8,45,4,117,uni,15,72,-28.185364142,j,902.311025187,1,1,205,502
set_size_experiment_1,1,f,27,2,205,probe,0,36,49,20,-67,norm,10,64,-68.113364829,i,1493.50071047,1,1,206,503
set_size_experiment_1,1,f,27,2,206,prime,0,36,-92,31,7,norm,15,-81,-25.6004198959999,i,565.402688459,1,1,207,504
set_size_experiment_1,1,f,27,2,206,prime,1,36,-111,12,7,norm,15,-62,-44.6004198959999,i,556.009989232,1,1,207,505
set_size_experiment_1,1,f,27,2,206,prime,2,36,-69,13,7,norm,15,76,-2.60041989599995,j,640.285054222,1,1,207,506
set_size_experiment_1,1,f,27,2,207,probe,0,36,20,17,-85,norm,10,75,13.319197424,j,593.336556107,1,1,208,507
set_size_experiment_1,1,f,27,2,207,probe,1,36,20,15,-45,norm,10,-65,13.319197424,i,862.711378373,1,1,208,508
set_size_experiment_1,1,f,27,2,208,prime,0,8,1,1,70,uni,15,69,46.485175651,i,928.437967785,1,1,209,509
set_size_experiment_1,1,f,27,2,208,prime,1,8,5,6,70,uni,15,65,50.485175651,j,755.286680534,1,1,209,510
set_size_experiment_1,1,f,27,2,208,prime,2,8,-2,7,70,uni,15,72,43.485175651,i,718.62895973,1,1,209,511
set_size_experiment_1,1,f,27,2,208,prime,3,8,1,5,70,uni,15,69,46.485175651,j,621.726578102,1,1,209,512
set_size_experiment_1,1,f,27,2,209,probe,0,36,49,18,-13,norm,10,-62,-21.2259973,j,669.431230053,1,1,210,513
set_size_experiment_1,1,f,27,2,210,prime,0,24,34,9,138,norm,15,-75.9999999996,47.129961536,i,589.141553268,0,1,211,514
set_size_experiment_1,1,f,27,2,210,prime,1,24,31,15,138,norm,15,-72.9999999996,44.129961536,i,685.282011516,1,0,211,515
set_size_experiment_1,1,f,27,2,210,prime,2,24,61,10,138,norm,15,77.0000000004,74.129961536,i,574.8850042,1,1,211,516
set_size_experiment_1,1,f,27,2,210,prime,3,24,52,22,138,norm,15,86.0000000004,65.129961536,i,1016.93380531,1,1,211,517
set_size_experiment_1,1,f,27,2,211,probe,0,36,153,19,40,norm,10,67,14.7204153546,i,790.447092615,1,1,212,518
set_size_experiment_1,1,f,27,2,212,prime,0,36,-142,13,-35,norm,15,-73,-2.43674585700001,i,1638.75351474,1,1,213,519
set_size_experiment_1,1,f,27,2,212,prime,1,36,-112,24,-35,norm,15,77,27.563254143,j,670.837384649,1,1,213,520
set_size_experiment_1,1,f,27,2,212,prime,2,36,-107,21,-35,norm,15,72,32.563254143,j,793.409402482,1,1,213,521
set_size_experiment_1,1,f,27,2,212,prime,3,36,-114,20,-35,norm,15,79,25.563254143,j,831.575971097,1,1,213,522
set_size_experiment_1,1,f,27,2,213,probe,0,36,-13,9,-96,norm,10,-83,22.605913243,j,523.256117478,1,1,214,523
set_size_experiment_1,1,f,27,2,213,probe,1,36,-13,19,-111,norm,10,82,22.605913243,i,547.258058563,1,1,214,524
set_size_experiment_1,1,f,27,2,214,prime,0,36,-211,11,-117,uni,15,-86,79.548780929,i,522.328809835,1,1,215,525
set_size_experiment_1,1,f,27,2,214,prime,1,36,-218,34,-117,uni,15,-79,72.548780929,i,1029.92573846,1,1,215,526
set_size_experiment_1,1,f,27,2,214,prime,2,36,-205,17,-117,uni,15,88,85.548780929,j,1708.33548997,1,1,215,527
set_size_experiment_1,1,f,27,2,215,probe,0,36,-143,19,-235,norm,10,88,-25.587983018,i,1015.92534222,1,1,216,528
set_size_experiment_1,1,f,27,2,215,probe,1,36,-143,22,-247,norm,10,76,-25.587983018,j,540.978054516,1,1,216,529
set_size_experiment_1,1,f,27,2,216,prime,0,36,22,12,87,norm,15,65,88.587548691,j,609.640414827,1,1,217,530
set_size_experiment_1,1,f,27,2,216,prime,1,36,-23,25,87,norm,15,-70,43.587548691,j,612.715417519,1,1,217,531
set_size_experiment_1,1,f,27,2,216,prime,2,36,-6,9,87,norm,15,-87,60.587548691,j,569.00230702,1,1,217,532
set_size_experiment_1,1,f,27,2,217,probe,0,36,27,29,-83,norm,10,70,-59.625473659,i,557.502682321,1,1,218,533
set_size_experiment_1,1,f,27,2,218,prime,0,8,-3,4,90,norm,15,-87,79.894077309,j,939.21643775,1,1,219,534
set_size_experiment_1,1,f,27,2,218,prime,1,8,-25,6,90,norm,15,-65,57.894077309,i,563.216918148,1,1,219,535
set_size_experiment_1,1,f,27,2,218,prime,2,8,16,6,90,norm,15,74,-81.105922691,j,627.641967498,1,1,219,536
set_size_experiment_1,1,f,27,2,219,probe,0,36,4,4,-96,norm,10,80,-86.137543631,j,675.428542309,1,1,220,537
set_size_experiment_1,1,f,27,2,220,prime,0,24,-177,23,-64,norm,15,-67,-80.559545295,j,892.554863356,1,1,221,538
set_size_experiment_1,1,f,27,2,220,prime,1,24,-149,4,-64,norm,15,85,-52.559545295,j,971.09953966,1,1,221,539
set_size_experiment_1,1,f,27,2,220,prime,2,24,-159,23,-64,norm,15,-85,-62.559545295,j,733.379741199,1,1,221,540
set_size_experiment_1,1,f,27,2,220,prime,3,24,-154,15,-64,norm,15,-90,-57.559545295,i,697.768559679,1,1,221,541
set_size_experiment_1,1,f,27,2,221,probe,0,36,-73,28,-150,norm,10,-77,-9.755541709,j,928.465660661,1,1,222,542
set_size_experiment_1,1,f,27,2,221,probe,1,36,-73,13,-141,norm,10,-68,-9.755541709,j,677.22931318,1,1,222,543
set_size_experiment_1,1,f,27,2,222,prime,0,36,-85,9,-13,uni,15,72,56.029022702,i,518.95880606,1,1,223,544
set_size_experiment_1,1,f,27,2,222,prime,1,36,-82,2,-13,uni,15,69,59.029022702,i,574.170771986,1,1,223,545
set_size_experiment_1,1,f,27,2,222,prime,2,36,-114,31,-13,uni,15,-79,27.029022702,i,766.60168916,1,1,223,546
set_size_experiment_1,1,f,27,2,223,probe,0,36,-24,30,-131,norm,10,73,-10.523786514,j,1055.35652675,1,1,224,547
set_size_experiment_1,1,f,27,2,224,prime,0,14,-159,2,-52,norm,15,-73,-27.734844716,j,1077.49115955,1,1,225,548
set_size_experiment_1,1,f,27,2,224,prime,1,14,-127,9,-52,norm,15,75,4.265155284,j,629.494660534,1,1,225,549
set_size_experiment_1,1,f,27,2,224,prime,2,14,-165,0,-52,norm,15,-67,-33.734844716,i,632.550432347,1,1,225,550
set_size_experiment_1,1,f,27,2,225,probe,0,36,-88,3,-182,norm,10,86,-36.096185161,j,555.473834276,1,1,226,551
set_size_experiment_1,1,f,27,2,226,prime,0,14,-182,6,-121,uni,15,61,0.0203424810000001,i,1826.46558154,1,1,227,552
set_size_experiment_1,1,f,27,2,226,prime,1,14,-220,9,-121,uni,15,-81,-37.979657519,j,1096.45771235,1,1,227,553
set_size_experiment_1,1,f,27,2,226,prime,2,14,-207,8,-121,uni,15,86,-24.979657519,j,617.23772902,1,1,227,554
set_size_experiment_1,1,f,27,2,227,probe,0,36,-163,12,-239,norm,10,-76,-42.777525782,j,650.406599976,0,1,228,555
set_size_experiment_1,1,f,27,2,227,probe,1,36,-163,33,-264,norm,10,79,-42.777525782,j,538.389975205,1,0,228,556
set_size_experiment_1,1,f,27,2,228,prime,0,36,-11,22,107,uni,15,-62,73.923026304,j,482.256854884,1,1,229,557
set_size_experiment_1,1,f,27,2,228,prime,1,36,-8,30,107,uni,15,-65,76.923026304,i,1179.20816131,1,1,229,558
set_size_experiment_1,1,f,27,2,228,prime,2,36,-4,14,107,uni,15,-69,80.923026304,i,600.002330728,1,1,229,559
set_size_experiment_1,1,f,27,2,229,probe,0,36,21,14,-95,norm,10,64,-86.054028232,j,618.658114225,1,1,230,560
set_size_experiment_1,1,f,27,2,229,probe,1,36,21,4,-96,norm,10,63,-86.054028232,j,558.269605972,1,1,230,561
set_size_experiment_1,1,f,27,2,230,prime,0,14,123,13,213,norm,15,-90,38.934845851,j,1610.79733912,1,1,231,562
set_size_experiment_1,1,f,27,2,230,prime,1,14,120,10,213,norm,15,-87,35.934845851,i,2065.7311501,1,1,231,563
set_size_experiment_1,1,f,27,2,230,prime,2,14,117,2,213,norm,15,-84,32.934845851,i,1649.46159907,1,1,231,564
set_size_experiment_1,1,f,27,2,230,prime,3,14,131,8,213,norm,15,82,46.934845851,j,885.450242087,1,1,231,565
set_size_experiment_1,1,f,27,2,231,probe,0,36,212,13,133,norm,10,-79,-1.10578577840002,j,869.304461405,1,1,232,566
set_size_experiment_1,1,f,27,2,231,probe,1,36,212,23,140,norm,10,-72,-1.10578577840002,j,590.105400421,1,1,232,567
set_size_experiment_1,1,f,27,2,232,prime,0,24,-106,9,-3,uni,15,-77,-66.4698444786,j,547.547290102,1,1,233,568
set_size_experiment_1,1,f,27,2,232,prime,1,24,-89,11,-3,uni,15,86,-49.4698444786,j,649.479676969,1,1,233,569
set_size_experiment_1,1,f,27,2,232,prime,2,24,-110,11,-3,uni,15,-73,-70.4698444786,j,542.252286337,1,1,233,570
set_size_experiment_1,1,f,27,2,232,prime,3,24,-92,1,-3,uni,15,89,-52.4698444786,j,472.71338664,1,1,233,571
set_size_experiment_1,1,f,27,2,233,probe,0,36,83,17,-13,norm,10,84,86.621931906,j,466.499151662,1,1,234,572
set_size_experiment_1,1,f,27,2,234,prime,0,14,11,13,77,uni,15,66,23.752985356,i,948.249906301,1,1,235,573
set_size_experiment_1,1,f,27,2,234,prime,1,14,-37,0,77,uni,15,-66,-24.247014644,j,603.417717852,1,1,235,574
set_size_experiment_1,1,f,27,2,234,prime,2,14,17,2,77,uni,15,60,29.752985356,i,560.789608397,1,1,235,575
set_size_experiment_1,1,f,27,2,235,probe,0,36,55,26,-10,norm,10,-65,-22.469173063,j,550.370370038,1,1,236,576
set_size_experiment_1,1,f,27,2,235,probe,1,36,55,30,-28,norm,10,-83,-22.469173063,i,588.893860579,1,1,236,577
set_size_experiment_1,1,f,27,2,236,prime,0,24,-217,13,-107,norm,15,-70,-8.75397382400001,i,858.269452117,1,1,237,578
set_size_experiment_1,1,f,27,2,236,prime,1,24,-175,8,-107,norm,15,68,33.246026176,j,1375.71254279,1,1,237,579
set_size_experiment_1,1,f,27,2,236,prime,2,24,-223,5,-107,norm,15,-64,-14.753973824,j,924.098349176,1,1,237,580
set_size_experiment_1,1,f,27,2,237,probe,0,36,-154,10,-273,norm,10,61,-46.99931281,j,547.034597024,1,1,238,581
set_size_experiment_1,1,f,27,2,238,prime,0,8,-36,7,36,uni,15,72,57.46115385,j,1787.83632163,0,1,239,582
set_size_experiment_1,1,f,27,2,238,prime,1,8,-42,0,36,uni,15,78,51.46115385,i,839.944438078,1,0,239,583
set_size_experiment_1,1,f,27,2,238,prime,2,8,-59,5,36,uni,15,-85,34.46115385,i,673.215079121,1,1,239,584
set_size_experiment_1,1,f,27,2,238,prime,3,8,-75,1,36,uni,15,-69,18.46115385,j,1468.6529981,0,1,239,585
set_size_experiment_1,1,f,27,2,239,probe,0,36,57,31,-28,norm,10,-85,20.238103724,j,647.046597674,1,0,240,586
set_size_experiment_1,1,f,27,2,239,probe,1,36,57,26,-32,norm,10,-89,20.238103724,j,569.957691245,1,1,240,587
set_size_experiment_1,1,f,27,2,240,prime,0,8,-66,0,48,norm,15,-66,-33.736738215,i,1746.21975143,1,1,241,588
set_size_experiment_1,1,f,27,2,240,prime,1,8,-48,3,48,norm,15,-84,-15.736738215,j,835.415973328,0,1,241,589
set_size_experiment_1,1,f,27,2,240,prime,2,8,-62,7,48,norm,15,-70,-29.736738215,i,1819.26980708,1,0,241,590
set_size_experiment_1,1,f,27,2,240,prime,3,8,-41,6,48,norm,15,89,-8.736738215,i,2322.79711682,1,1,241,591
set_size_experiment_1,1,f,27,2,241,probe,0,36,43,28,-42,norm,10,-85,-4.453059486,j,717.297805473,1,1,242,592
set_size_experiment_1,1,f,27,2,241,probe,1,36,43,25,-28,norm,10,-71,-4.453059486,i,869.945999235,1,1,242,593
set_size_experiment_1,1,f,27,2,242,prime,0,14,-149,3,-66,norm,15,83,58.867451998,j,919.406037778,1,1,243,594
set_size_experiment_1,1,f,27,2,242,prime,1,14,-155,3,-66,norm,15,89,52.867451998,i,543.353055604,1,1,243,595
set_size_experiment_1,1,f,27,2,242,prime,2,14,-135,8,-66,norm,15,69,72.867451998,j,1082.22577814,1,1,243,596
set_size_experiment_1,1,f,27,2,242,prime,3,14,-131,6,-66,norm,15,65,76.867451998,j,541.643439792,1,1,243,597
set_size_experiment_1,1,f,27,2,243,probe,0,36,-145,25,-242,norm,10,83,-79.431183771,j,516.751881689,1,1,244,598
set_size_experiment_1,1,f,27,2,244,prime,0,8,-121,1,-34,norm,15,87,-58.867312661,j,792.546709068,1,1,245,599
set_size_experiment_1,1,f,27,2,244,prime,1,8,-140,5,-34,norm,15,-74,-77.867312661,j,2563.26345634,0,1,245,600
set_size_experiment_1,1,f,27,2,244,prime,2,8,-117,4,-34,norm,15,83,-54.867312661,j,582.468856126,1,0,245,601
set_size_experiment_1,1,f,27,2,244,prime,3,8,-108,4,-34,norm,15,74,-45.867312661,i,744.732057676,1,1,245,602
set_size_experiment_1,1,f,27,2,245,probe,0,36,-71,32,-137,norm,10,-66,-37.336187083,i,566.62230473,1,1,246,603
set_size_experiment_1,1,f,27,2,246,prime,0,8,-73,5,1,norm,15,74,64.688197262,i,729.938199744,1,1,247,604
set_size_experiment_1,1,f,27,2,246,prime,1,8,-91,2,1,norm,15,-88,46.688197262,j,664.204303175,0,1,247,605
set_size_experiment_1,1,f,27,2,246,prime,2,8,-105,5,1,norm,15,-74,32.688197262,i,567.778844386,1,0,247,606
set_size_experiment_1,1,f,27,2,247,probe,0,36,-4,31,-98,norm,10,86,-5.85887801699999,j,525.12958087,1,1,248,607
set_size_experiment_1,1,f,27,2,248,prime,0,14,-157,12,-85,norm,15,72,-58.139703686,j,1345.80944292,0,1,249,608
set_size_experiment_1,1,f,27,2,248,prime,1,14,-148,2,-85,norm,15,63,-49.139703686,j,519.208806567,1,0,249,609
set_size_experiment_1,1,f,27,2,248,prime,2,14,-185,9,-85,norm,15,-80,-86.139703686,i,481.925701723,1,1,249,610
set_size_experiment_1,1,f,27,2,249,probe,0,36,-119,9,-183,norm,10,-64,-34.756375552,i,523.66919443,1,1,250,611
set_size_experiment_1,1,f,27,2,249,probe,1,36,-119,28,-180,norm,10,-61,-34.756375552,j,516.413805075,1,1,250,612
set_size_experiment_1,1,f,27,2,250,prime,0,8,37,6,117,norm,15,80,37.253086114,j,1556.56652804,1,1,251,613
set_size_experiment_1,1,f,27,2,250,prime,1,8,36,3,117,norm,15,81,36.253086114,i,1312.76557129,0,1,251,614
set_size_experiment_1,1,f,27,2,250,prime,2,8,33,3,117,norm,15,84,33.253086114,i,1471.08953912,1,0,251,615
set_size_experiment_1,1,f,27,2,250,prime,3,8,25,7,117,norm,15,-88,25.253086114,j,873.739848845,1,1,251,616
set_size_experiment_1,1,f,27,2,251,probe,0,36,134,23,35,norm,10,80.9999999997,16.7369551043,i,546.692674048,1,1,252,617
set_size_experiment_1,1,f,27,2,252,prime,0,14,30,11,116,uni,15,86,-4.863210436,i,2146.29236702,1,1,253,618
set_size_experiment_1,1,f,27,2,252,prime,1,14,45,1,116,uni,15,71,10.136789564,i,726.265504956,0,1,253,619
set_size_experiment_1,1,f,27,2,252,prime,2,14,24,8,116,uni,15,-88,-10.863210436,i,485.208012164,1,0,253,620
set_size_experiment_1,1,f,27,2,253,probe,0,36,64,11,-19,norm,10,-83,-51.476545402,i,510.292260908,1,1,254,621
set_size_experiment_1,1,f,27,2,254,prime,0,36,-41,0,71,norm,15,-68,-22.641170082,i,815.053265542,1,1,255,622
set_size_experiment_1,1,f,27,2,254,prime,1,36,-13,15,71,norm,15,84,5.358829918,j,1132.97658693,1,1,255,623
set_size_experiment_1,1,f,27,2,254,prime,2,36,-35,1,71,norm,15,-74,-16.641170082,i,728.529352695,1,1,255,624
set_size_experiment_1,1,f,27,2,254,prime,3,36,-17,22,71,norm,15,88,1.358829918,j,755.330527201,1,1,255,625
set_size_experiment_1,1,f,27,2,255,probe,0,36,102,12,1,norm,10,79,31.67291844,j,591.720401309,1,1,256,626
set_size_experiment_1,1,f,27,2,256,prime,0,8,-164,2,-79,uni,15,85,15.197294543,j,862.161763012,1,1,257,627
set_size_experiment_1,1,f,27,2,256,prime,1,8,-195,6,-79,uni,15,-64,-15.802705457,j,1474.24838785,0,1,257,628
set_size_experiment_1,1,f,27,2,256,prime,2,8,-153,7,-79,uni,15,74,26.197294543,i,1138.45082093,1,0,257,629
set_size_experiment_1,1,f,27,2,256,prime,3,8,-180,4,-79,uni,15,-79,-0.802705456999973,j,749.567060731,1,1,257,630
set_size_experiment_1,1,f,27,2,257,probe,0,36,-89,23,-206,norm,10,63,-10.588523392,i,587.019628845,1,1,258,631
set_size_experiment_1,1,f,27,2,258,prime,0,14,-42,8,29,norm,15,71,-15.447092494,i,1325.44135023,1,1,259,632
set_size_experiment_1,1,f,27,2,258,prime,1,14,-46,7,29,norm,15,75,-19.447092494,i,1610.22887751,1,1,259,633
set_size_experiment_1,1,f,27,2,258,prime,2,14,-69,10,29,norm,15,-82,-42.447092494,j,957.542221062,1,1,259,634
set_size_experiment_1,1,f,27,2,258,prime,3,14,-37,2,29,norm,15,66,-10.447092494,j,1298.14863671,1,1,259,635
set_size_experiment_1,1,f,27,2,259,probe,0,36,-17,14,-105,norm,10,-88,-46.357353484,j,601.166177541,1,1,260,636
set_size_experiment_1,1,f,27,2,259,probe,1,36,-17,2,-122,norm,10,75,-46.357353484,j,526.254196651,1,1,260,637
set_size_experiment_1,1,f,27,2,260,prime,0,24,-107,18,-13,uni,15,-86,14.689462779,i,675.014696084,1,1,261,638
set_size_experiment_1,1,f,27,2,260,prime,1,24,-125,17,-13,uni,15,-68,-3.310537221,j,907.834106125,1,1,261,639
set_size_experiment_1,1,f,27,2,260,prime,2,24,-73,21,-13,uni,15,60,48.689462779,i,626.489274204,0,1,261,640
set_size_experiment_1,1,f,27,2,260,prime,3,24,-130,14,-13,uni,15,-63,-8.310537221,i,1201.95740927,1,0,261,641
set_size_experiment_1,1,f,27,2,261,probe,0,36,-42,11,-121,norm,10,-79,-29.063718168,j,588.345783763,1,1,262,642
set_size_experiment_1,1,f,27,2,261,probe,1,36,-42,21,-140,norm,10,82,-29.063718168,i,670.468154363,1,1,262,643
set_size_experiment_1,1,f,27,2,262,prime,0,24,-166,14,-82,uni,15,84,-25.391139577,j,1277.71054395,0,1,263,644
set_size_experiment_1,1,f,27,2,262,prime,1,24,-173,8,-82,uni,15,-89,-32.391139577,i,985.79839617,1,0,263,645
set_size_experiment_1,1,f,27,2,262,prime,2,24,-192,5,-82,uni,15,-70,-51.391139577,i,497.403405607,1,1,263,646
set_size_experiment_1,1,f,27,2,262,prime,3,24,-162,12,-82,uni,15,80,-21.391139577,j,602.618101984,1,1,263,647
set_size_experiment_1,1,f,27,2,263,probe,0,36,-86,23,-189,norm,10,77,-4.377483192,j,526.59496665,1,1,264,648
set_size_experiment_1,1,f,27,2,264,prime,0,8,21,5,140,uni,15,-60.9999999995,30.443465161,i,566.203073598,0,1,265,649
set_size_experiment_1,1,f,27,2,264,prime,1,8,38,2,140,uni,15,-77.9999999995,47.443465161,j,2473.00684825,1,0,265,650
set_size_experiment_1,1,f,27,2,264,prime,2,8,64,5,140,uni,15,76.0000000005,73.443465161,j,1203.29971798,0,1,265,651
set_size_experiment_1,1,f,27,2,264,prime,3,8,75,3,140,uni,15,65.0000000005,84.443465161,j,2444.50105727,0,0,265,652
set_size_experiment_1,1,f,27,2,265,probe,0,36,57,9,-58,norm,10,65,-83.5527662675,i,578.184621409,1,0,266,653
set_size_experiment_1,1,f,27,2,265,probe,1,36,57,29,-23,norm,10,-80,-83.5527662675,j,613.522341475,1,1,266,654
set_size_experiment_1,1,f,27,2,266,prime,0,24,-158,15,-77,norm,15,81,45.164184021,i,944.185287692,1,1,267,655
set_size_experiment_1,1,f,27,2,266,prime,1,24,-139,20,-77,norm,15,62,64.164184021,j,1831.77712467,1,1,267,656
set_size_experiment_1,1,f,27,2,266,prime,2,24,-152,0,-77,norm,15,75,51.164184021,i,1069.52692196,1,1,267,657
set_size_experiment_1,1,f,27,2,266,prime,3,24,-160,4,-77,norm,15,83,43.164184021,i,606.960797682,1,1,267,658
set_size_experiment_1,1,f,27,2,267,probe,0,36,1,18,-88,norm,10,-89,78.317921141,i,531.026508659,1,1,268,659
set_size_experiment_1,1,f,27,2,267,probe,1,36,1,17,-114,norm,10,65,78.317921141,j,616.299650632,1,1,268,660
set_size_experiment_1,1,f,27,2,268,prime,0,14,23,0,134,norm,15,-68.9999999998,-43.227800864,i,2196.04817405,1,1,269,661
set_size_experiment_1,1,f,27,2,268,prime,1,14,42,13,134,norm,15,-87.9999999998,-24.227800864,j,726.02242697,1,1,269,662
set_size_experiment_1,1,f,27,2,268,prime,2,14,54,9,134,norm,15,80.0000000002,-12.227800864,j,769.58092209,1,1,269,663
set_size_experiment_1,1,f,27,2,269,probe,0,36,127,15,41,norm,10,-85.9999999997,-7.26954913350001,j,558.018837124,1,1,270,664
set_size_experiment_1,1,f,27,2,270,prime,0,8,-163,1,-58,uni,15,-75,-24.211391156,j,1969.35915388,1,1,271,665
set_size_experiment_1,1,f,27,2,270,prime,1,8,-137,7,-58,uni,15,79,1.78860884399998,i,1230.82012311,1,1,271,666
set_size_experiment_1,1,f,27,2,270,prime,2,8,-165,3,-58,uni,15,-73,-26.211391156,i,1023.88150245,1,1,271,667
set_size_experiment_1,1,f,27,2,270,prime,3,8,-177,3,-58,uni,15,-61,-38.211391156,j,782.942471094,1,1,271,668
set_size_experiment_1,1,f,27,2,271,probe,0,36,-53,3,-149,norm,10,84,5.76127250400003,j,696.269712411,1,1,272,669
set_size_experiment_1,1,f,27,2,272,prime,0,36,-56,35,14,norm,15,70,-87.320141676,j,614.987341687,1,1,273,670
set_size_experiment_1,1,f,27,2,272,prime,1,36,-75,5,14,norm,15,89,73.679858324,j,524.44150392,1,1,273,671
set_size_experiment_1,1,f,27,2,272,prime,2,36,-77,34,14,norm,15,-89,71.679858324,i,517.239959911,1,1,273,672
set_size_experiment_1,1,f,27,2,273,probe,0,36,-62,30,-132,norm,10,-70,-76.331550583,i,619.226575829,1,1,274,673
set_size_experiment_1,1,f,27,2,274,prime,0,8,-64,1,26,uni,15,-90,68.010773623,j,1433.47912561,1,1,275,674
set_size_experiment_1,1,f,27,2,274,prime,1,8,-84,7,26,uni,15,-70,48.010773623,i,3382.17408583,1,1,275,675
set_size_experiment_1,1,f,27,2,274,prime,2,8,-61,0,26,uni,15,87,71.010773623,i,728.790506721,0,1,275,676
set_size_experiment_1,1,f,27,2,274,prime,3,8,-57,2,26,uni,15,83,75.010773623,j,924.506042153,1,0,275,677
set_size_experiment_1,1,f,27,2,275,probe,0,36,22,32,-57,norm,10,-79,-3.77810593800001,i,594.2619415,1,1,276,678
set_size_experiment_1,1,f,27,2,275,probe,1,36,22,25,-42,norm,10,-64,-3.77810593800001,i,582.790394314,1,1,276,679
set_size_experiment_1,1,f,27,2,276,prime,0,36,4,4,111,norm,15,-73,45.582041624,j,555.714604445,1,1,277,680
set_size_experiment_1,1,f,27,2,276,prime,1,36,22,25,111,norm,15,89,63.582041624,i,733.638202772,1,1,277,681
set_size_experiment_1,1,f,27,2,276,prime,2,36,18,14,111,norm,15,-87,59.582041624,j,525.303811766,1,1,277,682
set_size_experiment_1,1,f,27,2,276,prime,3,36,39,19,111,norm,15,72,80.582041624,i,875.894081779,1,1,277,683
set_size_experiment_1,1,f,27,2,277,probe,0,36,77,21,-29,norm,10,74,-33.371892405,j,1235.17512716,1,1,278,684
set_size_experiment_1,1,f,27,2,277,probe,1,36,77,7,-40,norm,10,63,-33.371892405,j,729.694353417,1,1,278,685
set_size_experiment_1,1,f,27,2,278,prime,0,8,-235,0,-122,uni,15,-67,-15.101158974,j,1553.20806336,0,1,279,686
set_size_experiment_1,1,f,27,2,278,prime,1,8,-209,4,-122,uni,15,87,10.898841026,j,1399.16602243,1,0,279,687
set_size_experiment_1,1,f,27,2,278,prime,2,8,-218,5,-122,uni,15,-84,1.89884102600001,i,1821.17980812,1,1,279,688
set_size_experiment_1,1,f,27,2,279,probe,0,36,-110,13,-219,norm,10,71,11.903230039,j,575.297696516,1,1,280,689
set_size_experiment_1,1,f,27,2,279,probe,1,36,-110,11,-220,norm,10,70,11.903230039,i,549.286906607,1,1,280,690
set_size_experiment_1,1,f,27,2,280,prime,0,24,-162,9,-99,norm,15,63,58.400512971,i,572.265386581,1,1,281,691
set_size_experiment_1,1,f,27,2,280,prime,1,24,-172,0,-99,norm,15,73,48.400512971,j,904.051410966,1,1,281,692
set_size_experiment_1,1,f,27,2,280,prime,2,24,-190,11,-99,norm,15,-89,30.400512971,j,561.297300272,1,1,281,693
set_size_experiment_1,1,f,27,2,280,prime,3,24,-161,13,-99,norm,15,62,59.400512971,i,692.345093936,1,1,281,694
set_size_experiment_1,1,f,27,2,281,probe,0,36,-124,3,-216,norm,10,88,-25.318718363,j,798.230944201,1,1,282,695
set_size_experiment_1,1,f,27,2,281,probe,1,36,-124,5,-221,norm,10,83,-25.318718363,j,586.758089252,1,1,282,696
set_size_experiment_1,1,f,27,2,282,prime,0,24,-205,6,-103,uni,15,-78,16.419702293,i,2743.69897973,1,1,283,697
set_size_experiment_1,1,f,27,2,282,prime,1,24,-209,5,-103,uni,15,-74,12.419702293,i,1221.82627022,1,1,283,698
set_size_experiment_1,1,f,27,2,282,prime,2,24,-200,10,-103,uni,15,-83,21.419702293,j,593.685787171,1,1,283,699
set_size_experiment_1,1,f,27,2,282,prime,3,24,-189,0,-103,uni,15,86,32.419702293,i,723.680502735,1,1,283,700
set_size_experiment_1,1,f,27,2,283,probe,0,36,-121,21,-183,norm,10,-62,-18.739954274,i,576.770004816,1,1,284,701
set_size_experiment_1,1,f,27,2,283,probe,1,36,-121,25,-222,norm,10,79,-18.739954274,i,565.305764787,1,1,284,702
set_size_experiment_1,1,f,27,2,284,prime,0,14,-172,3,-108,uni,15,64,49.831427957,j,1103.0219486,1,1,285,703
set_size_experiment_1,1,f,27,2,284,prime,1,14,-181,4,-108,uni,15,73,40.831427957,j,544.766519219,1,1,285,704
set_size_experiment_1,1,f,27,2,284,prime,2,14,-176,12,-108,uni,15,68,45.831427957,j,709.175106138,0,1,285,705
set_size_experiment_1,1,f,27,2,284,prime,3,14,-197,10,-108,uni,15,89,24.831427957,i,671.967001632,1,0,285,706
set_size_experiment_1,1,f,27,2,285,probe,0,36,-131,34,-239,norm,10,72,-22.555321308,j,607.291951776,1,1,286,707
set_size_experiment_1,1,f,27,2,286,prime,0,36,117,12,221,uni,15,-76.00000000022,-4.10265037000002,i,1545.26575003,1,1,287,708
set_size_experiment_1,1,f,27,2,286,prime,1,36,138,0,221,uni,15,82.99999999998,16.8973496298,i,848.988290876,1,1,287,709
set_size_experiment_1,1,f,27,2,286,prime,2,36,118,8,221,uni,15,-77.00000000022,-3.10265037000002,i,1539.13728427,0,1,287,710
set_size_experiment_1,1,f,27,2,287,probe,0,36,281,17,213,norm,10,-68,59.69020569532,i,650.844677351,1,0,288,711
set_size_experiment_1,1,f,27,2,287,probe,1,36,281,23,181,norm,10,80,59.69020569532,i,511.378800496,1,1,288,712
set_size_experiment_1,1,f,27,2,288,prime,0,24,-54,2,15,uni,15,69,-54.4437971571,j,864.106380381,1,1,289,713
set_size_experiment_1,1,f,27,2,288,prime,1,24,-56,17,15,uni,15,71,-56.4437971571,i,804.322103038,1,1,289,714
set_size_experiment_1,1,f,27,2,288,prime,2,24,-58,1,15,uni,15,73,-58.4437971571,i,561.639224179,1,1,289,715
set_size_experiment_1,1,f,27,2,288,prime,3,24,-78,15,15,uni,15,-87,-78.4437971571,i,505.511104129,1,1,289,716
set_size_experiment_1,1,f,27,2,289,probe,0,36,-49,34,-165,norm,10,64,-63.817212771,i,529.521122575,1,1,290,717
set_size_experiment_1,1,f,27,2,289,probe,1,36,-49,31,-165,norm,10,64,-63.817212771,i,506.703028455,1,1,290,718
set_size_experiment_1,1,f,27,2,290,prime,0,14,-63,7,43,norm,15,-74,-78.001247954,j,610.84772367,1,1,291,719
set_size_experiment_1,1,f,27,2,290,prime,1,14,-26,1,43,norm,15,69,-41.001247954,i,1238.98666818,0,1,291,720
set_size_experiment_1,1,f,27,2,290,prime,2,14,-73,13,43,norm,15,-64,-88.001247954,j,669.515076093,1,0,291,721
set_size_experiment_1,1,f,27,2,291,probe,0,36,68,25,-15,norm,10,-83,24.911399863,i,557.990374975,1,1,292,722
set_size_experiment_1,1,f,27,2,291,probe,1,36,68,18,-18,norm,10,-86,24.911399863,j,564.300380647,1,1,292,723
set_size_experiment_1,1,f,27,2,292,prime,0,36,150,27,214,norm,15,64,-12.6877595559,j,1053.09383292,0,1,293,724
set_size_experiment_1,1,f,27,2,292,prime,1,36,106,8,214,norm,15,-71.9999999999,-56.687759556,i,462.013377808,1,0,293,725
set_size_experiment_1,1,f,27,2,292,prime,2,36,108,17,214,norm,15,-73.9999999999,-54.687759556,i,505.923411809,1,1,293,726
set_size_experiment_1,1,f,27,2,293,probe,0,36,251,27,169,norm,10,-82,37.5511037981,j,514.329957776,1,1,294,727
set_size_experiment_1,1,f,27,2,294,prime,0,14,-187,3,-82,uni,15,-75,4.14848630179998,j,1632.43812416,1,1,295,728
set_size_experiment_1,1,f,27,2,294,prime,1,14,-173,1,-82,uni,15,-89,18.1484863018,i,540.820746683,1,1,295,729
set_size_experiment_1,1,f,27,2,294,prime,2,14,-147,4,-82,uni,15,65,44.1484863018,j,876.859851182,1,1,295,730
set_size_experiment_1,1,f,27,2,295,probe,0,36,-64,30,-147,norm,10,-83,18.184369687,j,534.238818102,1,1,296,731
set_size_experiment_1,1,f,27,2,295,probe,1,36,-64,6,-176,norm,10,68,18.184369687,j,901.359100826,1,1,296,732
set_size_experiment_1,1,f,27,2,296,prime,0,36,-34,27,41,norm,15,75,-38.112210662,i,525.378042832,1,1,297,733
set_size_experiment_1,1,f,27,2,296,prime,1,36,-60,21,41,norm,15,-79,-64.112210662,i,1173.35469462,1,1,297,734
set_size_experiment_1,1,f,27,2,296,prime,2,36,-64,0,41,norm,15,-75,-68.112210662,i,531.745739281,1,1,297,735
set_size_experiment_1,1,f,27,2,296,prime,3,36,-56,13,41,norm,15,-83,-60.112210662,j,696.13240473,1,1,297,736
set_size_experiment_1,1,f,27,2,297,probe,0,36,-32,30,-98,norm,10,-66,-73.337416732,i,568.004613742,1,1,298,737
set_size_experiment_1,1,f,27,2,297,probe,1,36,-32,10,-129,norm,10,83,-73.337416732,i,542.011900805,1,1,298,738
set_size_experiment_1,1,f,27,2,298,prime,0,36,-94,17,19,uni,15,-67,34.879552112,i,595.131942071,1,1,299,739
set_size_experiment_1,1,f,27,2,298,prime,1,36,-67,20,19,uni,15,86,61.879552112,i,536.786897108,1,1,299,740
set_size_experiment_1,1,f,27,2,298,prime,2,36,-46,18,19,uni,15,65,82.879552112,i,1043.33959427,1,1,299,741
set_size_experiment_1,1,f,27,2,298,prime,3,36,-77,12,19,uni,15,-84,51.879552112,i,503.863410093,1,1,299,742
set_size_experiment_1,1,f,27,2,299,probe,0,36,-10,19,-101,norm,10,89,-28.851004337,i,574.661158025,1,1,300,743
set_size_experiment_1,1,f,27,2,300,prime,0,36,9,0,107,uni,15,-82,-70.044125819,j,672.40277119,1,1,301,744
set_size_experiment_1,1,f,27,2,300,prime,1,36,21,7,107,uni,15,86,-58.044125819,j,654.528911225,1,1,301,745
set_size_experiment_1,1,f,27,2,300,prime,2,36,44,10,107,uni,15,63,-35.044125819,i,935.202588327,1,1,301,746
set_size_experiment_1,1,f,27,2,300,prime,3,36,3,19,107,uni,15,-76,-76.044125819,i,464.524148963,1,1,301,747
set_size_experiment_1,1,f,27,2,301,probe,0,36,101,33,12,norm,10,-89,-6.22573707399999,j,803.727871738,1,1,302,748
set_size_experiment_1,1,f,27,2,302,prime,0,14,60,11,168,norm,15,-72.0000000002,48.160699676,j,2400.81333183,1,1,303,749
set_size_experiment_1,1,f,27,2,302,prime,1,14,85,4,168,norm,15,82.9999999998,73.160699676,j,715.176265687,1,1,303,750
set_size_experiment_1,1,f,27,2,302,prime,2,14,71,1,168,norm,15,-83.0000000002,59.160699676,i,541.291516274,1,1,303,751
set_size_experiment_1,1,f,27,2,302,prime,3,14,70,11,168,norm,15,-82.0000000002,58.160699676,j,799.322099425,1,1,303,752
set_size_experiment_1,1,f,27,2,303,probe,0,36,215,33,134,norm,10,-81,46.9939071314,j,586.776550859,1,1,304,753
set_size_experiment_1,1,f,27,2,303,probe,1,36,215,12,148,norm,10,-67,46.9939071314,j,637.705436908,1,1,304,754
set_size_experiment_1,1,f,27,2,304,prime,0,36,-176,0,-93,norm,15,83,35.7587236988,i,575.166157447,1,1,305,755
set_size_experiment_1,1,f,27,2,304,prime,1,36,-164,22,-93,norm,15,71,47.7587236988,j,564.819226041,1,1,305,756
set_size_experiment_1,1,f,27,2,304,prime,2,36,-160,20,-93,norm,15,67,51.7587236988,j,602.260793559,1,1,305,757
set_size_experiment_1,1,f,27,2,304,prime,3,36,-186,8,-93,norm,15,-87,25.7587236988,j,496.129943058,1,1,305,758
set_size_experiment_1,1,f,27,2,305,probe,0,36,-157,32,-244,norm,10,-87,-63.4540018770001,j,505.565335043,1,1,306,759
set_size_experiment_1,1,f,27,2,305,probe,1,36,-157,2,-268,norm,10,69,-63.4540018770001,i,515.039188787,1,1,306,760
set_size_experiment_1,1,f,27,2,306,prime,0,36,-83,14,-20,uni,15,63,4.80142816700004,j,632.636201568,1,1,307,761
set_size_experiment_1,1,f,27,2,306,prime,1,36,-104,34,-20,uni,15,84,-16.198571833,i,961.173762567,1,1,307,762
set_size_experiment_1,1,f,27,2,306,prime,2,36,-137,22,-20,uni,15,-63,-49.198571833,j,785.824781284,1,1,307,763
set_size_experiment_1,1,f,27,2,306,prime,3,36,-94,14,-20,uni,15,74,-6.19857183299996,i,480.800315738,1,1,307,764
set_size_experiment_1,1,f,27,2,307,probe,0,36,-37,27,-144,norm,10,73,-17.179245216,j,787.696320564,1,1,308,765
set_size_experiment_1,1,f,27,2,308,prime,0,8,112,3,218,norm,15,-74.00000000029,75.729883496,j,577.296928503,1,1,309,766
set_size_experiment_1,1,f,27,2,308,prime,1,8,153,0,218,norm,15,65.00000000001,-63.2701165043,j,1051.6196005,1,1,309,767
set_size_experiment_1,1,f,27,2,308,prime,2,8,133,6,218,norm,15,85.00000000001,-83.2701165043,i,855.292911641,1,1,309,768
set_size_experiment_1,1,f,27,2,308,prime,3,8,99,6,218,norm,15,-61.00000000029,62.729883496,j,562.699994072,1,1,309,769
set_size_experiment_1,1,f,27,2,309,probe,0,36,162,19,90,norm,10,-72.0000000001,-55.29869042161,j,645.805827342,1,1,310,770
set_size_experiment_1,1,f,27,2,310,prime,0,8,63,3,169,norm,15,-74.0000000002,-27.089368306,j,1864.61330391,1,1,311,771
set_size_experiment_1,1,f,27,2,310,prime,1,8,85,1,169,norm,15,83.9999999998,-5.08936830600001,i,556.339989416,1,1,311,772
set_size_experiment_1,1,f,27,2,310,prime,2,8,96,7,169,norm,15,72.9999999998,5.91063169399999,j,594.915788621,1,1,311,773
set_size_experiment_1,1,f,27,2,310,prime,3,8,77,2,169,norm,15,-88.0000000002,-13.089368306,i,600.121946074,1,1,311,774
set_size_experiment_1,1,f,27,2,311,probe,0,36,94,12,15,norm,10,-79,-74.7244304938,i,509.516106918,1,1,312,775
set_size_experiment_1,1,f,27,2,312,prime,0,36,-65,12,19,uni,15,84,-80.776198502,i,517.938036472,1,1,313,776
set_size_experiment_1,1,f,27,2,312,prime,1,36,-42,21,19,uni,15,61,-57.776198502,j,588.750014082,1,1,313,777
set_size_experiment_1,1,f,27,2,312,prime,2,36,-98,17,19,uni,15,-63,66.223801498,i,514.90649581,1,1,313,778
set_size_experiment_1,1,f,27,2,313,probe,0,36,42,18,-37,norm,10,-79,23.103274043,i,1131.66927733,1,1,314,779
set_size_experiment_1,1,f,27,2,314,prime,0,14,54,1,131,norm,15,77,-88.473547549,j,541.128824465,1,1,315,780
set_size_experiment_1,1,f,27,2,314,prime,1,14,68,1,131,norm,15,63,-74.473547549,i,1313.92788049,1,1,315,781
set_size_experiment_1,1,f,27,2,314,prime,2,14,58,6,131,norm,15,73,-84.473547549,j,571.255001239,1,1,315,782
set_size_experiment_1,1,f,27,2,314,prime,3,14,28,10,131,norm,15,-77,65.526452451,j,608.760030009,1,1,315,783
set_size_experiment_1,1,f,27,2,315,probe,0,36,115,31,25,norm,10,-90,-16.508078574,j,517.174959183,1,1,316,784
set_size_experiment_1,1,f,27,2,315,probe,1,36,115,13,12,norm,10,77,-16.508078574,i,573.383463547,1,1,316,785
set_size_experiment_1,1,f,27,2,316,prime,0,24,-165,19,-75,norm,15,-90,3.053779096,j,765.785534866,1,1,317,786
set_size_experiment_1,1,f,27,2,316,prime,1,24,-135,6,-75,norm,15,60,33.053779096,i,1492.50647891,1,1,317,787
set_size_experiment_1,1,f,27,2,316,prime,2,24,-179,1,-75,norm,15,-76,-10.946220904,i,472.915694118,1,1,317,788
set_size_experiment_1,1,f,27,2,317,probe,0,36,-5,25,-69,norm,10,-64,69.981692501,j,513.510340825,1,1,318,789
set_size_experiment_1,1,f,27,2,317,probe,1,36,-5,24,-98,norm,10,87,69.981692501,j,476.178389043,1,1,318,790
set_size_experiment_1,1,f,27,2,318,prime,0,24,132,13,207,uni,15,75,50.3333040294,j,753.020140342,1,1,319,791
set_size_experiment_1,1,f,27,2,318,prime,1,24,93,13,207,uni,15,-65.9999999996,11.333304029,j,574.87384975,1,1,319,792
set_size_experiment_1,1,f,27,2,318,prime,2,24,107,2,207,uni,15,-79.9999999996,25.333304029,j,533.276510425,1,1,319,793
set_size_experiment_1,1,f,27,2,318,prime,3,24,91,3,207,uni,15,-63.9999999996,9.333304029,j,511.507262476,1,1,319,794
set_size_experiment_1,1,f,27,2,319,probe,0,36,133,19,71,norm,10,-62.0000000003,-74.3940727361,i,519.919961691,1,1,320,795
set_size_experiment_1,1,f,27,2,319,probe,1,36,133,32,24,norm,10,70.9999999997,-74.3940727361,j,527.274197899,1,1,320,796
set_size_experiment_1,1,f,27,2,320,prime,0,8,-22,0,57,uni,15,79,-45.900134046,i,2377.59831268,1,1,321,797
set_size_experiment_1,1,f,27,2,320,prime,1,8,-10,1,57,uni,15,67,-33.900134046,i,786.586320959,1,1,321,798
set_size_experiment_1,1,f,27,2,320,prime,2,8,-45,7,57,uni,15,-78,-68.900134046,j,1496.58225104,1,1,321,799
set_size_experiment_1,1,f,27,2,321,probe,0,36,52,33,-58,norm,10,70,-4.405568945,i,630.828892812,1,1,322,800
set_size_experiment_1,1,f,27,2,321,probe,1,36,52,12,-26,norm,10,-78,-4.405568945,j,695.262404159,1,1,322,801
set_size_experiment_1,1,f,27,2,322,prime,0,24,-157,20,-72,uni,15,85,48.079954063,i,1020.55496164,1,1,323,802
set_size_experiment_1,1,f,27,2,322,prime,1,24,-178,19,-72,uni,15,-74,27.079954063,i,591.352324001,1,1,323,803
set_size_experiment_1,1,f,27,2,322,prime,2,24,-134,3,-72,uni,15,62,71.079954063,j,580.953085795,1,1,323,804
set_size_experiment_1,1,f,27,2,323,probe,0,36,-51,33,-149,norm,10,82,21.846253741,i,1598.03925175,1,1,324,805
set_size_experiment_1,1,f,27,2,323,probe,1,36,-51,15,-124,norm,10,-73,21.846253741,j,539.754207246,1,1,324,806
set_size_experiment_1,1,f,27,2,324,prime,0,24,-128,17,-42,norm,15,86,-4.39513130900002,j,1358.33714437,1,1,325,807
set_size_experiment_1,1,f,27,2,324,prime,1,24,-147,15,-42,norm,15,-75,-23.395131309,i,1172.96123225,1,1,325,808
set_size_experiment_1,1,f,27,2,324,prime,2,24,-119,6,-42,norm,15,77,4.60486869099998,i,688.408168033,1,1,325,809
set_size_experiment_1,1,f,27,2,325,probe,0,36,-42,27,-161,norm,10,61,-0.215932252999949,j,965.859919786,1,1,326,810
set_size_experiment_1,1,f,27,2,326,prime,0,8,10,7,72,norm,15,62,-8.96890374300003,i,1384.42716468,1,1,327,811
set_size_experiment_1,1,f,27,2,326,prime,1,8,-30,4,72,norm,15,-78,-48.968903743,i,808.054798283,0,1,327,812
set_size_experiment_1,1,f,27,2,326,prime,2,8,-15,7,72,norm,15,87,-33.968903743,j,655.191604048,1,0,327,813
set_size_experiment_1,1,f,27,2,326,prime,3,8,8,3,72,norm,15,64,-10.968903743,i,843.339825049,1,1,327,814
set_size_experiment_1,1,f,27,2,327,probe,0,36,144,27,56,norm,10,-87.9999999998,72.1864649748,i,502.809179015,1,1,328,815
set_size_experiment_1,1,f,27,2,327,probe,1,36,144,14,71,norm,10,-72.9999999998,72.1864649748,j,512.256878428,1,1,328,816
set_size_experiment_1,1,f,27,2,328,prime,0,14,102,1,200,norm,15,-81.9999999999,31.424258895,j,1379.7586998,0,1,329,817
set_size_experiment_1,1,f,27,2,328,prime,1,14,87,10,200,norm,15,-66.9999999999,16.424258895,j,1440.28643891,1,0,329,818
set_size_experiment_1,1,f,27,2,328,prime,2,14,129,8,200,norm,15,71,58.4242588951,i,1313.05903289,1,1,329,819
set_size_experiment_1,1,f,27,2,329,probe,0,36,275,4,165,norm,10,70,74.5305289893,j,521.448808722,1,1,330,820
set_size_experiment_1,1,f,27,2,330,prime,0,24,72,2,136,uni,15,64,87.3535524746,i,654.667757452,1,1,331,821
set_size_experiment_1,1,f,27,2,330,prime,1,24,69,5,136,uni,15,67,84.3535524746,i,935.322204605,1,1,331,822
set_size_experiment_1,1,f,27,2,330,prime,2,24,63,17,136,uni,15,73,78.3535524746,j,1776.13438945,1,1,331,823
set_size_experiment_1,1,f,27,2,331,probe,0,36,87,2,20,norm,10,-67,-48.974897531,i,516.828804277,1,1,332,824
set_size_experiment_1,1,f,27,2,331,probe,1,36,87,31,-7,norm,10,86,-48.974897531,j,604.216564447,1,1,332,825
set_size_experiment_1,1,f,27,2,332,prime,0,8,-175,6,-107,uni,15,68,11.734358911,j,733.182048425,1,1,333,826
set_size_experiment_1,1,f,27,2,332,prime,1,8,-176,2,-107,uni,15,69,10.734358911,i,511.44726295,1,1,333,827
set_size_experiment_1,1,f,27,2,332,prime,2,8,-188,2,-107,uni,15,81,-1.26564108899998,i,521.96842432,1,1,333,828
set_size_experiment_1,1,f,27,2,333,probe,0,36,-182,13,-250,norm,10,-68,-75.155685714,j,466.896073893,1,1,334,829
set_size_experiment_1,1,f,27,2,334,prime,0,14,-124,1,-25,uni,15,-81,-53.530808526,j,1135.8296657,0,1,335,830
set_size_experiment_1,1,f,27,2,334,prime,1,14,-108,2,-25,uni,15,83,-37.530808526,i,542.622285895,1,0,335,831
set_size_experiment_1,1,f,27,2,334,prime,2,14,-104,1,-25,uni,15,79,-33.530808526,j,582.24193193,1,1,335,832
set_size_experiment_1,1,f,27,2,334,prime,3,14,-100,6,-25,uni,15,75,-29.530808526,i,495.001096278,1,1,335,833
set_size_experiment_1,1,f,27,2,335,probe,0,36,1,23,-69,norm,10,-70,25.199458431,j,488.74647636,1,1,336,834
set_size_experiment_1,1,f,27,2,335,probe,1,36,1,20,-79,norm,10,-80,25.199458431,j,499.253791757,0,1,336,835
set_size_experiment_1,1,f,27,2,336,prime,0,24,-61,11,4,uni,15,65,18.106416006,j,864.904842339,1,0,337,836
set_size_experiment_1,1,f,27,2,336,prime,1,24,-64,2,4,uni,15,68,15.106416006,j,586.757319979,1,1,337,837
set_size_experiment_1,1,f,27,2,336,prime,2,24,-96,9,4,uni,15,-80,-16.893583994,i,576.352696866,1,1,337,838
set_size_experiment_1,1,f,27,2,336,prime,3,24,-110,22,4,uni,15,-66,-30.893583994,i,940.378361382,1,1,337,839
set_size_experiment_1,1,f,27,2,337,probe,0,36,62,31,-46,norm,10,72,57.974191142,j,577.847313136,1,1,338,840
set_size_experiment_1,1,f,27,2,338,prime,0,14,120,10,191,uni,15,70.9999999997,-13.490201645,j,927.290659398,1,1,339,841
set_size_experiment_1,1,f,27,2,338,prime,1,14,91,13,191,uni,15,-80.0000000003,-42.490201645,j,785.276704468,1,1,339,842
set_size_experiment_1,1,f,27,2,338,prime,2,14,99,8,191,uni,15,-88.0000000003,-34.490201645,j,793.35209541,1,1,339,843
set_size_experiment_1,1,f,27,2,339,probe,0,36,187,34,91,norm,10,84.0000000005,-3.98782019019998,j,518.341113813,1,1,340,844
set_size_experiment_1,1,f,27,2,339,probe,1,36,187,34,74,norm,10,67.0000000005,-3.98782019019998,j,479.948392138,1,1,340,845
set_size_experiment_1,1,f,27,2,340,prime,0,36,17,22,130,norm,15,-67.0000000003,-57.334651235,i,1130.09850774,1,1,341,846
set_size_experiment_1,1,f,27,2,340,prime,1,36,45,6,130,norm,15,84.9999999997,-29.334651235,i,552.997294813,1,1,341,847
set_size_experiment_1,1,f,27,2,340,prime,2,36,51,19,130,norm,15,78.9999999997,-23.334651235,j,871.270615608,1,1,341,848
set_size_experiment_1,1,f,27,2,340,prime,3,36,31,22,130,norm,15,-81.0000000003,-43.334651235,i,591.001554392,1,1,341,849
set_size_experiment_1,1,f,27,2,341,probe,0,36,172,31,103,norm,10,-68.9999999999,41.9307849542,i,531.701124273,1,1,342,850
set_size_experiment_1,1,f,27,2,341,probe,1,36,172,6,97,norm,10,-74.9999999999,41.9307849542,i,508.904953487,1,1,342,851
set_size_experiment_1,1,f,27,2,342,prime,0,8,1,2,111,uni,15,-70,84.367728145,j,612.995416857,1,1,343,852
set_size_experiment_1,1,f,27,2,342,prime,1,8,13,4,111,uni,15,-82,-83.632271855,i,1397.14140538,1,1,343,853
set_size_experiment_1,1,f,27,2,342,prime,2,8,3,0,111,uni,15,-72,86.367728145,i,571.12346217,1,1,343,854
set_size_experiment_1,1,f,27,2,342,prime,3,8,41,7,111,uni,15,70,-55.632271855,i,1778.59592903,1,1,343,855
set_size_experiment_1,1,f,27,2,343,probe,0,36,140,25,37,norm,10,77,28.668422393,i,691.927785985,1,1,344,856
set_size_experiment_1,1,f,27,2,344,prime,0,14,105,4,165,uni,15,60.0000000003,68.34972029,j,1283.57170243,1,1,345,857
set_size_experiment_1,1,f,27,2,344,prime,1,14,91,11,165,uni,15,74.0000000003,54.34972029,i,526.355735026,1,1,345,858
set_size_experiment_1,1,f,27,2,344,prime,2,14,89,0,165,uni,15,76.0000000003,52.34972029,i,769.792461768,0,1,345,859
set_size_experiment_1,1,f,27,2,345,probe,0,36,217,17,148,norm,10,-68.99999999996,51.94994042346,i,460.978762247,1,0,346,860
set_size_experiment_1,1,f,27,2,345,probe,1,36,217,20,108,norm,10,71.00000000024,51.94994042346,i,489.230322652,1,1,346,861
set_size_experiment_1,1,f,27,2,346,prime,0,24,-111,12,8,uni,15,-61,-38.637057938,i,1716.58857353,1,1,347,862
set_size_experiment_1,1,f,27,2,346,prime,1,24,-104,17,8,uni,15,-68,-31.637057938,j,806.844027713,1,1,347,863
set_size_experiment_1,1,f,27,2,346,prime,2,24,-106,12,8,uni,15,-66,-33.637057938,i,548.591906205,1,1,347,864
set_size_experiment_1,1,f,27,2,347,probe,0,36,40,26,-69,norm,10,71,31.533216695,i,508.070337586,1,1,348,865
set_size_experiment_1,1,f,27,2,347,probe,1,36,40,2,-73,norm,10,67,31.533216695,i,517.535343766,1,1,348,866
set_size_experiment_1,1,f,27,2,348,prime,0,14,40,9,103,norm,15,63,-67.472583119,j,589.371168055,1,1,349,867
set_size_experiment_1,1,f,27,2,348,prime,1,14,-12,8,103,norm,15,-65,60.527416881,i,594.575403258,1,1,349,868
set_size_experiment_1,1,f,27,2,348,prime,2,14,17,3,103,norm,15,86,89.527416881,i,615.401188843,0,1,349,869
set_size_experiment_1,1,f,27,2,349,probe,0,36,154,0,40,norm,10,66.0000000005,51.8546052075,j,520.01803834,1,0,350,870
set_size_experiment_1,1,f,27,2,349,probe,1,36,154,9,79,norm,10,-74.9999999995,51.8546052075,j,512.812263332,1,1,350,871
set_size_experiment_1,1,f,27,2,350,prime,0,8,-135,7,-32,uni,15,-77,-33.998110417,i,1662.19391674,1,1,351,872
set_size_experiment_1,1,f,27,2,350,prime,1,8,-100,5,-32,uni,15,68,1.00188958299998,j,1037.49266732,1,1,351,873
set_size_experiment_1,1,f,27,2,350,prime,2,8,-100,4,-32,uni,15,68,1.00188958299998,j,623.876579106,1,1,351,874
set_size_experiment_1,1,f,27,2,350,prime,3,8,-149,2,-32,uni,15,-63,-47.998110417,j,1297.76056018,1,1,351,875
set_size_experiment_1,1,f,27,2,351,probe,0,36,24,11,-47,norm,10,-71,55.592478918,i,507.252643816,1,1,352,876
set_size_experiment_1,1,f,27,2,351,probe,1,36,24,35,-42,norm,10,-66,55.592478918,i,516.7053435,1,1,352,877
set_size_experiment_1,1,f,27,2,352,prime,0,36,8,6,109,norm,15,-79,50.294383296,i,821.483654901,1,1,353,878
set_size_experiment_1,1,f,27,2,352,prime,1,36,31,1,109,norm,15,78,73.294383296,j,560.009608045,1,1,353,879
set_size_experiment_1,1,f,27,2,352,prime,2,36,2,23,109,norm,15,-73,44.294383296,j,472.72454109,1,1,353,880
set_size_experiment_1,1,f,27,2,353,probe,0,36,192,11,114,norm,10,-78.0000000002,83.2132716122,i,451.987216249,1,1,354,881
set_size_experiment_1,1,f,27,2,353,probe,1,36,192,24,104,norm,10,-88.0000000002,83.2132716122,i,495.869173668,1,1,354,882
set_size_experiment_1,1,f,27,2,354,prime,0,8,14,7,115,uni,15,-79,89.856771201,j,1022.27419429,1,1,355,883
set_size_experiment_1,1,f,27,2,354,prime,1,8,24,1,115,uni,15,-89,-80.143228799,i,578.583853319,1,1,355,884
set_size_experiment_1,1,f,27,2,354,prime,2,8,21,3,115,uni,15,-86,-83.143228799,i,662.868916988,1,1,355,885
set_size_experiment_1,1,f,27,2,355,probe,0,36,191,20,78,norm,10,67.0000000002,76.0336937288,i,989.243783988,1,1,356,886
set_size_experiment_1,1,f,27,2,355,probe,1,36,191,6,93,norm,10,82.0000000002,76.0336937288,i,452.924525365,1,1,356,887
set_size_experiment_1,1,f,27,2,356,prime,0,14,-92,13,-20,norm,15,72,-5.07765712700001,i,2229.48973812,1,1,357,888
set_size_experiment_1,1,f,27,2,356,prime,1,14,-82,8,-20,norm,15,62,4.92234287299999,j,1255.47514297,1,1,357,889
set_size_experiment_1,1,f,27,2,356,prime,2,14,-102,12,-20,norm,15,82,-15.077657127,i,812.443263829,1,1,357,890
set_size_experiment_1,1,f,27,2,356,prime,3,14,-110,1,-20,norm,15,-90,-23.077657127,j,897.330251522,1,1,357,891
set_size_experiment_1,1,f,27,2,357,probe,0,36,-73,10,-160,norm,10,-87,-53.588001223,i,491.183016449,1,1,358,892
set_size_experiment_1,1,f,27,2,357,probe,1,36,-73,16,-144,norm,10,-71,-53.588001223,i,657.756605186,1,1,358,893
set_size_experiment_1,1,f,27,2,358,prime,0,14,-241,5,-124,norm,15,-63,83.065877579,i,627.449659631,0,1,359,894
set_size_experiment_1,1,f,27,2,358,prime,1,14,-190,1,-124,norm,15,66,-45.934122421,j,595.564249903,1,0,359,895
set_size_experiment_1,1,f,27,2,358,prime,2,14,-198,1,-124,norm,15,74,-53.934122421,j,663.210839964,1,1,359,896
set_size_experiment_1,1,f,27,2,358,prime,3,14,-217,7,-124,norm,15,-87,-72.934122421,j,976.170697249,1,1,359,897
set_size_experiment_1,1,f,27,2,359,probe,0,36,-63,0,-149,norm,10,-86,61.32579485,i,517.859959975,1,1,360,898
set_size_experiment_1,1,f,27,2,359,probe,1,36,-63,17,-164,norm,10,79,61.32579485,i,448.273751885,1,1,360,899
set_size_experiment_1,1,f,27,2,360,prime,0,14,-77,5,6,norm,15,83,87.036591101,i,478.660314344,1,1,361,900
set_size_experiment_1,1,f,27,2,360,prime,1,14,-57,11,6,norm,15,63,-72.963408899,i,474.629541859,1,1,361,901
set_size_experiment_1,1,f,27,2,360,prime,2,14,-92,10,6,norm,15,-82,72.036591101,i,503.000332974,1,1,361,902
set_size_experiment_1,1,f,27,2,361,probe,0,36,-13,31,-111,norm,10,82,-19.26236458,i,558.102298528,1,1,362,903
set_size_experiment_1,1,f,27,2,362,prime,0,24,-124,23,-52,norm,15,72,-12.860507655,j,938.785283826,1,1,363,904
set_size_experiment_1,1,f,27,2,362,prime,1,24,-133,1,-52,norm,15,81,-21.860507655,i,625.177734531,1,1,363,905
