trial_id,Subject,block_n,Trial,numDistractors,correctResponse,keyResponse,acc,RT
1,1,1,1,4,0,0,1,1820
2,1,1,2,4,1,1,1,1026
3,1,1,3,31,1,1,1,892
4,1,1,4,9,0,0,1,563
5,1,1,5,1,0,0,1,719
6,1,1,6,4,1,1,1,617
7,1,1,7,31,0,0,1,956
8,1,1,8,9,1,1,1,600
9,1,1,9,1,1,1,1,725
10,1,1,10,4,1,1,1,740
11,1,1,11,19,1,1,1,679
12,1,1,12,9,1,1,1,910
13,1,1,13,31,1,1,1,860
14,1,1,14,9,0,0,1,696
15,1,1,15,1,1,1,1,532
16,1,1,16,1,0,0,1,558
17,1,1,17,19,0,0,1,549
18,1,1,18,4,1,1,1,703
19,1,1,19,4,1,1,1,592
20,1,1,20,19,0,0,1,544
21,1,1,21,9,0,0,1,524
22,1,1,22,1,0,0,1,600
23,1,1,23,0,1,1,1,585
24,1,1,24,4,0,0,1,800
25,1,1,25,4,1,1,1,651
26,1,1,26,19,1,1,1,826
27,1,1,27,31,1,1,1,652
28,1,1,28,19,0,0,1,947
29,1,1,29,9,0,0,1,720
30,1,1,30,0,1,1,1,764
31,1,1,31,9,1,1,1,674
32,1,1,32,4,0,0,1,674
33,1,1,33,1,1,1,1,687
34,1,1,34,19,1,1,1,1032
35,1,1,35,4,1,1,1,706
36,1,1,36,31,1,1,1,877
37,1,1,37,1,1,1,1,637
38,1,1,38,1,1,1,1,603
39,1,1,39,9,1,1,1,558
40,1,1,40,31,1,1,1,823
41,1,1,41,4,0,0,1,902
42,1,1,42,9,1,1,1,778
43,1,1,43,1,0,0,1,690
44,1,1,44,4,1,1,1,800
45,1,1,45,9,1,1,1,654
46,1,1,46,4,1,1,1,682
47,1,1,47,31,1,1,1,870
48,1,1,48,0,1,1,1,664
49,1,1,49,1,0,0,1,837
50,1,1,50,31,0,0,1,756
51,1,1,51,9,0,0,1,630
52,1,1,52,9,1,1,1,643
53,1,1,53,0,0,0,1,545
54,1,1,54,0,1,1,1,630
55,1,1,55,19,1,1,1,857
56,1,1,56,31,0,0,1,972
57,1,1,57,9,0,0,1,757
58,1,1,58,4,0,0,1,591
59,1,1,59,19,0,0,1,744
60,1,1,60,4,0,0,1,644
61,1,1,61,31,0,0,1,719
62,1,1,62,1,1,1,1,753
63,1,1,63,31,1,1,1,670
64,1,1,64,31,1,1,1,920
65,1,1,65,31,0,0,1,582
66,1,1,66,9,1,1,1,759
67,1,1,67,1,0,0,1,545
68,1,1,68,9,1,1,1,835
69,1,1,69,4,1,1,1,650
70,1,1,70,19,0,0,1,868
71,1,1,71,19,1,1,1,641
72,1,1,72,4,0,0,1,866
73,1,1,73,19,0,0,1,874
74,1,1,74,1,1,1,1,671
75,1,1,75,1,1,1,1,631
76,1,1,76,19,1,1,1,584
77,1,1,77,19,0,0,1,767
78,1,1,78,31,1,1,1,896
79,1,1,79,19,1,1,1,1045
80,1,1,80,9,0,0,1,749
81,1,1,81,1,0,0,1,610
82,1,1,82,31,0,0,1,924
83,1,1,83,4,0,0,1,554
84,1,1,84,31,0,0,1,612
85,1,1,85,4,0,0,1,721
86,1,1,86,9,1,1,1,659
87,1,1,87,9,1,1,1,743
88,1,1,88,1,0,0,1,587
89,1,1,89,4,1,1,1,860
90,1,1,90,4,0,0,1,621
91,1,1,91,4,0,0,1,609
92,1,1,92,9,0,0,1,526
93,1,1,93,1,0,0,1,666
94,1,1,94,19,1,1,1,973
95,1,1,95,4,1,1,1,643
96,1,1,96,9,1,1,1,652
97,1,1,97,1,0,0,1,648
98,1,1,98,4,0,0,1,685
99,1,1,99,1,0,0,1,665
100,1,1,100,1,1,1,1,760
101,1,1,101,19,0,0,1,531
102,1,1,102,0,1,1,1,565
103,1,1,103,4,0,0,1,718
104,1,1,104,1,0,0,1,735
105,1,1,105,4,1,1,1,646
106,1,1,106,0,1,1,1,628
107,1,1,107,1,0,0,1,600
108,1,1,108,9,1,1,1,750
109,1,1,109,19,1,1,1,788
110,1,1,110,1,0,0,1,699
111,1,1,111,1,0,0,1,560
112,1,1,112,1,1,1,1,573
113,1,1,113,4,0,0,1,448
114,1,1,114,4,1,1,1,847
115,1,1,115,9,1,1,1,616
116,1,1,116,19,0,0,1,549
117,1,1,117,31,1,1,1,654
118,1,1,118,1,1,1,1,600
119,1,1,119,31,1,1,1,646
120,1,1,120,4,0,0,1,564
121,1,1,121,1,1,1,1,626
122,1,1,122,1,1,1,1,999
123,1,1,123,1,1,1,1,408
124,1,1,124,9,1,1,1,683
125,1,1,125,31,1,1,1,839
126,1,1,126,31,0,0,1,634
127,1,1,127,19,0,0,1,728
128,1,1,128,31,1,1,1,689
129,1,1,129,9,1,1,1,650
130,1,1,130,19,1,1,1,625
131,1,1,131,19,0,0,1,931
132,1,1,132,31,0,0,1,571
133,1,1,133,1,0,0,1,843
134,1,1,134,31,0,0,1,691
135,1,1,135,1,0,0,1,644
136,1,1,136,4,0,0,1,776
137,1,1,137,31,0,0,1,731
138,1,1,138,4,1,1,1,905
139,1,1,139,31,0,0,1,703
140,1,1,140,0,0,0,1,498
141,1,1,141,4,1,1,1,537
142,1,1,142,4,1,1,1,630
143,1,1,143,4,1,1,1,572
144,1,1,144,31,0,0,1,834
145,1,1,145,19,0,0,1,858
146,1,1,146,9,0,0,1,717
147,1,1,147,1,0,0,1,593
148,1,1,148,19,0,0,1,597
149,1,1,149,4,1,1,1,509
150,1,1,150,19,1,1,1,886
151,1,1,151,9,0,0,1,657
152,1,1,152,0,0,0,1,459
153,1,1,153,1,1,1,1,513
154,1,1,154,1,1,1,1,482
155,1,1,155,31,0,0,1,539
156,1,1,156,0,1,1,1,477
157,1,1,157,31,1,1,1,610
158,1,1,158,9,0,0,1,547
159,1,1,159,0,1,1,1,530
160,1,1,160,4,1,1,1,476
161,1,1,161,19,1,1,1,541
162,1,1,162,31,0,0,1,798
163,1,1,163,19,1,1,1,573
164,1,1,164,4,1,1,1,627
165,1,1,165,0,0,0,1,553
166,1,1,166,1,1,1,1,439
167,1,1,167,1,0,0,1,646
168,1,1,168,31,0,0,1,644
169,1,1,169,9,0,0,1,625
170,1,1,170,0,1,1,1,609
171,1,1,171,4,0,0,1,576
172,1,1,172,31,1,1,1,1087
173,1,1,173,1,0,0,1,635
174,1,1,174,19,0,0,1,672
175,1,1,175,31,1,1,1,555
176,1,1,176,31,0,0,1,615
177,1,1,177,19,1,1,1,720
178,1,1,178,1,1,1,1,656
179,1,1,179,9,0,0,1,772
180,1,1,180,9,0,0,1,811
181,1,1,181,31,1,1,1,632
182,1,1,182,9,0,0,1,596
183,1,1,183,31,0,0,1,809
184,1,1,184,31,1,1,1,659
185,1,1,185,19,1,1,1,539
186,1,1,186,9,1,1,1,674
187,1,1,187,4,0,0,1,795
188,1,1,188,9,1,1,1,603
189,1,1,189,31,1,1,1,838
190,1,1,190,9,1,1,1,655
191,1,1,191,9,1,1,1,522
192,1,1,192,31,1,1,1,629
193,1,1,193,1,1,1,1,1056
194,1,1,194,4,1,1,1,748
195,1,1,195,19,1,1,1,702
196,1,1,196,9,1,1,1,498
197,1,1,197,0,1,1,1,509
198,1,1,198,9,1,1,1,631
199,1,1,199,0,0,0,1,994
200,1,1,200,4,1,1,1,517
201,1,1,201,19,0,0,1,634
202,1,1,202,31,0,0,1,675
203,1,1,203,4,1,1,1,543
204,1,1,204,9,1,1,1,472
205,1,1,205,19,1,1,1,483
206,1,1,206,31,0,0,1,529
207,1,1,207,19,1,1,1,508
208,1,1,208,19,0,0,1,515
209,1,1,209,1,0,0,1,587
210,1,1,210,9,0,0,1,547
211,1,1,211,9,1,1,1,522
212,1,1,212,19,0,0,1,810
213,1,1,213,4,1,1,1,557
214,1,1,214,4,0,0,1,492
215,1,1,215,1,1,1,1,645
216,1,1,216,4,1,1,1,518
217,1,1,217,1,1,1,1,634
218,1,1,218,9,0,0,1,579
219,1,1,219,31,0,0,1,623
220,1,1,220,9,1,1,1,930
221,1,1,221,9,1,1,1,560
222,1,1,222,1,1,1,1,600
223,1,1,223,1,1,1,1,531
224,1,1,224,19,0,0,1,592
225,1,1,225,4,1,1,1,877
226,1,1,226,9,1,1,1,563
227,1,1,227,4,1,1,1,577
228,1,1,228,1,0,0,1,644
229,1,1,229,0,1,1,1,587
230,1,1,230,0,1,1,1,551
231,1,1,231,1,1,1,1,633
232,1,1,232,31,0,0,1,539
233,1,1,233,9,0,0,1,617
234,1,1,234,1,0,0,1,537
235,1,1,235,31,0,0,1,564
236,1,1,236,9,0,0,1,534
237,1,1,237,9,0,0,1,549
238,1,1,238,31,1,1,1,748
239,1,1,239,1,1,1,1,591
240,1,1,240,31,1,1,1,575
241,1,1,241,31,0,0,1,508
242,1,1,242,4,1,1,1,771
243,1,1,243,1,1,1,1,529
244,1,1,244,19,0,0,1,814
245,1,1,245,4,0,0,1,628
246,1,1,246,1,1,1,1,477
247,1,1,247,9,1,1,1,754
248,1,1,248,1,1,1,1,556
249,1,1,249,19,1,1,1,557
250,1,1,250,4,0,0,1,606
251,1,1,251,1,1,1,1,585
252,1,1,252,19,0,0,0,440
253,1,1,253,9,1,1,1,585
254,1,1,254,9,0,0,1,590
255,1,1,255,1,0,0,1,547
256,1,1,256,1,1,1,1,874
257,1,1,257,1,1,1,1,531
258,1,1,258,31,0,0,1,575
259,1,1,259,1,0,0,1,592
260,1,1,260,19,1,1,1,813
261,1,1,261,9,0,0,1,536
262,1,1,262,31,1,1,1,714
263,1,1,263,31,0,0,1,530
264,1,1,264,4,1,1,1,890
265,1,1,265,9,1,1,1,983
266,1,1,266,4,0,0,1,492
267,1,1,267,31,1,1,1,678
268,1,1,268,1,0,0,1,564
269,1,1,269,31,1,1,1,614
270,1,1,270,19,0,0,1,635
271,1,1,271,4,0,0,1,515
272,1,1,272,19,1,1,1,576
273,1,1,273,1,1,1,1,519
274,1,1,274,19,1,1,1,999
275,1,1,275,0,0,0,1,560
276,1,1,276,19,1,1,1,539
277,1,1,277,9,1,1,1,574
278,1,1,278,4,0,0,1,541
279,1,1,279,9,0,0,1,576
280,1,1,280,4,1,1,1,721
281,1,1,281,4,1,1,1,584
282,1,1,282,0,0,0,1,543
283,1,1,283,19,1,1,1,504
284,1,1,284,31,0,0,1,1074
285,1,1,285,4,0,0,1,529
286,1,1,286,9,0,0,1,510
287,1,1,287,4,0,0,1,458
288,1,1,288,19,0,0,1,583
289,1,1,289,19,0,0,1,631
290,1,1,290,31,1,1,1,624
291,1,1,291,9,0,0,1,582
292,1,1,292,1,1,1,1,486
293,1,1,293,4,1,1,1,1160
294,1,1,294,1,1,1,1,594
295,1,1,295,19,1,1,1,619
296,1,1,296,19,0,0,1,510
297,1,1,297,31,0,0,1,713
298,1,1,298,0,1,1,1,559
299,1,1,299,19,1,1,1,908
300,1,1,300,9,0,0,1,711
301,1,1,301,1,0,0,1,617
302,1,1,302,19,1,1,1,876
303,1,1,303,19,0,0,1,554
304,1,1,304,31,0,0,1,598
305,1,1,305,4,0,0,1,783
306,1,1,306,19,1,1,1,724
307,1,1,307,31,1,1,1,547
308,1,1,308,4,0,0,1,694
309,1,1,309,19,1,1,1,601
310,1,1,310,4,1,1,1,568
311,1,1,311,1,0,0,1,779
312,1,1,312,4,0,0,1,511
313,1,1,313,31,1,1,1,508
314,1,1,314,9,0,0,1,530
315,1,1,315,9,1,1,1,735
316,1,1,316,1,0,0,1,505
317,1,1,317,31,0,0,1,490
318,1,1,318,19,0,0,1,635
319,1,1,319,19,1,1,1,518
320,1,1,320,31,1,1,1,623
321,1,1,321,4,1,1,1,546
322,1,1,322,31,0,0,1,602
323,1,1,323,1,1,1,1,624
324,1,1,324,4,0,0,1,455
325,1,1,325,4,0,0,1,514
326,1,1,326,1,0,0,1,438
327,1,1,327,4,0,0,1,493
328,1,1,328,1,1,1,1,686
329,1,1,329,31,1,1,1,670
330,1,1,330,31,1,1,1,520
331,1,1,331,19,1,1,1,566
332,1,1,332,1,0,0,1,529
333,1,1,333,31,0,0,1,674
334,1,1,334,4,0,0,1,538
335,1,1,335,19,1,1,1,593
336,1,1,336,19,0,0,1,624
337,1,1,337,1,1,1,1,574
338,1,1,338,4,0,0,1,551
339,1,1,339,9,0,0,1,706
340,1,1,340,31,1,1,1,587
341,1,1,341,1,0,0,1,467
342,1,1,342,31,0,0,1,521
343,1,1,343,4,1,1,1,1054
344,1,1,344,9,1,1,1,701
345,1,1,345,19,1,1,1,561
346,1,1,346,4,0,0,1,510
347,1,1,347,19,0,0,1,642
348,1,1,348,1,0,0,1,489
349,1,1,349,1,1,1,1,546
350,1,1,350,19,0,0,1,551
351,1,1,351,0,0,0,1,794
352,1,1,352,9,1,1,1,530
353,1,1,353,1,0,0,1,619
354,1,1,354,19,0,0,1,783
355,1,1,355,0,0,0,1,544
356,1,1,356,9,0,0,1,449
357,1,1,357,31,1,1,1,595
358,1,1,358,1,0,0,1,645
359,1,1,359,1,1,1,1,552
360,1,1,360,31,1,1,1,509
361,1,1,361,19,1,1,1,417
362,1,1,362,1,0,0,1,511
363,1,1,363,0,0,0,1,483
364,1,1,364,4,0,0,1,800
365,1,1,365,1,0,0,1,518
366,1,1,366,9,1,1,1,549
367,1,1,367,31,1,1,1,619
368,1,1,368,1,1,1,1,491
369,1,1,369,1,1,1,1,516
370,1,1,370,9,1,1,1,607
371,1,1,371,31,0,0,1,930
372,1,1,372,19,0,0,1,616
373,1,1,373,1,0,0,1,598
374,1,1,374,9,1,1,1,592
375,1,1,375,4,0,0,1,489
376,1,1,376,4,0,0,1,461
377,1,1,377,19,0,0,1,855
378,1,1,378,0,0,0,1,501
379,1,1,379,31,0,0,1,903
380,1,1,380,9,0,0,1,562
381,1,1,381,9,0,0,1,586
382,1,1,382,31,1,1,1,555
383,1,1,383,1,1,1,1,463
384,1,1,384,9,0,0,1,796
385,1,1,385,19,1,1,1,557
386,1,1,386,9,0,0,1,730
387,1,1,387,31,1,1,1,695
388,1,1,388,1,0,0,1,487
389,1,1,389,9,1,1,1,597
390,1,1,390,4,1,1,1,508
391,1,1,391,19,0,0,1,568
392,1,1,392,1,0,0,1,527
393,1,1,393,31,0,0,1,848
394,1,1,394,4,0,0,1,519
395,1,1,395,19,0,0,1,482
396,1,1,396,0,1,1,1,557
397,1,1,397,1,1,1,1,555
398,1,1,398,31,0,0,1,619
399,1,1,399,9,0,0,1,533
400,1,1,400,0,1,1,1,561
401,1,1,401,19,1,1,1,511
402,1,1,402,31,0,0,1,663
403,1,1,403,19,0,0,1,535
404,1,1,404,31,1,1,1,886
405,1,1,405,9,1,1,1,598
406,1,1,406,1,1,1,1,564
407,1,1,407,9,1,1,1,493
408,1,1,408,1,0,0,1,428
409,1,1,409,19,0,0,1,539
410,1,1,410,31,0,0,1,912
411,1,1,411,9,1,1,1,540
412,1,1,412,4,1,1,1,535
413,1,1,413,9,0,0,1,569
414,1,1,414,9,0,0,1,418
415,1,1,415,19,0,0,1,651
416,1,1,416,1,0,0,1,504
417,1,1,417,1,1,1,1,475
418,1,1,418,19,1,1,1,623
419,1,1,419,4,1,1,1,559
420,1,1,420,31,0,0,1,861
421,1,1,421,31,0,0,1,563
422,1,1,422,1,0,0,0,555
423,1,1,423,1,0,0,1,550
424,1,1,424,4,0,0,1,632
425,1,1,425,1,1,1,1,525
426,1,1,426,19,1,1,1,652
427,1,1,427,19,0,0,1,653
428,1,1,428,4,1,1,1,745
429,1,1,429,4,1,1,1,1038
430,1,1,430,9,0,0,1,499
431,1,1,431,4,0,0,1,639
432,1,1,432,9,0,0,1,498
433,1,1,433,1,1,1,1,738
434,1,1,434,31,1,1,1,1131
435,1,1,435,31,0,0,1,730
436,1,1,436,4,1,1,1,641
437,1,1,437,4,0,0,1,693
438,1,1,438,9,0,0,1,518
439,1,1,439,4,1,1,1,592
440,1,1,440,9,0,0,1,629
441,1,1,441,31,0,0,1,556
442,1,1,442,1,1,1,1,691
443,1,1,443,1,0,0,1,611
444,1,1,444,31,1,1,1,774
445,1,1,445,19,1,1,1,539
446,1,1,446,31,1,1,1,573
447,1,1,447,4,0,0,1,516
448,1,1,448,4,1,1,1,651
449,1,1,449,1,1,1,1,507
450,1,1,450,19,0,0,1,480
451,1,1,451,9,0,0,1,1193
452,1,1,452,31,0,0,1,476
453,1,1,453,19,1,1,1,932
454,1,1,454,0,1,1,1,502
455,1,1,455,31,1,1,1,663
456,1,1,456,4,0,0,1,514
457,1,1,457,9,1,1,1,614
458,1,1,458,0,0,0,1,532
459,1,1,459,0,1,1,1,616
460,1,1,460,9,1,1,1,473
461,1,1,461,0,0,0,1,475
462,1,1,462,9,0,0,1,557
463,1,1,463,31,0,0,1,569
464,1,1,464,1,1,1,1,482
465,1,1,465,1,1,1,1,502
466,1,1,466,9,1,1,1,611
467,1,1,467,1,1,1,1,722
468,1,1,468,9,0,0,1,520
469,1,1,469,9,0,0,1,916
470,1,1,470,9,1,1,1,873
471,1,1,471,4,0,0,1,628
472,1,1,472,19,0,0,1,714
473,1,1,473,4,0,0,1,487
474,1,1,474,31,0,0,1,566
475,1,1,475,31,1,1,1,753
476,1,1,476,31,1,1,1,632
477,1,1,477,9,0,0,1,606
478,1,1,478,9,0,0,1,437
479,1,1,479,4,1,1,1,757
480,1,1,480,31,0,0,1,597
481,1,1,481,1,1,1,1,598
482,1,1,482,19,1,1,1,580
483,1,1,483,1,0,0,1,563
484,1,1,484,31,1,1,1,541
485,1,1,485,19,0,0,1,541
486,1,1,486,9,0,0,1,655
487,1,1,487,31,1,1,1,626
488,1,1,488,31,0,0,1,580
489,1,1,489,1,1,1,1,592
490,1,1,490,4,1,1,1,500
491,1,1,491,31,0,0,1,705
492,1,1,492,4,0,0,1,608
493,1,1,493,4,0,0,1,512
494,1,1,494,9,1,1,1,545
495,1,1,495,1,0,0,1,641
496,1,1,496,31,0,0,1,484
497,1,1,497,19,0,0,1,651
498,1,1,498,9,0,0,1,777
499,1,1,499,4,1,1,1,568
500,1,1,500,31,1,1,1,523
501,1,1,501,9,1,1,1,738
502,1,1,502,31,1,1,1,616
503,1,1,503,9,1,1,1,533
504,1,1,504,4,1,1,1,532
505,1,1,505,19,0,0,1,792
506,1,1,506,9,1,1,1,538
507,1,1,507,19,1,1,1,543
508,1,1,508,19,1,1,1,549
509,1,1,509,31,1,1,1,711
510,1,1,510,4,1,1,1,495
511,1,1,511,31,0,0,1,793
512,1,1,512,4,0,0,1,605
513,1,1,513,19,1,1,1,686
514,1,1,514,1,0,0,1,579
515,1,1,515,4,1,1,1,447
516,1,1,516,1,0,0,1,552
517,1,1,517,31,1,1,1,781
518,1,1,518,4,1,1,1,582
519,1,1,519,9,0,0,1,581
520,1,1,520,31,0,0,1,849
521,1,1,521,1,0,0,1,535
522,1,1,522,9,0,0,1,776
523,1,1,523,9,0,0,1,751
524,1,1,524,4,1,1,1,446
525,1,1,525,19,1,1,1,548
526,1,1,526,4,0,0,1,606
527,1,1,527,1,1,1,1,654
528,1,1,528,0,1,1,1,695
529,1,1,529,9,0,0,1,632
530,1,1,530,4,0,0,1,574
531,1,1,531,4,1,1,1,503
532,1,1,532,19,0,0,1,573
533,1,1,533,19,0,0,1,528
534,1,1,534,19,1,1,1,557
535,1,1,535,4,1,1,1,662
536,1,1,536,1,0,0,1,636
537,1,1,537,19,0,0,1,563
538,1,1,538,4,0,0,1,624
539,1,1,539,0,1,1,1,437
540,1,1,540,1,0,0,1,706
541,1,1,541,1,0,0,1,476
542,1,1,542,31,0,0,1,922
543,1,1,543,1,0,0,1,463
544,1,1,544,9,1,1,1,534
545,1,1,545,31,0,0,1,486
546,1,1,546,9,1,1,1,676
547,1,1,547,4,0,0,1,401
548,1,1,548,19,1,1,1,482
549,1,1,549,19,0,0,1,496
550,1,1,550,9,0,0,1,446
551,1,1,551,31,1,1,1,715
552,1,1,552,9,0,0,1,713
553,1,1,553,31,0,0,1,440
554,1,1,554,19,0,0,1,466
555,1,1,555,4,0,0,1,495
556,1,1,556,31,0,0,1,1119
557,1,1,557,4,1,1,1,618
558,1,1,558,19,1,1,1,876
559,1,1,559,1,1,1,1,679
560,1,1,560,31,0,0,1,606
561,1,1,561,9,1,1,1,542
562,1,1,562,19,1,1,1,578
563,1,1,563,19,0,0,1,531
564,1,1,564,31,0,0,1,637
565,1,1,565,9,1,1,1,613
566,1,1,566,9,1,1,1,727
567,1,1,567,19,0,0,1,1047
568,1,1,568,0,0,0,1,513
569,1,1,569,1,1,1,1,768
570,1,1,570,1,0,0,1,566
571,1,1,571,1,0,0,1,1145
572,1,1,572,4,0,0,1,534
573,1,1,573,9,0,0,1,547
574,1,1,574,19,1,1,1,918
575,1,1,575,31,0,0,1,555
576,1,1,576,0,0,0,1,503
577,1,1,577,9,1,1,1,617
578,1,1,578,4,0,0,1,445
579,1,1,579,19,1,1,1,545
580,1,1,580,31,0,0,1,436
581,1,1,581,0,0,0,1,533
582,1,1,582,31,1,1,1,546
583,1,1,583,31,1,1,1,507
584,1,1,584,1,1,1,1,524
585,1,1,585,19,0,0,1,636
586,1,1,586,9,1,1,1,544
587,1,1,587,31,1,1,1,590
588,1,1,588,4,0,0,1,551
589,1,1,589,19,1,1,1,518
590,1,1,590,1,1,1,1,552
591,1,1,591,4,0,0,1,818
592,1,1,592,9,0,0,1,579
593,1,1,593,19,1,1,1,1068
594,1,1,594,0,0,0,1,574
595,1,1,595,4,0,0,1,629
596,1,1,596,1,1,1,1,518
597,1,1,597,1,0,0,1,539
598,1,1,598,1,1,1,1,582
599,1,1,599,0,1,1,1,545
600,1,1,600,0,1,1,1,546
601,1,1,601,0,1,1,1,584
602,1,1,602,9,0,0,1,498
603,1,1,603,1,0,0,1,718
604,1,1,604,9,1,1,1,930
605,1,1,605,9,0,0,1,469
606,1,1,606,1,1,1,1,620
607,1,1,607,19,0,0,1,500
608,1,1,608,31,0,0,1,1205
609,1,1,609,19,1,1,1,738
610,1,1,610,19,0,0,1,783
611,1,1,611,19,0,0,1,466
612,1,1,612,9,1,1,1,529
613,1,1,613,1,1,1,1,907
614,1,1,614,9,0,0,1,499
615,1,1,615,31,1,1,1,488
616,1,1,616,19,0,0,1,922
617,1,1,617,31,1,1,1,526
618,1,1,618,9,1,1,1,586
619,1,1,619,19,1,1,1,598
620,1,1,620,19,0,0,1,504
621,1,1,621,4,1,1,1,527
622,1,1,622,1,0,0,1,540
623,1,1,623,19,1,1,1,674
624,1,1,624,4,1,1,1,417
625,1,1,625,1,0,0,1,590
626,1,1,626,19,1,1,1,567
627,1,1,627,9,0,0,1,488
628,1,1,628,4,1,1,1,537
629,1,1,629,9,0,0,1,718
630,1,1,630,19,0,0,1,551
631,1,1,631,4,0,0,1,695
632,1,1,632,4,1,1,1,635
633,1,1,633,9,1,1,1,716
634,1,1,634,1,0,0,1,496
635,1,1,635,31,0,0,1,538
636,1,1,636,9,1,1,1,584
637,1,1,637,4,0,0,1,631
638,1,1,638,0,0,0,1,491
639,1,1,639,1,1,1,1,562
640,1,1,640,31,1,1,1,783
641,1,1,641,19,0,0,1,777
642,1,1,642,9,1,1,1,511
643,1,1,643,31,0,0,1,926
644,1,1,644,19,1,1,1,491
645,1,1,645,19,1,1,1,530
646,1,1,646,19,0,0,1,787
647,1,1,647,1,0,0,1,487
648,1,1,648,19,1,1,1,910
649,1,1,649,0,0,0,1,567
650,1,1,650,9,1,1,1,549
651,1,1,651,19,1,1,1,658
652,1,1,652,19,1,1,1,476
653,1,1,653,0,0,0,1,546
654,1,1,654,19,1,1,1,684
655,1,1,655,0,1,1,1,462
656,1,1,656,4,1,1,1,563
657,1,1,657,31,0,0,1,591
658,1,1,658,19,1,1,1,579
659,1,1,659,9,0,0,1,505
660,1,1,660,4,1,1,1,527
661,1,1,661,1,1,1,1,514
662,1,1,662,9,0,0,1,553
663,1,1,663,31,0,0,1,659
664,1,1,664,1,0,0,1,492
665,1,1,665,9,0,0,1,589
666,1,1,666,19,1,1,1,555
667,1,1,667,9,0,0,1,823
668,1,1,668,1,0,0,1,481
669,1,1,669,19,1,1,1,514
670,1,1,670,4,1,1,1,412
671,1,1,671,19,0,0,1,628
672,1,1,672,4,1,1,1,487
673,1,1,673,19,0,0,1,679
674,1,1,674,4,1,1,1,478
675,1,1,675,1,0,0,1,547
676,1,1,676,9,1,1,1,579
677,1,1,677,9,1,1,1,484
678,1,1,678,4,0,0,1,478
679,1,1,679,19,1,1,1,501
680,1,1,680,0,0,0,1,504
681,1,1,681,1,1,1,1,502
682,1,1,682,9,0,0,1,511
683,1,1,683,1,1,1,1,433
684,1,1,684,31,1,1,1,864
685,1,1,685,31,1,1,1,509
686,1,1,686,4,1,1,1,547
687,1,1,687,19,0,0,1,521
688,1,1,688,9,1,1,1,390
689,1,1,689,9,1,1,1,529
690,1,1,690,19,0,0,1,549
691,1,1,691,31,0,0,1,597
692,1,1,692,1,0,0,1,495
693,1,1,693,19,1,1,1,477
694,1,1,694,9,1,1,1,505
695,1,1,695,4,1,1,1,539
696,1,1,696,31,1,1,1,586
697,1,1,697,9,1,1,1,745
698,1,1,698,1,1,1,1,533
699,1,1,699,31,1,1,1,605
700,1,1,700,19,0,0,1,584
701,1,1,701,19,0,0,1,777
702,1,1,702,9,1,1,1,713
703,1,1,703,31,1,1,1,560
704,1,1,704,9,0,0,1,501
705,1,1,705,1,1,1,1,483
706,1,1,706,1,0,0,1,704
707,1,1,707,1,0,0,1,599
708,1,1,708,9,0,0,1,628
709,1,1,709,4,1,1,1,498
710,1,1,710,19,0,0,1,634
711,1,1,711,1,1,1,1,450
712,1,1,712,4,0,0,1,448
713,1,1,713,4,0,0,1,397
714,1,1,714,4,0,0,1,663
715,1,1,715,31,0,0,1,661
716,1,1,716,19,1,1,1,569
717,1,1,717,4,1,1,1,604
718,1,1,718,4,1,1,1,579
719,1,1,719,19,1,1,1,509
720,1,1,720,9,0,0,1,542
721,1,1,721,31,0,0,1,596
722,1,1,722,4,0,0,0,552
723,1,1,723,9,1,1,1,684
724,1,1,724,19,0,0,1,562
725,1,1,725,4,0,0,1,510
726,1,1,726,31,1,1,1,645
727,1,1,727,4,1,1,1,921
728,1,1,728,19,0,0,1,551
729,1,1,729,9,0,0,1,529
730,1,1,730,31,0,0,1,559
731,1,1,731,31,1,1,1,532
732,1,1,732,0,1,1,1,531
733,1,1,733,19,0,0,1,480
734,1,1,734,4,0,0,1,645
735,1,1,735,1,0,0,1,590
736,1,1,736,1,0,0,1,765
737,1,1,737,31,1,1,1,635
738,1,1,738,0,0,0,1,754
739,1,1,739,9,1,1,1,1277
740,1,1,740,31,1,1,1,628
741,1,1,741,0,0,0,1,534
742,1,1,742,9,0,0,1,433
743,1,1,743,31,1,1,1,498
744,1,1,744,19,0,0,1,488
745,1,1,745,4,0,0,1,483
746,1,1,746,19,0,0,1,443
747,1,1,747,4,1,1,1,566
748,1,1,748,1,1,1,1,463
749,1,1,749,31,0,0,1,504
750,1,1,750,31,0,0,1,623
751,1,1,751,1,0,0,1,622
752,1,1,752,19,1,1,1,599
753,1,1,753,1,0,0,1,458
754,1,1,754,4,1,1,1,574
755,1,1,755,9,0,0,1,602
756,1,1,756,9,1,1,1,756
757,1,1,757,1,1,1,1,743
758,1,1,758,19,0,0,1,465
759,1,1,759,9,1,1,1,527
760,1,1,760,31,0,0,1,840
761,1,1,761,31,1,1,1,776
762,1,1,762,1,0,0,1,417
763,1,1,763,31,1,1,1,545
764,1,1,764,31,0,0,1,581
765,1,1,765,4,0,0,1,685
766,1,1,766,4,1,1,1,680
767,1,1,767,31,0,0,1,421
768,1,1,768,31,1,1,1,460
769,1,1,769,4,0,0,1,564
770,1,1,770,1,1,1,1,535
771,1,1,771,9,0,0,1,677
772,1,1,772,9,0,0,1,480
773,1,1,773,19,1,1,1,733
774,1,1,774,1,1,1,1,689
775,1,1,775,31,1,1,1,529
776,1,1,776,0,0,0,1,413
777,1,1,777,4,1,1,1,594
778,1,1,778,4,0,0,1,529
779,1,1,779,0,1,1,1,652
780,1,1,780,1,0,0,1,565
781,1,1,781,31,1,1,1,529
782,1,1,782,31,1,1,1,634
783,1,1,783,4,0,0,1,510
784,1,1,784,19,0,0,1,501
785,1,1,785,4,0,0,1,602
786,1,1,786,19,0,0,1,557
787,1,1,787,31,1,1,1,1267
788,1,1,788,31,1,1,1,670
789,1,1,789,9,0,0,1,582
790,1,1,790,4,1,1,1,619
791,1,1,791,19,1,1,1,564
792,1,1,792,0,0,0,1,568
793,1,1,793,19,0,0,1,733
794,1,1,794,19,1,1,1,928
795,1,1,795,31,0,0,1,549
796,1,1,796,1,1,1,1,423
797,1,1,797,19,1,1,1,562
798,1,1,798,4,0,0,1,437
799,1,1,799,9,1,1,1,454
800,1,1,800,1,0,0,1,388
801,2,1,1,0,0,0,1,806
802,2,1,2,0,1,1,1,551
803,2,1,3,4,1,1,1,583
804,2,1,4,31,0,0,1,1079
805,2,1,5,1,0,0,1,732
806,2,1,6,1,1,1,1,545
807,2,1,7,31,0,0,1,1121
808,2,1,8,0,0,0,1,403
809,2,1,9,0,0,0,1,402
810,2,1,10,4,0,0,1,641
811,2,1,11,19,0,0,1,586
812,2,1,12,19,0,0,1,701
813,2,1,13,19,1,1,1,733
814,2,1,14,4,1,1,1,712
815,2,1,15,9,0,0,1,494
816,2,1,16,1,1,1,1,444
817,2,1,17,19,0,0,1,429
818,2,1,18,1,0,0,1,434
819,2,1,19,19,0,0,1,544
820,2,1,20,19,0,0,1,440
821,2,1,21,19,0,0,1,486
822,2,1,22,31,1,1,1,530
823,2,1,23,19,1,1,1,690
824,2,1,24,9,1,1,1,574
825,2,1,25,4,0,0,1,632
826,2,1,26,1,1,1,1,386
827,2,1,27,31,1,1,1,729
828,2,1,28,31,1,1,1,1118
829,2,1,29,19,0,0,1,696
830,2,1,30,1,0,0,1,439
831,2,1,31,9,1,1,1,474
832,2,1,32,31,0,0,1,493
833,2,1,33,0,1,1,1,489
834,2,1,34,9,1,1,1,662
835,2,1,35,4,1,1,1,488
836,2,1,36,9,0,0,1,510
837,2,1,37,19,1,1,0,460
838,2,1,38,19,1,1,1,648
839,2,1,39,1,1,1,1,574
840,2,1,40,31,1,1,1,572
841,2,1,41,4,1,1,1,615
842,2,1,42,1,1,1,1,391
843,2,1,43,1,0,0,1,580
844,2,1,44,9,0,0,1,480
845,2,1,45,31,1,1,1,652
846,2,1,46,1,1,1,1,518
847,2,1,47,4,1,1,1,514
848,2,1,48,9,0,0,1,446
849,2,1,49,4,0,0,1,620
850,2,1,50,1,0,0,1,729
851,2,1,51,31,0,0,1,943
852,2,1,52,19,1,1,1,629
853,2,1,53,31,0,0,1,527
854,2,1,54,31,0,0,1,694
855,2,1,55,31,0,0,1,682
856,2,1,56,31,1,1,1,719
857,2,1,57,4,0,0,1,440
858,2,1,58,4,1,1,1,486
859,2,1,59,4,1,1,1,522
860,2,1,60,9,0,0,1,438
861,2,1,61,1,0,0,1,531
862,2,1,62,0,0,0,1,530
863,2,1,63,0,1,1,1,595
864,2,1,64,9,1,1,1,628
865,2,1,65,4,0,0,1,489
866,2,1,66,9,0,0,1,592
867,2,1,67,1,1,1,1,484
868,2,1,68,9,0,0,1,652
869,2,1,69,9,1,1,1,439
870,2,1,70,19,0,0,1,832
871,2,1,71,1,1,1,1,532
872,2,1,72,31,0,0,1,449
873,2,1,73,4,0,0,1,477
874,2,1,74,4,1,1,1,577
875,2,1,75,4,0,0,1,516
876,2,1,76,0,1,1,1,458
877,2,1,77,19,1,1,1,688
878,2,1,78,19,0,0,1,435
879,2,1,79,9,0,0,1,585
880,2,1,80,1,0,0,1,560
881,2,1,81,31,1,1,1,595
882,2,1,82,9,0,0,1,692
883,2,1,83,31,0,0,1,699
884,2,1,84,4,0,0,1,432
885,2,1,85,4,0,0,1,500
886,2,1,86,9,0,0,1,485
887,2,1,87,1,0,0,1,507
888,2,1,88,9,1,1,1,701
889,2,1,89,1,1,1,1,513
890,2,1,90,19,0,0,1,567
891,2,1,91,0,0,0,1,398
892,2,1,92,9,1,1,1,698
893,2,1,93,1,1,1,1,589
894,2,1,94,4,1,1,1,439
895,2,1,95,1,0,0,1,438
896,2,1,96,4,0,0,1,532
897,2,1,97,1,1,1,1,482
898,2,1,98,31,1,1,1,612
899,2,1,99,31,1,1,1,573
900,2,1,100,31,0,0,1,525
901,2,1,101,1,1,1,1,513
902,2,1,102,1,1,1,1,551
903,2,1,103,0,1,1,1,471
904,2,1,104,19,0,0,1,531
905,2,1,105,0,0,0,1,463
906,2,1,106,1,0,0,1,662
907,2,1,107,1,1,1,1,422
908,2,1,108,19,0,0,1,684
909,2,1,109,0,0,0,1,523
910,2,1,110,4,1,1,1,564
911,2,1,111,0,0,0,1,437
912,2,1,112,31,1,1,1,558
913,2,1,113,9,0,0,1,520
914,2,1,114,19,0,0,1,619
915,2,1,115,4,0,0,1,574
916,2,1,116,31,1,1,1,530
917,2,1,117,19,0,0,1,790
918,2,1,118,4,1,1,1,590
919,2,1,119,19,1,1,1,649
920,2,1,120,31,0,0,1,833
921,2,1,121,1,0,0,1,529
922,2,1,122,4,0,0,1,546
923,2,1,123,31,0,0,1,568
924,2,1,124,1,1,1,1,502
925,2,1,125,4,1,1,1,427
926,2,1,126,31,0,0,1,504
927,2,1,127,1,0,0,1,519
928,2,1,128,4,0,0,1,485
929,2,1,129,9,0,0,1,382
930,2,1,130,1,1,1,1,611
931,2,1,131,9,1,1,1,575
932,2,1,132,19,1,1,1,606
933,2,1,133,4,0,0,1,550
934,2,1,134,19,1,1,1,571
935,2,1,135,31,1,1,1,620
936,2,1,136,4,0,0,1,821
937,2,1,137,31,1,1,1,553
938,2,1,138,1,0,0,1,454
939,2,1,139,9,0,0,1,482
940,2,1,140,1,1,1,1,443
941,2,1,141,1,0,0,1,413
942,2,1,142,9,1,1,1,596
943,2,1,143,9,0,0,1,547
944,2,1,144,31,0,0,1,655
945,2,1,145,1,0,0,1,442
946,2,1,146,4,0,0,1,341
947,2,1,147,1,0,0,1,520
948,2,1,148,19,0,0,1,621
949,2,1,149,9,0,0,1,569
950,2,1,150,31,1,1,1,664
951,2,1,151,19,1,1,1,569
952,2,1,152,1,1,1,1,424
953,2,1,153,19,0,0,1,517
954,2,1,154,9,1,1,1,525
955,2,1,155,19,1,1,1,626
956,2,1,156,1,0,0,1,410
957,2,1,157,1,0,0,1,632
958,2,1,158,4,0,0,1,438
959,2,1,159,9,1,1,1,520
960,2,1,160,31,0,0,1,603
961,2,1,161,0,1,1,1,392
962,2,1,162,19,1,1,0,493
963,2,1,163,19,1,1,1,598
964,2,1,164,1,0,0,1,513
965,2,1,165,31,0,0,1,581
966,2,1,166,31,0,0,1,691
967,2,1,167,1,0,0,1,499
968,2,1,168,31,1,1,1,578
969,2,1,169,4,0,0,1,461
970,2,1,170,9,1,1,1,532
971,2,1,171,4,0,0,1,599
972,2,1,172,19,0,0,1,567
973,2,1,173,4,0,0,1,601
974,2,1,174,31,0,0,1,565
975,2,1,175,9,1,1,1,663
976,2,1,176,31,0,0,1,538
977,2,1,177,19,1,1,1,703
978,2,1,178,1,1,1,1,512
979,2,1,179,31,0,0,1,680
980,2,1,180,1,0,0,1,424
981,2,1,181,1,1,1,1,565
982,2,1,182,4,1,1,1,657
983,2,1,183,9,0,0,1,570
984,2,1,184,31,1,1,1,504
985,2,1,185,9,0,0,1,584
986,2,1,186,19,0,0,1,472
987,2,1,187,19,1,1,1,576
988,2,1,188,19,0,0,1,599
989,2,1,189,9,0,0,1,504
990,2,1,190,19,0,0,1,566
991,2,1,191,4,1,1,1,582
992,2,1,192,31,0,0,1,539
993,2,1,193,9,0,0,1,591
994,2,1,194,9,0,0,1,687
995,2,1,195,9,0,0,1,604
996,2,1,196,31,1,1,1,709
997,2,1,197,9,0,0,1,567
998,2,1,198,31,1,1,1,552
999,2,1,199,1,0,0,1,550
1000,2,1,200,19,0,0,1,587
1001,2,1,201,1,1,1,1,476
1002,2,1,202,19,0,0,1,502
1003,2,1,203,0,0,0,1,448
1004,2,1,204,4,1,1,1,463
1005,2,1,205,9,1,1,1,514
1006,2,1,206,31,0,0,1,488
1007,2,1,207,0,0,0,1,389
1008,2,1,208,4,0,0,1,699
1009,2,1,209,4,1,1,1,491
1010,2,1,210,4,0,0,1,434
1011,2,1,211,19,1,1,1,541
1012,2,1,212,4,1,1,1,510
1013,2,1,213,9,0,0,1,630
1014,2,1,214,4,1,1,1,616
1015,2,1,215,19,1,1,1,473
1016,2,1,216,1,1,1,1,479
1017,2,1,217,31,1,1,1,531
1018,2,1,218,1,0,0,1,435
1019,2,1,219,4,1,1,1,528
1020,2,1,220,31,1,1,1,417
1021,2,1,221,19,1,1,1,673
1022,2,1,222,19,1,1,1,711
1023,2,1,223,19,1,1,1,701
1024,2,1,224,9,0,0,1,563
1025,2,1,225,9,0,0,1,471
1026,2,1,226,9,0,0,1,716
1027,2,1,227,31,1,1,1,566
1028,2,1,228,31,0,0,1,488
1029,2,1,229,9,1,1,1,524
1030,2,1,230,4,1,1,1,572
1031,2,1,231,4,1,1,1,542
1032,2,1,232,19,0,0,1,634
1033,2,1,233,19,1,1,1,458
1034,2,1,234,19,1,1,1,524
1035,2,1,235,19,0,0,1,673
1036,2,1,236,31,1,1,1,563
1037,2,1,237,31,1,1,1,815
1038,2,1,238,1,0,0,1,550
1039,2,1,239,9,1,1,1,607
1040,2,1,240,1,1,1,1,469
1041,2,1,241,4,1,1,1,447
1042,2,1,242,19,1,1,1,521
1043,2,1,243,19,0,0,1,640
1044,2,1,244,4,1,1,1,503
1045,2,1,245,19,1,1,1,410
1046,2,1,246,31,0,0,1,488
1047,2,1,247,4,0,0,1,473
1048,2,1,248,1,1,1,1,510
1049,2,1,249,31,1,1,1,636
1050,2,1,250,19,0,0,1,586
1051,2,1,251,4,0,0,1,668
1052,2,1,252,4,1,1,1,528
1053,2,1,253,1,1,1,1,481
1054,2,1,254,31,0,0,1,592
1055,2,1,255,4,0,0,1,792
1056,2,1,256,19,1,1,1,713
1057,2,1,257,31,0,0,1,506
1058,2,1,258,9,1,1,1,521
1059,2,1,259,19,1,1,1,576
1060,2,1,260,19,0,0,1,413
1061,2,1,261,19,1,1,1,461
1062,2,1,262,9,1,1,1,592
1063,2,1,263,4,1,1,1,511
1064,2,1,264,1,0,0,1,655
1065,2,1,265,9,0,0,1,686
1066,2,1,266,4,1,1,1,561
1067,2,1,267,19,1,1,1,636
1068,2,1,268,4,0,0,1,405
1069,2,1,269,31,1,1,1,536
1070,2,1,270,31,0,0,1,552
1071,2,1,271,1,1,1,1,498
1072,2,1,272,1,1,1,1,616
1073,2,1,273,31,0,0,1,520
1074,2,1,274,1,1,1,1,525
1075,2,1,275,9,1,1,1,539
1076,2,1,276,4,0,0,1,433
1077,2,1,277,31,1,1,1,517
1078,2,1,278,31,0,0,1,622
1079,2,1,279,0,1,1,1,443
1080,2,1,280,31,1,1,1,559
1081,2,1,281,31,0,0,1,454
1082,2,1,282,19,0,0,1,875
1083,2,1,283,31,1,1,1,420
1084,2,1,284,9,0,0,1,458
1085,2,1,285,9,1,1,1,457
1086,2,1,286,31,0,0,1,506
1087,2,1,287,19,0,0,1,496
1088,2,1,288,9,0,0,1,497
1089,2,1,289,19,1,1,1,491
1090,2,1,290,9,0,0,1,399
1091,2,1,291,9,0,0,1,444
1092,2,1,292,1,1,1,1,436
1093,2,1,293,9,0,0,1,569
1094,2,1,294,1,1,1,1,569
1095,2,1,295,9,1,1,1,537
1096,2,1,296,1,1,1,1,536
1097,2,1,297,4,1,1,1,592
1098,2,1,298,9,0,0,1,506
1099,2,1,299,1,1,1,1,418
1100,2,1,300,9,0,0,1,475
1101,2,1,301,1,1,1,1,466
1102,2,1,302,4,0,0,1,429
1103,2,1,303,0,0,0,1,445
1104,2,1,304,9,1,1,1,373
1105,2,1,305,19,1,1,1,513
1106,2,1,306,9,0,0,1,554
1107,2,1,307,19,0,0,1,505
1108,2,1,308,1,0,0,1,411
1109,2,1,309,31,1,1,1,436
1110,2,1,310,9,1,1,1,595
1111,2,1,311,31,0,0,1,561
1112,2,1,312,4,1,1,1,509
1113,2,1,313,4,0,0,1,360
1114,2,1,314,4,1,1,1,417
1115,2,1,315,31,0,0,1,510
1116,2,1,316,19,0,0,1,631
1117,2,1,317,31,1,1,1,379
1118,2,1,318,19,0,0,1,602
1119,2,1,319,9,1,1,1,508
1120,2,1,320,31,0,0,1,484
1121,2,1,321,4,0,0,1,391
1122,2,1,322,9,1,1,1,458
1123,2,1,323,31,0,0,1,556
1124,2,1,324,31,0,0,1,763
1125,2,1,325,4,1,1,1,470
1126,2,1,326,1,0,0,1,469
1127,2,1,327,9,0,0,1,410
1128,2,1,328,9,0,0,1,436
1129,2,1,329,9,1,1,1,459
1130,2,1,330,1,1,1,1,471
1131,2,1,331,31,0,0,1,660
1132,2,1,332,19,1,1,1,480
1133,2,1,333,4,1,1,1,449
1134,2,1,334,31,1,1,1,605
1135,2,1,335,19,0,0,1,463
1136,2,1,336,0,0,0,1,418
1137,2,1,337,31,0,0,1,473
1138,2,1,338,4,1,1,1,501
1139,2,1,339,9,1,1,1,501
1140,2,1,340,4,1,1,1,401
1141,2,1,341,4,0,0,1,754
1142,2,1,342,4,1,1,1,453
1143,2,1,343,1,0,0,1,506
1144,2,1,344,19,1,1,1,450
1145,2,1,345,1,1,1,1,538
1146,2,1,346,31,1,1,1,475
1147,2,1,347,1,0,0,0,400
1148,2,1,348,31,0,0,1,508
1149,2,1,349,1,1,1,1,530
1150,2,1,350,19,1,1,1,549
1151,2,1,351,9,1,1,1,682
1152,2,1,352,19,1,1,1,617
1153,2,1,353,31,1,1,1,489
1154,2,1,354,19,0,0,1,478
1155,2,1,355,4,1,1,1,345
1156,2,1,356,19,1,1,1,727
1157,2,1,357,9,1,1,1,458
1158,2,1,358,9,0,0,1,638
1159,2,1,359,4,0,0,1,514
1160,2,1,360,4,1,1,1,380
1161,2,1,361,4,0,0,1,431
1162,2,1,362,0,1,1,1,420
1163,2,1,363,31,1,1,1,710
1164,2,1,364,9,1,1,1,481
1165,2,1,365,0,1,1,1,389
1166,2,1,366,9,1,1,1,377
1167,2,1,367,9,1,1,1,511
1168,2,1,368,9,0,0,1,455
1169,2,1,369,31,1,1,1,407
1170,2,1,370,1,0,0,1,380
1171,2,1,371,4,1,1,1,633
1172,2,1,372,4,1,1,1,402
1173,2,1,373,1,1,1,1,385
1174,2,1,374,1,0,0,1,557
1175,2,1,375,19,1,1,1,427
1176,2,1,376,0,1,1,1,460
1177,2,1,377,19,0,0,1,457
1178,2,1,378,19,0,0,0,533
1179,2,1,379,31,1,1,1,541
1180,2,1,380,31,1,1,1,456
1181,2,1,381,1,1,1,1,438
1182,2,1,382,1,1,1,1,475
1183,2,1,383,9,0,0,1,421
1184,2,1,384,9,1,1,1,569
1185,2,1,385,9,1,1,1,434
1186,2,1,386,4,0,0,1,463
1187,2,1,387,19,0,0,1,635
1188,2,1,388,31,0,0,1,826
1189,2,1,389,19,1,1,1,631
1190,2,1,390,9,0,0,1,427
1191,2,1,391,31,1,1,1,510
1192,2,1,392,19,1,1,1,769
1193,2,1,393,1,0,0,1,444
1194,2,1,394,1,1,1,1,351
1195,2,1,395,0,1,1,1,346
1196,2,1,396,31,0,0,1,799
1197,2,1,397,9,1,1,1,408
1198,2,1,398,0,1,1,1,416
1199,2,1,399,9,1,1,1,503
1200,2,1,400,19,1,1,1,456
1201,2,1,401,31,1,1,1,502
1202,2,1,402,9,1,1,1,607
1203,2,1,403,9,1,1,1,488
1204,2,1,404,4,1,1,1,419
1205,2,1,405,1,1,1,1,437
1206,2,1,406,19,0,0,1,536
1207,2,1,407,1,1,1,1,388
1208,2,1,408,1,0,0,1,389
1209,2,1,409,1,1,1,1,556
1210,2,1,410,31,1,1,1,436
1211,2,1,411,31,0,0,1,448
1212,2,1,412,9,0,0,1,443
1213,2,1,413,19,1,1,1,607
1214,2,1,414,1,1,1,1,494
1215,2,1,415,1,0,0,1,532
1216,2,1,416,9,0,0,1,502
1217,2,1,417,31,0,0,1,516
1218,2,1,418,31,1,1,1,505
1219,2,1,419,9,1,1,0,473
1220,2,1,420,4,0,0,1,551
1221,2,1,421,4,1,1,1,486
1222,2,1,422,31,1,1,1,685
1223,2,1,423,4,1,1,1,452
1224,2,1,424,4,0,0,1,491
1225,2,1,425,9,1,1,1,934
1226,2,1,426,1,1,1,1,430
1227,2,1,427,1,1,1,1,446
1228,2,1,428,9,0,0,1,754
1229,2,1,429,4,0,0,1,479
1230,2,1,430,4,1,1,1,478
1231,2,1,431,9,0,0,1,817
1232,2,1,432,4,0,0,1,520
1233,2,1,433,31,0,0,1,570
1234,2,1,434,1,1,1,1,544
1235,2,1,435,19,0,0,1,610
1236,2,1,436,0,0,0,1,396
1237,2,1,437,0,1,1,1,535
1238,2,1,438,9,0,0,1,467
1239,2,1,439,9,0,0,1,540
1240,2,1,440,1,1,1,1,563
1241,2,1,441,31,1,1,1,542
1242,2,1,442,0,1,1,1,482
1243,2,1,443,4,0,0,1,530
1244,2,1,444,31,1,1,1,594
1245,2,1,445,1,1,1,1,812
1246,2,1,446,19,0,0,1,476
1247,2,1,447,9,1,1,1,497
1248,2,1,448,4,0,0,1,713
1249,2,1,449,9,1,1,1,474
1250,2,1,450,4,0,0,1,508
1251,2,1,451,4,1,1,1,678
1252,2,1,452,1,1,1,1,555
1253,2,1,453,0,0,0,1,349
1254,2,1,454,1,1,1,1,325
1255,2,1,455,1,0,0,1,350
1256,2,1,456,1,1,1,1,331
1257,2,1,457,4,0,0,1,397
1258,2,1,458,1,0,0,1,638
1259,2,1,459,1,0,0,1,687
1260,2,1,460,4,0,0,1,612
1261,2,1,461,1,0,0,1,419
1262,2,1,462,4,0,0,1,382
1263,2,1,463,19,0,0,1,479
1264,2,1,464,1,0,0,1,496
1265,2,1,465,19,1,1,1,651
1266,2,1,466,9,0,0,1,440
1267,2,1,467,31,0,0,1,533
1268,2,1,468,9,0,0,1,566
1269,2,1,469,0,1,1,1,409
1270,2,1,470,31,1,1,1,586
1271,2,1,471,19,0,0,1,582
1272,2,1,472,31,0,0,1,524
1273,2,1,473,1,0,0,1,435
1274,2,1,474,4,1,1,1,513
1275,2,1,475,19,1,1,1,527
1276,2,1,476,31,0,0,1,656
1277,2,1,477,31,1,1,1,695
1278,2,1,478,9,0,0,1,452
1279,2,1,479,9,0,0,1,415
1280,2,1,480,1,0,0,1,409
1281,2,1,481,4,1,1,1,562
1282,2,1,482,4,0,0,1,507
1283,2,1,483,1,1,1,1,484
1284,2,1,484,0,0,0,1,449
1285,2,1,485,4,0,0,1,402
1286,2,1,486,0,1,1,1,352
1287,2,1,487,4,1,1,1,608
1288,2,1,488,1,1,1,1,521
1289,2,1,489,31,1,1,1,492
1290,2,1,490,9,0,0,1,604
1291,2,1,491,1,0,0,1,415
1292,2,1,492,4,1,1,1,376
1293,2,1,493,0,1,1,1,375
1294,2,1,494,4,0,0,1,616
1295,2,1,495,4,1,1,1,370
1296,2,1,496,19,0,0,1,393
1297,2,1,497,9,0,0,1,658
1298,2,1,498,19,1,1,1,609
1299,2,1,499,31,1,1,1,533
1300,2,1,500,19,1,1,1,613
1301,2,1,501,1,0,0,1,603
1302,2,1,502,1,0,0,1,397
1303,2,1,503,1,0,0,1,362
1304,2,1,504,1,1,1,1,378
1305,2,1,505,31,0,0,1,435
1306,2,1,506,19,0,0,1,387
1307,2,1,507,9,1,1,1,491
1308,2,1,508,31,1,1,1,528
1309,2,1,509,1,0,0,1,441
1310,2,1,510,1,0,0,1,435
1311,2,1,511,31,0,0,1,596
1312,2,1,512,4,1,1,1,426
1313,2,1,513,9,1,1,1,551
1314,2,1,514,4,0,0,1,397
1315,2,1,515,0,0,0,1,1058
1316,2,1,516,19,1,1,1,447
1317,2,1,517,19,1,1,1,461
1318,2,1,518,0,0,0,1,484
1319,2,1,519,1,0,0,1,385
1320,2,1,520,4,0,0,1,462
1321,2,1,521,19,1,1,1,397
1322,2,1,522,1,0,0,1,389
1323,2,1,523,31,1,1,1,801
1324,2,1,524,1,1,1,1,461
1325,2,1,525,4,1,1,1,414
1326,2,1,526,1,1,1,1,392
1327,2,1,527,9,1,1,1,409
1328,2,1,528,19,0,0,1,673
1329,2,1,529,1,0,0,1,403
1330,2,1,530,9,0,0,1,472
1331,2,1,531,19,0,0,1,450
1332,2,1,532,4,0,0,1,445
1333,2,1,533,31,1,1,1,464
1334,2,1,534,19,1,1,1,466
1335,2,1,535,19,0,0,1,486
1336,2,1,536,19,1,1,1,477
1337,2,1,537,0,0,0,1,447
1338,2,1,538,9,1,1,1,397
1339,2,1,539,19,0,0,1,484
1340,2,1,540,4,0,0,1,650
1341,2,1,541,4,1,1,1,478
1342,2,1,542,19,1,1,1,405
1343,2,1,543,4,1,1,1,508
1344,2,1,544,1,0,0,1,450
1345,2,1,545,9,0,0,1,431
1346,2,1,546,4,1,1,1,499
1347,2,1,547,0,1,1,1,409
1348,2,1,548,9,1,1,1,478
1349,2,1,549,4,0,0,1,465
1350,2,1,550,31,0,0,0,359
1351,2,1,551,9,0,0,1,639
1352,2,1,552,4,0,0,1,409
1353,2,1,553,19,1,1,1,478
1354,2,1,554,19,0,0,1,479
1355,2,1,555,31,0,0,1,473
1356,2,1,556,31,0,0,1,466
1357,2,1,557,9,1,1,1,460
1358,2,1,558,19,1,1,1,421
1359,2,1,559,4,0,0,1,495
1360,2,1,560,19,0,0,1,495
1361,2,1,561,31,0,0,1,603
1362,2,1,562,19,1,1,1,517
1363,2,1,563,19,0,0,1,610
1364,2,1,564,19,0,0,1,481
1365,2,1,565,9,1,1,1,417
1366,2,1,566,4,1,1,1,562
1367,2,1,567,9,1,1,1,425
1368,2,1,568,19,1,1,1,731
1369,2,1,569,9,0,0,0,402
1370,2,1,570,4,0,0,1,448
1371,2,1,571,1,1,1,1,449
1372,2,1,572,4,1,1,1,490
1373,2,1,573,19,0,0,1,499
1374,2,1,574,0,1,1,1,405
1375,2,1,575,31,1,1,1,508
1376,2,1,576,31,1,1,1,614
1377,2,1,577,1,1,1,1,483
1378,2,1,578,9,0,0,1,463
1379,2,1,579,4,0,0,1,532
1380,2,1,580,1,0,0,1,407
1381,2,1,581,4,0,0,1,644
1382,2,1,582,1,1,1,1,584
1383,2,1,583,31,1,1,1,639
1384,2,1,584,9,1,1,1,464
1385,2,1,585,1,1,1,1,378
1386,2,1,586,9,0,0,1,608
1387,2,1,587,19,0,0,1,411
1388,2,1,588,19,0,0,1,469
1389,2,1,589,19,1,1,1,454
1390,2,1,590,31,1,1,1,503
1391,2,1,591,1,0,0,1,455
1392,2,1,592,4,0,0,1,432
1393,2,1,593,19,1,1,1,483
1394,2,1,594,9,1,1,1,532
1395,2,1,595,19,0,0,1,383
1396,2,1,596,4,1,1,1,699
1397,2,1,597,9,1,1,1,529
1398,2,1,598,19,1,1,1,518
1399,2,1,599,19,1,1,1,465
1400,2,1,600,1,0,0,1,433
1401,2,1,601,19,1,1,1,582
1402,2,1,602,31,0,0,1,582
1403,2,1,603,9,1,1,1,382
1404,2,1,604,0,1,1,1,378
1405,2,1,605,9,0,0,1,511
1406,2,1,606,4,1,1,1,463
1407,2,1,607,1,0,0,1,612
1408,2,1,608,1,0,0,1,620
1409,2,1,609,31,0,0,1,620
1410,2,1,610,4,1,1,1,416
1411,2,1,611,9,1,1,1,474
1412,2,1,612,9,1,1,1,619
1413,2,1,613,4,0,0,1,551
1414,2,1,614,4,1,1,1,373
1415,2,1,615,31,1,1,1,611
1416,2,1,616,4,1,1,1,509
1417,2,1,617,31,0,0,1,464
1418,2,1,618,1,0,0,1,580
1419,2,1,619,1,0,0,1,449
1420,2,1,620,1,0,0,1,605
1421,2,1,621,4,0,0,1,475
1422,2,1,622,19,0,0,1,618
1423,2,1,623,1,1,1,1,466
1424,2,1,624,0,1,1,1,378
1425,2,1,625,9,0,0,1,516
1426,2,1,626,1,1,1,1,495
1427,2,1,627,1,1,1,1,431
1428,2,1,628,9,1,1,1,593
1429,2,1,629,9,1,1,1,751
1430,2,1,630,1,0,0,1,1084
1431,2,1,631,19,1,1,1,720
1432,2,1,632,1,0,0,1,616
1433,2,1,633,0,0,0,0,651
1434,2,1,634,1,0,0,1,770
1435,2,1,635,31,0,0,1,636
1436,2,1,636,0,1,1,1,646
1437,2,1,637,4,1,1,1,786
1438,2,1,638,19,0,0,1,773
1439,2,1,639,9,0,0,1,629
1440,2,1,640,9,0,0,1,493
1441,2,1,641,19,1,1,1,764
1442,2,1,642,0,0,0,1,767
1443,2,1,643,0,1,1,1,542
1444,2,1,644,19,0,0,1,527
1445,2,1,645,19,1,1,1,525
1446,2,1,646,9,1,1,0,1006
1447,2,1,647,4,0,0,1,676
1448,2,1,648,1,1,1,1,487
1449,2,1,649,19,1,1,1,870
1450,2,1,650,9,1,1,1,750
1451,2,1,651,4,1,1,1,949
1452,2,1,652,0,1,1,1,385
1453,2,1,653,9,1,1,1,477
1454,2,1,654,31,1,1,1,549
1455,2,1,655,19,0,0,1,560
1456,2,1,656,0,1,1,1,468
1457,2,1,657,1,0,0,1,1030
1458,2,1,658,4,1,1,1,465
1459,2,1,659,31,0,0,0,778
1460,2,1,660,19,1,1,1,689
1461,2,1,661,19,0,0,1,1204
1462,2,1,662,4,0,0,1,513
1463,2,1,663,4,1,1,1,525
1464,2,1,664,19,1,1,1,668
1465,2,1,665,19,0,0,1,763
1466,2,1,666,31,1,1,1,574
1467,2,1,667,31,0,0,1,790
1468,2,1,668,9,0,0,1,838
1469,2,1,669,31,0,0,1,641
1470,2,1,670,19,0,0,1,592
1471,2,1,671,19,0,0,1,532
1472,2,1,672,1,1,1,1,387
1473,2,1,673,4,1,1,1,532
1474,2,1,674,9,0,0,1,482
1475,2,1,675,31,0,0,1,615
1476,2,1,676,31,1,1,1,590
1477,2,1,677,9,0,0,1,507
1478,2,1,678,31,0,0,1,392
1479,2,1,679,19,0,0,1,462
1480,2,1,680,19,1,1,1,471
1481,2,1,681,4,1,1,1,469
1482,2,1,682,31,1,1,1,429
1483,2,1,683,9,1,1,1,532
1484,2,1,684,4,1,1,1,673
1485,2,1,685,4,1,1,1,401
1486,2,1,686,4,1,1,1,371
1487,2,1,687,9,1,1,1,373
1488,2,1,688,1,0,0,1,486
1489,2,1,689,31,1,1,1,974
1490,2,1,690,4,0,0,1,524
1491,2,1,691,9,0,0,1,559
1492,2,1,692,9,0,0,1,788
1493,2,1,693,1,1,1,1,493
1494,2,1,694,31,1,1,1,487
1495,2,1,695,9,0,0,1,457
1496,2,1,696,1,0,0,1,464
1497,2,1,697,19,0,0,1,563
1498,2,1,698,19,1,1,1,679
1499,2,1,699,1,0,0,1,414
1500,2,1,700,31,0,0,1,535
1501,2,1,701,1,0,0,1,539
1502,2,1,702,1,0,0,1,551
1503,2,1,703,19,0,0,1,437
1504,2,1,704,4,0,0,1,605
1505,2,1,705,31,1,1,1,687
1506,2,1,706,9,1,1,0,637
1507,2,1,707,31,1,1,1,601
1508,2,1,708,4,0,0,1,645
1509,2,1,709,9,0,0,1,832
1510,2,1,710,4,1,1,1,638
1511,2,1,711,31,1,1,1,1267
1512,2,1,712,4,0,0,1,542
1513,2,1,713,9,0,0,1,557
1514,2,1,714,4,1,1,1,625
1515,2,1,715,19,1,1,1,832
1516,2,1,716,4,1,1,1,509
1517,2,1,717,4,0,0,1,491
1518,2,1,718,31,1,1,1,418
1519,2,1,719,19,1,1,1,437
1520,2,1,720,4,0,0,1,437
1521,2,1,721,31,0,0,1,665
1522,2,1,722,31,1,1,1,615
1523,2,1,723,9,1,1,1,446
1524,2,1,724,1,1,1,1,453
1525,2,1,725,9,1,1,1,478
1526,2,1,726,19,1,1,1,479
1527,2,1,727,31,1,1,1,472
1528,2,1,728,31,0,0,1,610
1529,2,1,729,1,0,0,1,576
1530,2,1,730,19,0,0,1,612
1531,2,1,731,9,1,1,1,494
1532,2,1,732,19,1,1,1,410
1533,2,1,733,1,0,0,1,450
1534,2,1,734,0,0,0,1,360
1535,2,1,735,1,0,0,1,469
1536,2,1,736,19,0,0,1,780
1537,2,1,737,31,0,0,1,415
1538,2,1,738,9,0,0,1,440
1539,2,1,739,19,1,1,1,457
1540,2,1,740,1,0,0,1,536
1541,2,1,741,4,1,1,1,603
1542,2,1,742,19,0,0,1,497
1543,2,1,743,4,0,0,1,506
1544,2,1,744,31,1,1,1,502
1545,2,1,745,19,0,0,1,541
1546,2,1,746,31,1,1,1,465
1547,2,1,747,1,1,1,1,532
1548,2,1,748,9,1,1,1,505
1549,2,1,749,19,1,1,1,862
1550,2,1,750,31,0,0,1,477
1551,2,1,751,4,1,1,1,993
1552,2,1,752,31,1,1,1,475
1553,2,1,753,1,0,0,1,425
1554,2,1,754,31,0,0,1,584
1555,2,1,755,1,0,0,1,405
1556,2,1,756,19,1,1,1,475
1557,2,1,757,19,0,0,1,450
1558,2,1,758,4,0,0,1,393
1559,2,1,759,4,0,0,1,545
1560,2,1,760,9,0,0,1,387
1561,2,1,761,9,1,1,1,366
1562,2,1,762,31,1,1,1,762
1563,2,1,763,4,0,0,1,422
1564,2,1,764,9,1,1,1,514
1565,2,1,765,9,1,1,1,601
1566,2,1,766,0,0,0,1,407
1567,2,1,767,9,1,1,1,531
1568,2,1,768,9,1,1,1,506
1569,2,1,769,1,1,1,1,519
1570,2,1,770,31,0,0,1,613
1571,2,1,771,9,0,0,1,416
1572,2,1,772,9,0,0,1,472
1573,2,1,773,1,0,0,1,407
1574,2,1,774,0,0,0,1,377
1575,2,1,775,4,0,0,1,457
1576,2,1,776,31,1,1,1,663
1577,2,1,777,31,0,0,1,433
1578,2,1,778,1,1,1,1,434
1579,2,1,779,0,0,0,1,342
1580,2,1,780,31,0,0,1,616
1581,2,1,781,9,1,1,1,404
1582,2,1,782,1,1,1,1,550
1583,2,1,783,9,1,1,1,563
1584,2,1,784,19,1,1,1,525
1585,2,1,785,0,0,0,1,433
1586,2,1,786,1,1,1,1,409
1587,2,1,787,31,1,1,1,438
1588,2,1,788,31,0,0,1,509
1589,2,1,789,31,1,1,1,528
1590,2,1,790,19,0,0,1,432
1591,2,1,791,1,1,1,1,359
1592,2,1,792,31,0,0,1,360
1593,2,1,793,31,0,0,1,475
1594,2,1,794,1,1,1,1,418
1595,2,1,795,31,0,0,1,461
1596,2,1,796,4,1,1,1,443
1597,2,1,797,19,0,0,1,420
1598,2,1,798,19,0,0,1,421
1599,2,1,799,4,0,0,1,365
1600,2,1,800,4,0,0,1,413
1601,3,1,1,4,0,0,1,1959
1602,3,1,2,19,1,1,1,1017
1603,3,1,3,1,1,1,1,569
1604,3,1,4,19,0,0,1,409
1605,3,1,5,4,0,0,1,664
1606,3,1,6,31,1,1,1,523
1607,3,1,7,4,0,0,1,604
1608,3,1,8,1,1,1,1,431
1609,3,1,9,9,1,1,1,564
1610,3,1,10,4,1,1,1,601
1611,3,1,11,9,0,0,1,984
1612,3,1,12,19,1,1,1,636
1613,3,1,13,19,1,1,1,715
1614,3,1,14,31,0,0,1,969
1615,3,1,15,19,1,1,1,721
1616,3,1,16,1,0,0,1,492
1617,3,1,17,4,1,1,1,430
1618,3,1,18,31,1,1,1,760
1619,3,1,19,1,1,1,1,485
1620,3,1,20,4,0,0,1,454
1621,3,1,21,4,0,0,1,653
1622,3,1,22,31,0,0,1,560
1623,3,1,23,31,0,0,1,990
1624,3,1,24,9,1,1,1,721
1625,3,1,25,0,1,1,1,675
1626,3,1,26,1,1,1,1,503
1627,3,1,27,9,0,0,1,684
1628,3,1,28,0,1,1,1,540
1629,3,1,29,19,0,0,1,727
1630,3,1,30,31,0,0,1,1130
1631,3,1,31,1,0,0,1,437
1632,3,1,32,31,1,1,1,826
1633,3,1,33,31,1,1,1,544
1634,3,1,34,31,1,1,1,595
1635,3,1,35,4,1,1,1,562
1636,3,1,36,9,1,1,1,516
1637,3,1,37,0,1,1,1,439
1638,3,1,38,31,1,1,0,444
1639,3,1,39,0,1,1,1,692
1640,3,1,40,0,1,1,1,470
1641,3,1,41,1,0,0,1,1026
1642,3,1,42,31,1,1,1,639
1643,3,1,43,19,0,0,1,734
1644,3,1,44,1,1,1,1,768
1645,3,1,45,31,0,0,1,894
1646,3,1,46,31,0,0,1,504
1647,3,1,47,19,1,1,1,811
1648,3,1,48,19,1,1,1,789
1649,3,1,49,4,0,0,1,633
1650,3,1,50,9,1,1,1,707
1651,3,1,51,19,0,0,1,643
1652,3,1,52,4,0,0,1,636
1653,3,1,53,1,0,0,1,430
1654,3,1,54,9,0,0,1,685
1655,3,1,55,31,0,0,1,558
1656,3,1,56,4,1,1,1,625
1657,3,1,57,19,0,0,1,609
1658,3,1,58,31,1,1,1,692
1659,3,1,59,31,0,0,1,631
1660,3,1,60,19,1,1,1,670
1661,3,1,61,31,0,0,1,597
1662,3,1,62,9,1,1,1,550
1663,3,1,63,31,1,1,1,581
1664,3,1,64,19,1,1,1,580
1665,3,1,65,31,1,1,1,536
1666,3,1,66,9,0,0,1,543
1667,3,1,67,31,0,0,1,587
1668,3,1,68,31,0,0,1,515
1669,3,1,69,31,1,1,1,472
1670,3,1,70,31,0,0,1,533
1671,3,1,71,9,0,0,1,437
1672,3,1,72,31,0,0,1,543
1673,3,1,73,9,1,1,1,661
1674,3,1,74,31,0,0,1,659
1675,3,1,75,31,1,1,1,646
1676,3,1,76,31,0,0,1,561
1677,3,1,77,1,0,0,1,447
1678,3,1,78,19,0,0,1,576
1679,3,1,79,1,1,1,1,539
1680,3,1,80,9,0,0,1,673
1681,3,1,81,19,1,1,1,487
1682,3,1,82,31,0,0,1,747
1683,3,1,83,4,1,1,1,614
1684,3,1,84,19,0,0,1,593
1685,3,1,85,31,1,1,1,504
1686,3,1,86,1,1,1,1,555
1687,3,1,87,1,0,0,1,504
1688,3,1,88,9,1,1,1,680
1689,3,1,89,9,1,1,1,401
1690,3,1,90,4,1,1,1,468
1691,3,1,91,1,0,0,1,622
1692,3,1,92,1,0,0,1,1104
1693,3,1,93,31,1,1,1,734
1694,3,1,94,31,0,0,1,937
1695,3,1,95,4,1,1,1,603
1696,3,1,96,4,0,0,1,650
1697,3,1,97,19,1,1,1,514
1698,3,1,98,9,1,1,1,744
1699,3,1,99,4,0,0,1,458
1700,3,1,100,19,1,1,1,567
1701,3,1,101,1,1,1,1,539
1702,3,1,102,1,1,1,1,452
1703,3,1,103,9,0,0,1,580
1704,3,1,104,0,1,1,1,442
1705,3,1,105,4,0,0,1,657
1706,3,1,106,31,0,0,1,585
1707,3,1,107,31,1,1,1,666
1708,3,1,108,31,1,1,1,764
1709,3,1,109,4,1,1,1,491
1710,3,1,110,19,1,1,1,461
1711,3,1,111,4,0,0,1,949
1712,3,1,112,19,0,0,1,572
1713,3,1,113,31,0,0,1,763
1714,3,1,114,4,0,0,1,519
1715,3,1,115,31,0,0,1,685
1716,3,1,116,1,1,1,1,813
1717,3,1,117,9,0,0,1,848
1718,3,1,118,31,1,1,1,1039
1719,3,1,119,1,1,1,1,832
1720,3,1,120,4,1,1,1,573
1721,3,1,121,1,1,1,1,481
1722,3,1,122,19,0,0,1,577
1723,3,1,123,4,0,0,1,378
1724,3,1,124,1,1,1,1,489
1725,3,1,125,9,0,0,1,1092
1726,3,1,126,19,1,1,0,518
1727,3,1,127,19,1,1,1,953
1728,3,1,128,1,1,1,1,688
1729,3,1,129,0,0,0,1,657
1730,3,1,130,9,1,1,1,724
1731,3,1,131,9,1,1,1,537
1732,3,1,132,1,0,0,1,698
1733,3,1,133,1,0,0,1,549
1734,3,1,134,1,0,0,1,464
1735,3,1,135,0,1,1,1,583
1736,3,1,136,4,0,0,1,708
1737,3,1,137,19,1,1,1,631
1738,3,1,138,4,0,0,1,722
1739,3,1,139,31,0,0,1,866
1740,3,1,140,4,0,0,1,501
1741,3,1,141,19,1,1,1,758
1742,3,1,142,4,1,1,1,547
1743,3,1,143,0,0,0,1,758
1744,3,1,144,4,1,1,1,684
1745,3,1,145,1,1,1,1,678
1746,3,1,146,19,0,0,1,818
1747,3,1,147,9,0,0,1,716
1748,3,1,148,31,0,0,1,704
1749,3,1,149,1,1,1,1,608
1750,3,1,150,31,0,0,1,697
1751,3,1,151,9,0,0,1,721
1752,3,1,152,4,1,1,1,458
1753,3,1,153,31,0,0,1,522
1754,3,1,154,9,0,0,1,567
1755,3,1,155,31,1,1,1,791
1756,3,1,156,9,1,1,1,836
1757,3,1,157,31,1,1,1,500
1758,3,1,158,19,0,0,1,839
1759,3,1,159,4,1,1,1,572
1760,3,1,160,1,1,1,1,475
1761,3,1,161,9,1,1,1,517
1762,3,1,162,19,0,0,1,812
1763,3,1,163,19,1,1,1,613
1764,3,1,164,1,1,1,1,452
1765,3,1,165,1,0,0,1,559
1766,3,1,166,31,1,1,1,441
1767,3,1,167,0,0,0,1,502
1768,3,1,168,19,0,0,1,667
1769,3,1,169,9,1,1,1,485
1770,3,1,170,9,1,1,1,506
1771,3,1,171,31,1,1,1,557
1772,3,1,172,1,1,1,1,419
1773,3,1,173,19,1,1,1,504
1774,3,1,174,9,1,1,1,456
1775,3,1,175,31,1,1,1,428
1776,3,1,176,1,0,0,1,457
1777,3,1,177,4,0,0,1,607
1778,3,1,178,1,0,0,1,451
1779,3,1,179,9,1,1,1,527
1780,3,1,180,4,0,0,1,671
1781,3,1,181,9,1,1,1,445
1782,3,1,182,4,1,1,1,497
1783,3,1,183,19,0,0,1,843
1784,3,1,184,31,0,0,1,648
1785,3,1,185,1,1,1,1,509
1786,3,1,186,31,1,1,1,407
1787,3,1,187,4,1,1,1,428
1788,3,1,188,31,1,1,1,504
1789,3,1,189,31,1,1,1,440
1790,3,1,190,1,0,0,1,462
1791,3,1,191,0,1,1,1,457
1792,3,1,192,1,1,1,1,539
1793,3,1,193,31,0,0,1,642
1794,3,1,194,19,0,0,1,1672
1795,3,1,195,19,0,0,1,1294
1796,3,1,196,4,0,0,1,504
1797,3,1,197,9,1,1,1,642
1798,3,1,198,1,1,1,1,825
1799,3,1,199,1,1,1,1,468
1800,3,1,200,4,1,1,1,489
1801,3,1,201,19,1,1,1,551
1802,3,1,202,4,1,1,1,605
1803,3,1,203,31,1,1,1,520
1804,3,1,204,9,0,0,1,637
1805,3,1,205,19,0,0,1,845
1806,3,1,206,9,1,1,1,838
1807,3,1,207,1,0,0,1,443
1808,3,1,208,4,1,1,1,473
1809,3,1,209,4,1,1,1,523
1810,3,1,210,31,0,0,1,488
1811,3,1,211,4,0,0,1,428
1812,3,1,212,31,1,1,1,492
1813,3,1,213,4,0,0,1,672
1814,3,1,214,1,0,0,1,419
1815,3,1,215,4,0,0,0,438
1816,3,1,216,19,1,1,1,644
1817,3,1,217,4,0,0,1,400
1818,3,1,218,9,0,0,1,406
1819,3,1,219,1,0,0,1,460
1820,3,1,220,1,1,1,1,411
1821,3,1,221,4,0,0,1,592
1822,3,1,222,19,0,0,1,470
1823,3,1,223,9,0,0,1,538
1824,3,1,224,19,1,1,1,1024
1825,3,1,225,31,1,1,1,596
1826,3,1,226,0,1,1,1,578
1827,3,1,227,1,0,0,1,409
1828,3,1,228,1,1,1,1,433
1829,3,1,229,9,0,0,1,740
1830,3,1,230,9,0,0,1,634
1831,3,1,231,31,0,0,1,1100
1832,3,1,232,19,1,1,1,599
1833,3,1,233,31,1,1,1,636
1834,3,1,234,19,1,1,1,435
1835,3,1,235,0,0,0,1,661
1836,3,1,236,19,0,0,1,583
1837,3,1,237,31,0,0,1,483
1838,3,1,238,31,0,0,1,525
1839,3,1,239,0,0,0,1,495
1840,3,1,240,1,0,0,1,434
1841,3,1,241,31,1,1,1,706
1842,3,1,242,9,1,1,1,537
1843,3,1,243,4,0,0,1,597
1844,3,1,244,31,0,0,1,571
1845,3,1,245,1,0,0,1,503
1846,3,1,246,0,0,0,1,441
1847,3,1,247,31,0,0,1,483
1848,3,1,248,1,0,0,1,461
1849,3,1,249,31,0,0,1,834
1850,3,1,250,9,1,1,1,810
1851,3,1,251,19,0,0,1,520
1852,3,1,252,9,1,1,1,582
1853,3,1,253,31,1,1,1,563
1854,3,1,254,0,1,1,1,374
1855,3,1,255,9,0,0,1,492
1856,3,1,256,1,1,1,1,575
1857,3,1,257,9,0,0,1,740
1858,3,1,258,19,0,0,1,494
1859,3,1,259,1,0,0,1,412
1860,3,1,260,1,1,1,1,510
1861,3,1,261,0,1,1,1,455
1862,3,1,262,4,1,1,1,821
1863,3,1,263,9,0,0,1,480
1864,3,1,264,4,1,1,1,391
1865,3,1,265,19,0,0,1,467
1866,3,1,266,1,1,1,1,537
1867,3,1,267,19,0,0,1,476
1868,3,1,268,19,1,1,1,687
1869,3,1,269,19,1,1,1,513
1870,3,1,270,1,0,0,1,439
1871,3,1,271,4,0,0,1,635
1872,3,1,272,4,1,1,1,613
1873,3,1,273,19,0,0,1,1103
1874,3,1,274,0,0,0,1,576
1875,3,1,275,4,0,0,1,453
1876,3,1,276,1,1,1,1,487
1877,3,1,277,19,1,1,1,532
1878,3,1,278,9,1,1,1,539
1879,3,1,279,1,0,0,1,440
1880,3,1,280,31,1,1,1,434
1881,3,1,281,1,1,1,1,511
1882,3,1,282,19,0,0,1,901
1883,3,1,283,31,0,0,1,490
1884,3,1,284,4,1,1,1,369
1885,3,1,285,19,1,1,1,573
1886,3,1,286,31,0,0,1,724
1887,3,1,287,19,1,1,1,526
1888,3,1,288,0,0,0,1,592
1889,3,1,289,9,0,0,1,386
1890,3,1,290,0,0,0,1,435
1891,3,1,291,19,0,0,1,442
1892,3,1,292,19,1,1,1,507
1893,3,1,293,1,0,0,1,450
1894,3,1,294,9,0,0,1,731
1895,3,1,295,9,0,0,1,638
1896,3,1,296,19,1,1,1,674
1897,3,1,297,9,1,1,1,494
1898,3,1,298,9,0,0,1,533
1899,3,1,299,19,0,0,1,468
1900,3,1,300,19,1,1,1,622
1901,3,1,301,31,1,1,1,458
1902,3,1,302,1,1,1,1,424
1903,3,1,303,1,0,0,1,370
1904,3,1,304,19,0,0,1,413
1905,3,1,305,4,0,0,1,409
1906,3,1,306,1,0,0,1,540
1907,3,1,307,4,1,1,1,416
1908,3,1,308,1,0,0,1,551
1909,3,1,309,4,0,0,1,426
1910,3,1,310,19,1,1,1,525
1911,3,1,311,19,0,0,1,439
1912,3,1,312,31,1,1,1,521
1913,3,1,313,19,1,1,1,533
1914,3,1,314,9,1,1,1,852
1915,3,1,315,9,1,1,1,552
1916,3,1,316,1,1,1,1,796
1917,3,1,317,0,0,0,1,493
1918,3,1,318,19,0,0,1,579
1919,3,1,319,9,1,1,1,558
1920,3,1,320,31,0,0,1,520
1921,3,1,321,9,0,0,1,452
1922,3,1,322,31,0,0,0,458
1923,3,1,323,9,1,1,1,683
1924,3,1,324,31,1,1,1,552
1925,3,1,325,4,1,1,1,463
1926,3,1,326,1,0,0,1,521
1927,3,1,327,19,0,0,1,537
1928,3,1,328,4,1,1,1,496
1929,3,1,329,19,1,1,1,411
1930,3,1,330,9,1,1,1,1073
1931,3,1,331,31,0,0,1,595
1932,3,1,332,1,1,1,1,517
1933,3,1,333,4,1,1,1,737
1934,3,1,334,9,0,0,1,560
1935,3,1,335,19,0,0,1,522
1936,3,1,336,31,1,1,1,615
1937,3,1,337,31,1,1,1,405
1938,3,1,338,1,0,0,1,502
1939,3,1,339,9,0,0,1,593
1940,3,1,340,1,0,0,1,455
1941,3,1,341,1,1,1,1,726
1942,3,1,342,31,1,1,1,492
1943,3,1,343,19,1,1,1,537
1944,3,1,344,31,1,1,1,546
1945,3,1,345,1,0,0,1,814
1946,3,1,346,31,1,1,1,450
1947,3,1,347,9,0,0,1,414
1948,3,1,348,1,0,0,1,458
1949,3,1,349,19,1,1,1,646
1950,3,1,350,31,0,0,1,582
1951,3,1,351,19,1,1,1,564
1952,3,1,352,1,1,1,1,430
1953,3,1,353,4,0,0,1,591
1954,3,1,354,1,0,0,1,698
1955,3,1,355,31,1,1,1,579
1956,3,1,356,0,1,1,1,627
1957,3,1,357,1,1,1,1,455
1958,3,1,358,1,0,0,1,547
1959,3,1,359,19,0,0,0,465
1960,3,1,360,4,0,0,1,433
1961,3,1,361,4,0,0,1,529
1962,3,1,362,1,0,0,1,501
1963,3,1,363,31,1,1,1,590
1964,3,1,364,19,1,1,1,500
1965,3,1,365,31,1,1,0,349
1966,3,1,366,31,1,1,1,549
1967,3,1,367,31,0,0,1,797
1968,3,1,368,1,1,1,1,625
1969,3,1,369,19,1,1,1,598
1970,3,1,370,9,0,0,1,533
1971,3,1,371,9,0,0,0,544
1972,3,1,372,19,1,1,1,768
1973,3,1,373,4,0,0,1,560
1974,3,1,374,1,0,0,1,521
1975,3,1,375,0,0,0,1,496
1976,3,1,376,31,1,1,1,707
1977,3,1,377,1,1,1,1,818
1978,3,1,378,4,0,0,1,886
1979,3,1,379,19,1,1,1,612
1980,3,1,380,19,1,1,1,948
1981,3,1,381,31,0,0,1,642
1982,3,1,382,9,0,0,1,643
1983,3,1,383,0,1,1,1,650
1984,3,1,384,4,0,0,1,569
1985,3,1,385,19,1,1,1,638
1986,3,1,386,9,1,1,1,596
1987,3,1,387,31,0,0,1,745
1988,3,1,388,31,0,0,1,445
1989,3,1,389,19,1,1,1,460
1990,3,1,390,9,1,1,1,487
1991,3,1,391,19,0,0,1,1035
1992,3,1,392,19,0,0,1,751
1993,3,1,393,9,1,1,1,803
1994,3,1,394,9,1,1,1,695
1995,3,1,395,1,1,1,1,557
1996,3,1,396,4,0,0,1,565
1997,3,1,397,1,0,0,1,469
1998,3,1,398,1,0,0,1,513
1999,3,1,399,0,1,1,1,424
2000,3,1,400,19,1,1,1,672
2001,3,1,401,19,1,1,1,639
2002,3,1,402,9,1,1,1,596
2003,3,1,403,0,1,1,1,386
2004,3,1,404,19,1,1,1,424
2005,3,1,405,9,0,0,1,639
2006,3,1,406,0,1,1,1,472
2007,3,1,407,31,0,0,1,609
2008,3,1,408,19,0,0,1,553
2009,3,1,409,31,1,1,1,453
2010,3,1,410,31,1,1,1,726
2011,3,1,411,4,1,1,1,824
2012,3,1,412,9,0,0,1,538
2013,3,1,413,1,1,1,1,746
2014,3,1,414,9,0,0,1,522
2015,3,1,415,9,0,0,1,490
2016,3,1,416,4,0,0,1,903
2017,3,1,417,19,1,1,1,782
2018,3,1,418,1,1,1,1,519
2019,3,1,419,4,1,1,1,570
2020,3,1,420,4,0,0,1,655
2021,3,1,421,4,1,1,1,706
2022,3,1,422,19,1,1,1,717
2023,3,1,423,31,0,0,0,529
2024,3,1,424,31,1,1,1,522
2025,3,1,425,9,0,0,1,812
2026,3,1,426,9,1,1,1,556
2027,3,1,427,1,0,0,1,507
2028,3,1,428,19,0,0,1,788
2029,3,1,429,19,0,0,1,855
2030,3,1,430,4,1,1,1,1026
2031,3,1,431,9,1,1,1,527
2032,3,1,432,4,0,0,1,753
2033,3,1,433,1,0,0,1,660
2034,3,1,434,4,0,0,1,498
2035,3,1,435,31,1,1,1,1375
2036,3,1,436,31,0,0,1,670
2037,3,1,437,31,0,0,1,725
2038,3,1,438,19,0,0,1,574
2039,3,1,439,4,1,1,1,588
2040,3,1,440,19,0,0,1,536
2041,3,1,441,1,1,1,1,608
2042,3,1,442,4,1,1,1,468
2043,3,1,443,4,1,1,1,571
2044,3,1,444,9,1,1,1,622
2045,3,1,445,1,0,0,1,512
2046,3,1,446,19,0,0,1,719
2047,3,1,447,19,0,0,1,813
2048,3,1,448,19,1,1,1,829
2049,3,1,449,1,0,0,1,548
2050,3,1,450,4,0,0,1,520
2051,3,1,451,31,0,0,1,831
2052,3,1,452,1,1,1,1,1068
2053,3,1,453,19,0,0,1,577
2054,3,1,454,19,0,0,1,535
2055,3,1,455,9,0,0,1,511
2056,3,1,456,1,1,1,1,637
2057,3,1,457,19,0,0,1,562
2058,3,1,458,4,0,0,1,510
2059,3,1,459,9,1,1,1,1046
2060,3,1,460,19,0,0,1,565
2061,3,1,461,19,0,0,1,796
2062,3,1,462,19,1,1,1,562
2063,3,1,463,4,1,1,1,501
2064,3,1,464,1,0,0,1,534
2065,3,1,465,4,0,0,1,535
2066,3,1,466,9,0,0,1,410
2067,3,1,467,9,0,0,1,363
2068,3,1,468,9,1,1,1,464
2069,3,1,469,1,1,1,1,495
2070,3,1,470,19,1,1,1,503
2071,3,1,471,0,1,1,1,451
2072,3,1,472,1,1,1,1,422
2073,3,1,473,4,1,1,1,417
2074,3,1,474,9,0,0,1,384
2075,3,1,475,31,1,1,1,554
2076,3,1,476,1,0,0,1,558
2077,3,1,477,4,0,0,1,738
2078,3,1,478,9,0,0,1,427
2079,3,1,479,1,1,1,1,370
2080,3,1,480,31,1,1,1,610
2081,3,1,481,4,0,0,1,824
2082,3,1,482,31,1,1,1,569
2083,3,1,483,31,0,0,1,669
2084,3,1,484,1,0,0,1,572
2085,3,1,485,4,0,0,1,647
2086,3,1,486,31,0,0,1,381
2087,3,1,487,1,1,1,1,427
2088,3,1,488,9,1,1,1,542
2089,3,1,489,31,1,1,1,570
2090,3,1,490,19,1,1,1,592
2091,3,1,491,1,1,1,1,609
2092,3,1,492,4,0,0,1,985
2093,3,1,493,4,1,1,1,1089
2094,3,1,494,1,0,0,1,575
2095,3,1,495,31,0,0,1,826
2096,3,1,496,31,0,0,1,897
2097,3,1,497,19,1,1,1,546
2098,3,1,498,19,1,1,1,1711
2099,3,1,499,19,0,0,1,875
2100,3,1,500,9,1,1,1,739
2101,3,1,501,0,1,1,1,569
2102,3,1,502,4,0,0,1,615
2103,3,1,503,19,0,0,1,457
2104,3,1,504,19,1,1,1,652
2105,3,1,505,31,0,3,0,599
2106,3,1,506,31,1,1,1,982
2107,3,1,507,31,0,0,1,460
2108,3,1,508,31,1,1,1,557
2109,3,1,509,0,0,0,1,528
2110,3,1,510,1,1,1,1,637
2111,3,1,511,9,1,1,1,544
2112,3,1,512,9,0,0,1,513
2113,3,1,513,19,1,1,1,456
2114,3,1,514,9,0,0,1,676
2115,3,1,515,1,0,0,1,466
2116,3,1,516,4,1,1,1,469
2117,3,1,517,4,0,0,1,510
2118,3,1,518,4,0,0,1,552
2119,3,1,519,0,0,0,1,466
2120,3,1,520,31,0,0,1,503
2121,3,1,521,4,0,0,1,565
2122,3,1,522,4,1,1,1,505
2123,3,1,523,9,0,0,1,670
2124,3,1,524,31,0,0,1,481
2125,3,1,525,4,0,0,1,611
2126,3,1,526,19,0,0,1,587
2127,3,1,527,9,1,1,1,754
2128,3,1,528,0,0,0,1,686
2129,3,1,529,9,0,0,1,586
2130,3,1,530,19,0,0,1,628
2131,3,1,531,19,0,0,1,594
2132,3,1,532,19,0,0,1,638
2133,3,1,533,4,1,1,1,640
2134,3,1,534,19,0,0,1,581
2135,3,1,535,4,1,1,1,510
2136,3,1,536,19,1,1,1,468
2137,3,1,537,4,0,0,1,449
2138,3,1,538,0,0,0,1,438
2139,3,1,539,9,1,1,1,593
2140,3,1,540,31,1,1,1,778
2141,3,1,541,1,0,0,1,787
2142,3,1,542,19,0,0,1,706
2143,3,1,543,9,1,1,1,600
2144,3,1,544,9,1,1,1,628
2145,3,1,545,4,1,1,1,748
2146,3,1,546,31,0,0,1,740
2147,3,1,547,4,0,0,1,641
2148,3,1,548,19,0,0,1,529
2149,3,1,549,0,0,0,1,512
2150,3,1,550,0,0,0,1,488
2151,3,1,551,19,1,1,1,691
2152,3,1,552,4,1,1,1,596
2153,3,1,553,19,1,1,1,818
2154,3,1,554,31,1,1,1,688
2155,3,1,555,19,0,0,1,541
2156,3,1,556,0,1,1,1,509
2157,3,1,557,1,0,0,1,427
2158,3,1,558,31,0,0,1,644
2159,3,1,559,4,1,1,1,498
2160,3,1,560,31,0,0,1,634
2161,3,1,561,1,0,0,1,505
2162,3,1,562,9,1,1,1,531
2163,3,1,563,0,0,0,1,525
2164,3,1,564,19,1,1,1,570
2165,3,1,565,31,1,1,1,593
2166,3,1,566,31,1,1,1,600
2167,3,1,567,1,1,1,1,555
2168,3,1,568,9,1,1,1,651
2169,3,1,569,31,1,1,1,850
2170,3,1,570,4,1,1,1,528
2171,3,1,571,9,0,0,1,768
2172,3,1,572,1,0,0,1,543
2173,3,1,573,31,1,1,1,563
2174,3,1,574,4,1,1,1,599
2175,3,1,575,9,0,0,1,755
2176,3,1,576,9,0,0,1,658
2177,3,1,577,31,0,0,1,612
2178,3,1,578,31,1,1,1,716
2179,3,1,579,4,1,1,1,504
2180,3,1,580,1,1,1,1,637
2181,3,1,581,9,0,0,1,571
2182,3,1,582,31,0,0,1,647
2183,3,1,583,31,0,0,1,674
2184,3,1,584,19,0,0,1,435
2185,3,1,585,19,1,1,1,409
2186,3,1,586,1,0,0,1,426
2187,3,1,587,0,1,1,1,546
2188,3,1,588,1,0,0,1,515
2189,3,1,589,4,0,0,1,505
2190,3,1,590,4,0,0,1,604
2191,3,1,591,9,0,0,1,688
2192,3,1,592,4,1,1,1,852
2193,3,1,593,4,0,0,1,1524
2194,3,1,594,31,0,0,1,1018
2195,3,1,595,4,0,0,1,379
2196,3,1,596,19,1,1,0,502
2197,3,1,597,4,0,0,1,474
2198,3,1,598,9,0,0,1,557
2199,3,1,599,9,0,0,1,534
2200,3,1,600,4,0,0,1,564
2201,3,1,601,1,0,0,1,588
2202,3,1,602,4,0,0,1,423
2203,3,1,603,31,0,0,1,564
2204,3,1,604,4,1,1,1,774
2205,3,1,605,4,1,1,1,472
2206,3,1,606,9,1,1,1,481
2207,3,1,607,9,1,1,1,666
2208,3,1,608,31,1,1,1,546
2209,3,1,609,4,1,1,1,650
2210,3,1,610,0,0,0,1,578
2211,3,1,611,0,1,1,1,602
2212,3,1,612,19,1,1,1,556
2213,3,1,613,19,1,1,1,502
2214,3,1,614,4,1,1,1,642
2215,3,1,615,4,0,0,1,629
2216,3,1,616,19,1,1,1,607
2217,3,1,617,4,0,0,1,605
2218,3,1,618,1,1,1,1,525
2219,3,1,619,9,1,1,1,546
2220,3,1,620,9,1,1,1,740
2221,3,1,621,9,1,1,1,560
2222,3,1,622,9,1,1,1,443
2223,3,1,623,9,0,0,1,497
2224,3,1,624,4,0,0,1,633
2225,3,1,625,31,1,1,1,748
2226,3,1,626,4,1,1,1,486
2227,3,1,627,4,0,0,1,633
2228,3,1,628,9,0,0,1,516
2229,3,1,629,0,0,0,1,553
2230,3,1,630,31,1,1,1,810
2231,3,1,631,19,0,0,1,696
2232,3,1,632,31,0,0,1,474
2233,3,1,633,4,0,0,1,531
2234,3,1,634,1,1,1,1,523
2235,3,1,635,4,1,1,1,430
2236,3,1,636,9,0,0,1,450
2237,3,1,637,4,1,1,1,405
2238,3,1,638,1,1,1,1,387
2239,3,1,639,4,0,0,1,443
2240,3,1,640,19,1,1,1,384
2241,3,1,641,31,0,0,1,703
2242,3,1,642,31,0,0,1,522
2243,3,1,643,9,0,0,1,809
2244,3,1,644,19,0,0,1,571
2245,3,1,645,9,1,1,1,803
2246,3,1,646,19,0,0,1,479
2247,3,1,647,0,0,0,1,669
2248,3,1,648,31,1,1,1,552
2249,3,1,649,0,0,0,1,397
2250,3,1,650,9,1,1,1,597
2251,3,1,651,9,1,1,1,359
2252,3,1,652,1,1,1,1,617
2253,3,1,653,9,0,0,1,609
2254,3,1,654,19,1,1,1,576
2255,3,1,655,4,1,1,1,559
2256,3,1,656,9,1,1,1,568
2257,3,1,657,1,0,0,1,623
2258,3,1,658,1,1,1,1,579
2259,3,1,659,9,0,0,1,667
2260,3,1,660,9,1,1,1,489
2261,3,1,661,4,1,1,1,536
2262,3,1,662,4,1,1,1,861
2263,3,1,663,4,0,0,1,461
2264,3,1,664,4,1,1,0,620
2265,3,1,665,1,0,0,1,825
2266,3,1,666,9,0,0,1,679
2267,3,1,667,1,0,0,1,580
2268,3,1,668,4,1,1,1,481
2269,3,1,669,31,1,1,1,511
2270,3,1,670,4,0,0,1,706
2271,3,1,671,31,0,0,1,598
2272,3,1,672,19,0,0,1,567
2273,3,1,673,9,1,1,1,518
2274,3,1,674,0,0,0,1,472
2275,3,1,675,4,1,1,1,841
2276,3,1,676,9,0,0,1,612
2277,3,1,677,31,1,1,1,660
2278,3,1,678,1,0,0,1,644
2279,3,1,679,4,1,1,1,626
2280,3,1,680,9,1,1,1,468
2281,3,1,681,19,0,0,1,797
2282,3,1,682,31,1,1,1,606
2283,3,1,683,4,1,1,1,687
2284,3,1,684,19,0,0,1,1090
2285,3,1,685,9,1,1,1,928
2286,3,1,686,19,1,1,1,541
2287,3,1,687,9,0,0,1,687
2288,3,1,688,4,0,0,1,716
2289,3,1,689,1,0,0,1,719
2290,3,1,690,0,1,1,1,1532
2291,3,1,691,9,1,1,1,525
2292,3,1,692,1,1,1,1,432
2293,3,1,693,4,1,1,1,543
2294,3,1,694,9,0,0,1,587
2295,3,1,695,9,1,1,1,619
2296,3,1,696,31,0,0,1,837
2297,3,1,697,1,1,1,1,585
2298,3,1,698,4,1,1,1,449
2299,3,1,699,9,0,0,1,704
2300,3,1,700,0,1,1,1,505
2301,3,1,701,31,0,0,1,675
2302,3,1,702,1,0,0,1,471
2303,3,1,703,19,0,0,1,418
2304,3,1,704,4,0,0,1,608
2305,3,1,705,1,1,1,1,415
2306,3,1,706,19,1,1,1,527
2307,3,1,707,19,1,1,1,507
2308,3,1,708,9,1,1,1,531
2309,3,1,709,1,1,1,1,556
2310,3,1,710,1,0,0,1,565
2311,3,1,711,31,0,0,1,591
2312,3,1,712,19,1,1,1,657
2313,3,1,713,1,0,0,1,437
2314,3,1,714,4,1,1,1,404
2315,3,1,715,9,0,0,1,543
2316,3,1,716,4,0,0,1,631
2317,3,1,717,1,1,1,1,490
2318,3,1,718,4,1,1,1,424
2319,3,1,719,1,1,1,1,400
2320,3,1,720,1,1,1,1,362
2321,3,1,721,19,1,1,1,333
2322,3,1,722,9,1,1,1,357
2323,3,1,723,9,0,0,1,659
2324,3,1,724,19,0,0,1,563
2325,3,1,725,9,0,0,1,537
2326,3,1,726,31,1,1,1,731
2327,3,1,727,0,1,1,1,434
2328,3,1,728,9,0,0,1,492
2329,3,1,729,31,0,0,1,623
2330,3,1,730,9,1,1,1,492
2331,3,1,731,1,1,1,1,444
2332,3,1,732,19,0,0,1,815
2333,3,1,733,9,0,0,1,619
2334,3,1,734,9,1,1,1,530
2335,3,1,735,4,1,1,1,557
2336,3,1,736,19,0,0,0,509
2337,3,1,737,31,1,1,1,812
2338,3,1,738,0,0,0,1,635
2339,3,1,739,19,0,0,1,611
2340,3,1,740,9,0,0,1,452
2341,3,1,741,9,1,1,1,604
2342,3,1,742,4,1,1,1,525
2343,3,1,743,0,0,0,1,572
2344,3,1,744,31,1,1,1,671
2345,3,1,745,1,1,1,1,487
2346,3,1,746,1,0,0,1,872
2347,3,1,747,9,0,0,1,465
2348,3,1,748,1,0,0,1,609
2349,3,1,749,19,0,0,1,671
2350,3,1,750,9,1,1,1,603
2351,3,1,751,9,0,0,1,551
2352,3,1,752,9,1,1,1,445
2353,3,1,753,1,0,0,1,454
2354,3,1,754,1,0,0,1,440
2355,3,1,755,31,0,0,1,493
2356,3,1,756,31,1,1,1,591
2357,3,1,757,19,0,0,1,641
2358,3,1,758,1,1,1,1,581
2359,3,1,759,4,1,1,1,517
2360,3,1,760,1,0,0,1,626
2361,3,1,761,9,0,0,1,539
2362,3,1,762,1,1,1,1,401
2363,3,1,763,1,1,1,1,512
2364,3,1,764,4,1,1,1,548
2365,3,1,765,1,1,1,1,507
2366,3,1,766,1,1,1,1,368
2367,3,1,767,9,0,0,1,486
2368,3,1,768,9,0,0,1,560
2369,3,1,769,19,0,0,1,602
2370,3,1,770,1,0,0,1,400
2371,3,1,771,9,0,0,1,743
2372,3,1,772,1,0,0,1,389
2373,3,1,773,0,1,1,0,297
2374,3,1,774,1,1,1,1,693
2375,3,1,775,4,1,1,1,548
2376,3,1,776,19,1,1,1,434
2377,3,1,777,31,0,0,1,583
2378,3,1,778,31,1,1,1,583
2379,3,1,779,19,0,0,0,531
2380,3,1,780,4,0,0,1,533
2381,3,1,781,1,0,0,1,464
2382,3,1,782,4,1,1,1,484
2383,3,1,783,4,1,1,1,542
2384,3,1,784,1,1,1,1,485
2385,3,1,785,4,0,0,1,424
2386,3,1,786,1,0,0,1,473
2387,3,1,787,9,1,1,1,548
2388,3,1,788,4,1,1,1,386
2389,3,1,789,1,1,1,1,391
2390,3,1,790,1,0,0,1,510
2391,3,1,791,31,0,0,1,571
2392,3,1,792,1,1,1,1,352
2393,3,1,793,9,1,1,0,391
2394,3,1,794,19,0,0,1,470
2395,3,1,795,4,0,0,0,347
2396,3,1,796,1,0,0,1,527
2397,3,1,797,19,0,0,1,506
2398,3,1,798,9,1,1,1,554
2399,3,1,799,19,1,1,1,405
2400,3,1,800,31,1,1,1,463
2401,4,1,1,31,0,0,1,1574
2402,4,1,2,31,1,1,1,790
2403,4,1,3,9,0,0,1,869
2404,4,1,4,19,0,0,1,953
2405,4,1,5,31,1,1,1,645
2406,4,1,6,31,1,1,1,671
2407,4,1,7,31,1,1,1,704
2408,4,1,8,4,1,1,1,629
2409,4,1,9,9,1,1,1,692
2410,4,1,10,31,1,1,1,628
2411,4,1,11,4,0,0,1,558
2412,4,1,12,4,0,0,1,612
2413,4,1,13,1,1,1,1,514
2414,4,1,14,31,0,0,1,530
2415,4,1,15,1,1,1,1,491
2416,4,1,16,4,1,1,1,783
2417,4,1,17,19,1,1,1,893
2418,4,1,18,1,0,0,1,634
2419,4,1,19,31,1,1,1,553
2420,4,1,20,4,0,0,1,881
2421,4,1,21,4,0,0,1,965
2422,4,1,22,0,0,0,1,579
2423,4,1,23,19,1,1,1,515
2424,4,1,24,1,1,1,1,592
2425,4,1,25,4,1,1,1,511
2426,4,1,26,1,0,0,1,680
2427,4,1,27,19,1,1,1,547
2428,4,1,28,19,1,1,1,501
2429,4,1,29,4,0,0,1,570
2430,4,1,30,19,0,0,1,651
2431,4,1,31,4,1,1,1,446
2432,4,1,32,9,0,0,1,622
2433,4,1,33,1,1,1,1,721
2434,4,1,34,31,1,1,1,948
2435,4,1,35,19,1,1,1,692
2436,4,1,36,4,0,0,1,717
2437,4,1,37,9,0,0,1,680
2438,4,1,38,31,1,1,1,678
2439,4,1,39,4,1,1,1,518
2440,4,1,40,1,1,1,1,620
2441,4,1,41,19,0,0,1,708
2442,4,1,42,9,0,0,1,600
2443,4,1,43,19,0,0,1,987
2444,4,1,44,1,0,0,1,694
2445,4,1,45,4,1,1,1,770
2446,4,1,46,19,1,1,1,850
2447,4,1,47,9,0,0,1,924
2448,4,1,48,4,0,0,1,744
2449,4,1,49,1,1,1,1,827
2450,4,1,50,1,1,1,1,616
2451,4,1,51,9,1,1,1,1249
2452,4,1,52,9,0,0,1,621
2453,4,1,53,0,0,0,1,538
2454,4,1,54,1,0,0,1,633
2455,4,1,55,9,0,0,1,655
2456,4,1,56,4,1,1,1,788
2457,4,1,57,9,0,0,1,654
2458,4,1,58,31,1,1,1,774
2459,4,1,59,19,1,1,1,812
2460,4,1,60,31,0,0,1,618
2461,4,1,61,19,0,0,1,665
2462,4,1,62,4,1,1,1,580
2463,4,1,63,19,1,1,1,565
2464,4,1,64,0,1,1,1,551
2465,4,1,65,0,0,0,1,532
2466,4,1,66,19,1,1,1,669
2467,4,1,67,4,0,0,1,653
2468,4,1,68,9,0,0,1,565
2469,4,1,69,1,1,1,1,550
2470,4,1,70,31,0,0,1,537
2471,4,1,71,1,1,1,1,525
2472,4,1,72,9,0,0,1,629
2473,4,1,73,1,0,0,1,511
2474,4,1,74,1,0,0,1,438
2475,4,1,75,19,1,1,1,533
2476,4,1,76,31,1,1,1,542
2477,4,1,77,4,0,0,1,537
2478,4,1,78,9,0,0,1,536
2479,4,1,79,31,0,0,1,522
2480,4,1,80,19,1,1,1,589
2481,4,1,81,4,0,0,1,486
2482,4,1,82,0,0,0,1,613
2483,4,1,83,1,1,1,1,527
2484,4,1,84,31,0,0,1,493
2485,4,1,85,4,0,0,1,471
2486,4,1,86,4,0,0,1,470
2487,4,1,87,0,0,0,1,394
2488,4,1,88,31,1,1,1,627
2489,4,1,89,19,1,1,1,588
2490,4,1,90,1,0,0,1,585
2491,4,1,91,9,1,1,1,628
2492,4,1,92,1,1,1,1,555
2493,4,1,93,19,0,0,1,836
2494,4,1,94,1,0,0,1,696
2495,4,1,95,31,1,1,1,490
2496,4,1,96,1,0,0,0,709
2497,4,1,97,9,1,1,1,577
2498,4,1,98,0,1,1,1,434
2499,4,1,99,4,0,0,1,455
2500,4,1,100,19,1,1,1,687
2501,4,1,101,9,0,0,1,631
2502,4,1,102,31,1,1,1,647
2503,4,1,103,31,0,0,1,588
2504,4,1,104,9,1,1,1,666
2505,4,1,105,1,1,1,1,649
2506,4,1,106,1,0,0,1,603
2507,4,1,107,31,1,1,1,628
2508,4,1,108,9,0,0,1,557
2509,4,1,109,4,1,1,1,438
2510,4,1,110,9,0,0,1,499
2511,4,1,111,19,1,1,1,667
2512,4,1,112,9,1,1,1,490
2513,4,1,113,9,0,0,1,519
2514,4,1,114,4,0,0,1,591
2515,4,1,115,19,0,0,1,604
2516,4,1,116,31,0,0,1,506
2517,4,1,117,19,0,0,1,505
2518,4,1,118,4,0,0,1,371
2519,4,1,119,9,1,1,1,635
2520,4,1,120,4,1,1,1,424
2521,4,1,121,31,1,1,1,609
2522,4,1,122,0,0,0,1,496
2523,4,1,123,1,0,0,1,490
2524,4,1,124,31,0,0,1,549
2525,4,1,125,1,1,1,1,566
2526,4,1,126,31,1,1,1,699
2527,4,1,127,4,0,0,1,459
2528,4,1,128,9,1,1,1,885
2529,4,1,129,9,0,0,1,600
2530,4,1,130,9,1,1,1,528
2531,4,1,131,19,0,0,1,543
2532,4,1,132,4,0,0,1,544
2533,4,1,133,1,1,1,1,507
2534,4,1,134,19,0,0,1,583
2535,4,1,135,19,1,1,1,521
2536,4,1,136,0,1,1,1,476
2537,4,1,137,31,1,1,1,661
2538,4,1,138,4,1,1,1,640
2539,4,1,139,19,0,0,1,676
2540,4,1,140,4,0,0,1,492
2541,4,1,141,31,0,0,1,416
2542,4,1,142,9,0,0,1,562
2543,4,1,143,31,0,0,1,649
2544,4,1,144,9,1,1,1,561
2545,4,1,145,31,1,1,1,525
2546,4,1,146,0,1,1,1,491
2547,4,1,147,31,1,1,1,608
2548,4,1,148,1,1,1,1,486
2549,4,1,149,9,0,0,1,546
2550,4,1,150,1,0,0,1,524
2551,4,1,151,4,1,1,1,633
2552,4,1,152,9,0,0,1,697
2553,4,1,153,19,1,1,1,525
2554,4,1,154,19,1,1,1,596
2555,4,1,155,1,0,0,1,598
2556,4,1,156,1,1,1,1,684
2557,4,1,157,9,0,0,1,580
2558,4,1,158,1,1,1,1,474
2559,4,1,159,31,0,0,1,617
2560,4,1,160,4,0,0,1,637
2561,4,1,161,4,0,0,1,591
2562,4,1,162,19,0,0,1,851
2563,4,1,163,4,0,0,1,522
2564,4,1,164,31,0,0,1,554
2565,4,1,165,1,1,1,1,683
2566,4,1,166,4,0,0,1,670
2567,4,1,167,19,1,1,1,612
2568,4,1,168,1,1,1,1,523
2569,4,1,169,9,0,0,1,722
2570,4,1,170,1,1,1,1,665
2571,4,1,171,4,1,1,1,802
2572,4,1,172,0,0,0,1,768
2573,4,1,173,4,1,1,1,663
2574,4,1,174,1,1,1,1,556
2575,4,1,175,4,0,0,1,654
2576,4,1,176,1,1,1,1,610
2577,4,1,177,0,0,0,1,558
2578,4,1,178,9,1,1,1,588
2579,4,1,179,31,0,0,1,551
2580,4,1,180,31,0,0,1,641
2581,4,1,181,31,1,1,1,626
2582,4,1,182,31,0,0,1,565
2583,4,1,183,1,0,0,1,524
2584,4,1,184,31,0,0,1,648
2585,4,1,185,19,1,1,1,773
2586,4,1,186,9,1,1,1,563
2587,4,1,187,1,1,1,1,606
2588,4,1,188,9,0,0,1,606
2589,4,1,189,31,0,0,1,1112
2590,4,1,190,31,1,1,1,722
2591,4,1,191,31,1,1,1,603
2592,4,1,192,1,0,0,1,592
2593,4,1,193,19,0,0,1,692
2594,4,1,194,19,0,0,1,749
2595,4,1,195,9,1,1,1,663
2596,4,1,196,19,1,1,1,697
2597,4,1,197,19,1,1,1,671
2598,4,1,198,4,0,0,1,586
2599,4,1,199,9,0,0,1,459
2600,4,1,200,9,1,1,1,561
2601,4,1,201,19,0,0,1,828
2602,4,1,202,4,0,0,1,908
2603,4,1,203,0,0,0,1,622
2604,4,1,204,9,0,0,1,934
2605,4,1,205,4,0,0,1,685
2606,4,1,206,31,0,0,1,668
2607,4,1,207,4,0,0,1,479
2608,4,1,208,31,0,0,1,666
2609,4,1,209,1,0,0,1,502
2610,4,1,210,4,0,0,1,595
2611,4,1,211,4,0,0,1,606
2612,4,1,212,1,1,1,1,1036
2613,4,1,213,1,1,1,1,637
2614,4,1,214,4,1,1,1,523
2615,4,1,215,0,1,1,1,601
2616,4,1,216,4,1,1,1,666
2617,4,1,217,4,0,0,1,694
2618,4,1,218,4,1,1,1,815
2619,4,1,219,9,1,1,1,771
2620,4,1,220,9,0,0,1,636
2621,4,1,221,19,0,0,1,719
2622,4,1,222,4,0,0,1,512
2623,4,1,223,31,1,1,1,812
2624,4,1,224,9,0,0,1,588
2625,4,1,225,0,0,0,1,562
2626,4,1,226,31,0,0,1,635
2627,4,1,227,4,0,0,1,702
2628,4,1,228,4,1,1,1,970
2629,4,1,229,9,1,1,1,644
2630,4,1,230,4,0,0,1,687
2631,4,1,231,4,0,0,1,787
2632,4,1,232,31,1,1,1,995
2633,4,1,233,31,0,0,1,675
2634,4,1,234,19,0,0,1,641
2635,4,1,235,1,0,0,1,660
2636,4,1,236,0,0,0,1,581
2637,4,1,237,9,1,1,1,966
2638,4,1,238,1,1,1,1,678
2639,4,1,239,0,0,0,1,476
2640,4,1,240,1,1,1,1,581
2641,4,1,241,1,0,0,1,643
2642,4,1,242,19,0,0,1,580
2643,4,1,243,1,1,1,1,883
2644,4,1,244,1,0,0,1,607
2645,4,1,245,1,0,0,1,607
2646,4,1,246,19,0,0,1,649
2647,4,1,247,1,0,0,1,594
2648,4,1,248,9,0,0,1,637
2649,4,1,249,31,1,1,1,874
2650,4,1,250,19,1,1,1,936
2651,4,1,251,1,0,0,1,614
2652,4,1,252,19,0,0,1,617
2653,4,1,253,4,1,1,1,569
2654,4,1,254,9,1,1,1,812
2655,4,1,255,31,0,0,1,877
2656,4,1,256,31,1,1,1,704
2657,4,1,257,4,1,1,1,670
2658,4,1,258,9,1,1,1,619
2659,4,1,259,31,1,1,1,691
2660,4,1,260,1,1,1,1,638
2661,4,1,261,31,1,1,1,511
2662,4,1,262,19,0,0,1,697
2663,4,1,263,9,1,1,1,782
2664,4,1,264,31,1,1,1,605
2665,4,1,265,0,1,1,1,662
2666,4,1,266,9,1,1,1,598
2667,4,1,267,31,0,0,1,763
2668,4,1,268,1,1,1,1,676
2669,4,1,269,1,1,1,1,618
2670,4,1,270,1,0,0,1,743
2671,4,1,271,1,0,0,1,723
2672,4,1,272,31,1,1,1,703
2673,4,1,273,19,1,1,1,841
2674,4,1,274,19,0,0,1,711
2675,4,1,275,4,1,1,1,776
2676,4,1,276,19,0,0,1,712
2677,4,1,277,0,0,0,1,695
2678,4,1,278,9,1,1,1,823
2679,4,1,279,31,1,1,1,665
2680,4,1,280,31,1,1,1,887
2681,4,1,281,31,0,0,1,887
2682,4,1,282,4,1,1,1,630
2683,4,1,283,19,1,1,1,832
2684,4,1,284,9,1,1,1,828
2685,4,1,285,4,0,0,1,652
2686,4,1,286,1,0,0,1,680
2687,4,1,287,4,1,1,1,753
2688,4,1,288,19,0,0,1,591
2689,4,1,289,9,0,0,1,583
2690,4,1,290,19,0,0,1,658
2691,4,1,291,1,1,1,1,576
2692,4,1,292,19,0,0,1,704
2693,4,1,293,9,1,1,1,617
2694,4,1,294,19,0,0,1,718
2695,4,1,295,19,1,1,1,711
2696,4,1,296,1,1,1,1,636
2697,4,1,297,19,1,1,1,596
2698,4,1,298,19,0,0,1,606
2699,4,1,299,4,0,0,1,645
2700,4,1,300,19,1,1,1,737
2701,4,1,301,31,0,0,1,631
2702,4,1,302,19,1,1,1,682
2703,4,1,303,4,1,1,1,847
2704,4,1,304,19,0,0,1,647
2705,4,1,305,9,0,0,1,632
2706,4,1,306,9,1,1,1,690
2707,4,1,307,4,1,1,1,783
2708,4,1,308,0,0,0,1,584
2709,4,1,309,19,1,1,1,775
2710,4,1,310,19,1,1,1,680
2711,4,1,311,31,0,0,1,756
2712,4,1,312,9,1,1,1,800
2713,4,1,313,4,1,1,1,592
2714,4,1,314,19,0,0,1,687
2715,4,1,315,9,1,1,1,703
2716,4,1,316,9,1,1,1,627
2717,4,1,317,4,0,0,1,604
2718,4,1,318,19,0,0,1,702
2719,4,1,319,19,1,1,1,868
2720,4,1,320,31,1,1,1,871
2721,4,1,321,1,0,0,1,649
2722,4,1,322,1,0,0,1,551
2723,4,1,323,19,0,0,1,484
2724,4,1,324,31,1,1,1,733
2725,4,1,325,1,1,1,1,609
2726,4,1,326,19,1,1,0,688
2727,4,1,327,1,0,0,1,672
2728,4,1,328,9,1,1,1,751
2729,4,1,329,4,1,1,1,762
2730,4,1,330,31,0,0,1,989
2731,4,1,331,1,1,1,1,725
2732,4,1,332,31,1,1,1,948
2733,4,1,333,9,1,1,1,673
2734,4,1,334,31,0,0,1,743
2735,4,1,335,31,0,0,1,644
2736,4,1,336,31,1,1,1,675
2737,4,1,337,9,0,0,1,933
2738,4,1,338,4,1,1,1,568
2739,4,1,339,4,1,1,1,565
2740,4,1,340,1,0,0,1,521
2741,4,1,341,9,0,0,1,655
2742,4,1,342,19,1,1,1,663
2743,4,1,343,1,0,0,1,472
2744,4,1,344,0,0,0,1,475
2745,4,1,345,9,1,1,1,583
2746,4,1,346,31,1,1,1,1229
2747,4,1,347,31,0,0,1,667
2748,4,1,348,31,1,1,1,780
2749,4,1,349,9,0,0,1,564
2750,4,1,350,19,0,0,1,555
2751,4,1,351,1,1,1,1,1380
2752,4,1,352,19,1,1,1,801
2753,4,1,353,4,0,0,1,648
2754,4,1,354,31,0,0,1,586
2755,4,1,355,0,0,0,1,461
2756,4,1,356,31,0,0,1,690
2757,4,1,357,4,0,0,1,971
2758,4,1,358,9,0,0,1,594
2759,4,1,359,4,1,1,1,635
2760,4,1,360,1,0,0,1,445
2761,4,1,361,9,0,0,1,624
2762,4,1,362,31,1,1,1,989
2763,4,1,363,9,1,1,1,533
2764,4,1,364,4,1,1,1,585
2765,4,1,365,31,0,0,1,575
2766,4,1,366,1,0,0,1,665
2767,4,1,367,1,0,0,1,594
2768,4,1,368,1,0,0,1,711
2769,4,1,369,4,0,0,1,454
2770,4,1,370,31,0,0,1,861
2771,4,1,371,4,1,1,1,503
2772,4,1,372,1,1,1,1,473
2773,4,1,373,1,1,1,1,663
2774,4,1,374,1,0,0,1,657
2775,4,1,375,19,1,1,1,656
2776,4,1,376,19,0,0,1,662
2777,4,1,377,9,1,1,1,687
2778,4,1,378,31,1,1,1,551
2779,4,1,379,1,0,0,1,467
2780,4,1,380,9,0,0,1,634
2781,4,1,381,1,1,1,1,543
2782,4,1,382,4,0,0,1,456
2783,4,1,383,19,0,0,1,538
2784,4,1,384,19,1,1,1,710
2785,4,1,385,31,1,1,1,594
2786,4,1,386,31,1,1,1,991
2787,4,1,387,9,1,1,1,579
2788,4,1,388,1,1,1,1,607
2789,4,1,389,1,0,0,1,787
2790,4,1,390,4,0,0,1,561
2791,4,1,391,4,0,0,1,733
2792,4,1,392,19,1,1,1,748
2793,4,1,393,4,1,1,1,647
2794,4,1,394,19,0,0,1,623
2795,4,1,395,9,0,0,1,672
2796,4,1,396,9,1,1,1,858
2797,4,1,397,31,0,0,1,735
2798,4,1,398,1,0,0,1,453
2799,4,1,399,4,1,1,1,593
2800,4,1,400,1,1,1,1,805
2801,4,1,401,4,1,1,1,778
2802,4,1,402,1,1,1,1,559
2803,4,1,403,1,0,0,1,577
2804,4,1,404,31,1,1,1,808
2805,4,1,405,31,0,0,1,753
2806,4,1,406,19,1,1,1,1262
2807,4,1,407,19,0,0,1,821
2808,4,1,408,1,0,0,1,741
2809,4,1,409,19,0,0,1,816
2810,4,1,410,19,0,0,1,693
2811,4,1,411,31,0,0,1,688
2812,4,1,412,9,0,0,1,644
2813,4,1,413,19,1,1,1,993
2814,4,1,414,31,0,0,1,894
2815,4,1,415,19,0,0,1,878
2816,4,1,416,31,0,0,1,740
2817,4,1,417,9,1,1,1,767
2818,4,1,418,9,1,1,1,557
2819,4,1,419,9,1,1,1,519
2820,4,1,420,4,1,1,1,812
2821,4,1,421,1,0,0,1,754
2822,4,1,422,4,0,0,1,375
2823,4,1,423,31,0,0,1,680
2824,4,1,424,19,0,0,1,662
2825,4,1,425,31,1,1,1,726
2826,4,1,426,19,0,0,1,465
2827,4,1,427,19,1,1,1,479
2828,4,1,428,19,1,1,1,421
2829,4,1,429,19,1,1,1,556
2830,4,1,430,19,0,0,1,567
2831,4,1,431,9,1,1,1,651
2832,4,1,432,1,1,1,1,460
2833,4,1,433,1,0,0,1,499
2834,4,1,434,4,1,1,1,402
2835,4,1,435,19,1,1,1,733
2836,4,1,436,0,1,1,1,621
2837,4,1,437,19,1,1,1,465
2838,4,1,438,0,1,1,1,1014
2839,4,1,439,4,1,1,1,445
2840,4,1,440,9,0,0,1,814
2841,4,1,441,31,1,1,1,1237
2842,4,1,442,9,0,0,1,957
2843,4,1,443,4,1,1,1,984
2844,4,1,444,31,1,1,1,956
2845,4,1,445,0,1,1,1,699
2846,4,1,446,4,1,1,1,696
2847,4,1,447,31,1,1,1,729
2848,4,1,448,0,1,1,1,544
2849,4,1,449,4,0,0,1,719
2850,4,1,450,19,0,0,1,842
2851,4,1,451,19,0,0,1,622
2852,4,1,452,31,1,1,1,751
2853,4,1,453,19,0,0,1,602
2854,4,1,454,4,1,1,1,641
2855,4,1,455,19,1,1,1,635
2856,4,1,456,1,0,0,1,609
2857,4,1,457,31,0,0,1,700
2858,4,1,458,31,0,0,1,654
2859,4,1,459,4,0,0,1,658
2860,4,1,460,4,0,0,1,690
2861,4,1,461,9,1,1,1,1250
2862,4,1,462,9,0,0,1,664
2863,4,1,463,9,1,1,1,668
2864,4,1,464,19,1,1,1,632
2865,4,1,465,31,0,0,1,678
2866,4,1,466,9,0,0,1,603
2867,4,1,467,4,0,0,1,626
2868,4,1,468,9,1,1,1,722
2869,4,1,469,19,1,1,1,797
2870,4,1,470,4,0,0,1,591
2871,4,1,471,1,1,1,1,798
2872,4,1,472,19,1,1,1,840
2873,4,1,473,19,1,1,1,819
2874,4,1,474,31,1,1,1,668
2875,4,1,475,9,0,0,1,707
2876,4,1,476,4,1,1,1,781
2877,4,1,477,31,0,0,1,811
2878,4,1,478,4,0,0,1,647
2879,4,1,479,9,1,1,1,963
2880,4,1,480,0,0,0,1,547
2881,4,1,481,19,1,1,1,619
2882,4,1,482,31,1,1,1,688
2883,4,1,483,0,1,1,1,563
2884,4,1,484,1,0,0,1,612
2885,4,1,485,4,0,0,1,647
2886,4,1,486,9,1,1,1,1029
2887,4,1,487,31,0,0,1,871
2888,4,1,488,9,0,0,1,743
2889,4,1,489,4,1,1,1,846
2890,4,1,490,19,0,0,1,1184
2891,4,1,491,4,1,1,1,795
2892,4,1,492,19,1,1,1,682
2893,4,1,493,9,0,0,1,726
2894,4,1,494,9,1,1,1,785
2895,4,1,495,1,1,1,1,745
2896,4,1,496,31,0,0,1,718
2897,4,1,497,0,0,0,1,603
2898,4,1,498,1,0,0,1,535
2899,4,1,499,1,1,1,1,645
2900,4,1,500,0,1,1,1,648
2901,4,1,501,4,0,0,1,946
2902,4,1,502,4,0,0,1,862
2903,4,1,503,1,0,0,1,592
2904,4,1,504,19,0,0,1,604
2905,4,1,505,31,1,1,1,778
2906,4,1,506,9,1,1,1,661
2907,4,1,507,1,0,0,1,708
2908,4,1,508,19,0,0,1,641
2909,4,1,509,1,0,0,1,649
2910,4,1,510,19,1,1,1,648
2911,4,1,511,4,0,0,1,592
2912,4,1,512,1,0,0,1,484
2913,4,1,513,9,0,0,1,667
2914,4,1,514,9,0,0,1,636
2915,4,1,515,1,0,0,1,605
2916,4,1,516,31,1,1,1,684
2917,4,1,517,9,0,0,1,763
2918,4,1,518,1,1,1,1,640
2919,4,1,519,9,0,0,1,748
2920,4,1,520,4,1,1,1,689
2921,4,1,521,31,1,1,1,742
2922,4,1,522,19,1,1,1,548
2923,4,1,523,1,1,1,1,593
2924,4,1,524,9,1,1,1,574
2925,4,1,525,1,1,1,1,663
2926,4,1,526,1,0,0,1,795
2927,4,1,527,0,1,1,1,731
2928,4,1,528,31,0,0,1,889
2929,4,1,529,31,1,1,1,670
2930,4,1,530,9,0,0,1,956
2931,4,1,531,1,1,1,1,684
2932,4,1,532,31,0,0,1,802
2933,4,1,533,19,0,0,1,879
2934,4,1,534,19,1,1,1,760
2935,4,1,535,9,0,0,1,732
2936,4,1,536,19,0,0,1,621
2937,4,1,537,1,1,1,1,1084
2938,4,1,538,19,1,1,1,809
2939,4,1,539,4,0,0,1,532
2940,4,1,540,4,1,1,1,629
2941,4,1,541,9,1,1,1,707
2942,4,1,542,31,1,1,1,652
2943,4,1,543,1,0,0,1,498
2944,4,1,544,1,0,0,1,561
2945,4,1,545,9,0,0,1,579
2946,4,1,546,1,1,1,1,604
2947,4,1,547,4,1,1,1,680
2948,4,1,548,9,0,0,1,722
2949,4,1,549,4,0,0,1,875
2950,4,1,550,4,0,0,1,974
2951,4,1,551,9,1,1,1,794
2952,4,1,552,31,0,0,1,1137
2953,4,1,553,19,0,0,1,615
2954,4,1,554,1,0,0,1,644
2955,4,1,555,19,0,0,1,521
2956,4,1,556,31,1,1,1,617
2957,4,1,557,9,1,1,1,574
2958,4,1,558,9,0,0,1,598
2959,4,1,559,0,1,1,1,539
2960,4,1,560,9,1,1,1,944
2961,4,1,561,31,0,0,1,747
2962,4,1,562,31,1,1,1,874
2963,4,1,563,9,1,1,1,650
2964,4,1,564,19,1,1,1,685
2965,4,1,565,1,0,0,1,653
2966,4,1,566,9,0,0,1,741
2967,4,1,567,31,1,1,1,666
2968,4,1,568,9,1,1,1,968
2969,4,1,569,19,1,1,1,684
2970,4,1,570,19,0,0,1,739
2971,4,1,571,9,1,1,1,658
2972,4,1,572,31,1,1,1,646
2973,4,1,573,1,1,1,1,581
2974,4,1,574,9,0,0,1,757
2975,4,1,575,0,0,0,1,602
2976,4,1,576,0,1,1,1,644
2977,4,1,577,1,0,0,1,646
2978,4,1,578,4,0,0,1,602
2979,4,1,579,9,1,1,1,937
2980,4,1,580,4,1,1,1,879
2981,4,1,581,4,0,0,1,801
2982,4,1,582,4,1,1,1,640
2983,4,1,583,1,1,1,1,603
2984,4,1,584,9,0,0,1,705
2985,4,1,585,9,1,1,1,762
2986,4,1,586,1,1,1,1,643
2987,4,1,587,19,0,0,1,943
2988,4,1,588,9,1,1,1,663
2989,4,1,589,1,0,0,1,598
2990,4,1,590,1,0,0,1,628
2991,4,1,591,1,0,0,1,564
2992,4,1,592,4,1,1,1,609
2993,4,1,593,1,0,0,1,568
2994,4,1,594,9,1,1,1,555
2995,4,1,595,31,0,0,1,532
2996,4,1,596,31,1,1,1,589
2997,4,1,597,31,0,0,1,487
2998,4,1,598,1,1,1,1,665
2999,4,1,599,9,1,1,1,542
3000,4,1,600,31,0,0,1,800
3001,4,1,601,9,1,1,1,750
3002,4,1,602,19,0,0,1,818
3003,4,1,603,1,1,1,1,611
3004,4,1,604,4,1,1,1,535
3005,4,1,605,4,0,0,1,574
3006,4,1,606,19,0,0,1,597
3007,4,1,607,19,0,0,1,635
3008,4,1,608,31,1,1,1,621
3009,4,1,609,0,1,1,1,532
3010,4,1,610,19,1,1,1,896
3011,4,1,611,31,1,1,1,500
3012,4,1,612,19,0,0,1,515
3013,4,1,613,4,1,1,1,664
3014,4,1,614,0,1,1,1,446
3015,4,1,615,31,0,0,1,586
3016,4,1,616,31,0,0,1,559
3017,4,1,617,4,1,1,1,528
3018,4,1,618,19,0,0,1,575
3019,4,1,619,31,1,1,1,530
3020,4,1,620,19,1,1,1,579
3021,4,1,621,19,0,0,1,672
3022,4,1,622,1,1,1,1,538
3023,4,1,623,9,0,0,1,546
3024,4,1,624,19,0,0,1,643
3025,4,1,625,4,1,1,1,492
3026,4,1,626,9,1,1,1,586
3027,4,1,627,0,0,0,1,518
3028,4,1,628,19,1,1,1,550
3029,4,1,629,1,0,0,1,505
3030,4,1,630,0,1,1,1,613
3031,4,1,631,9,0,0,1,562
3032,4,1,632,4,0,0,1,470
3033,4,1,633,4,1,1,1,541
3034,4,1,634,19,1,1,1,649
3035,4,1,635,19,1,1,1,564
3036,4,1,636,1,0,0,1,608
3037,4,1,637,4,0,0,1,641
3038,4,1,638,9,0,0,1,1271
3039,4,1,639,19,1,1,1,540
3040,4,1,640,9,1,1,1,590
3041,4,1,641,4,1,1,1,790
3042,4,1,642,9,1,1,1,641
3043,4,1,643,4,1,1,1,569
3044,4,1,644,9,1,1,1,567
3045,4,1,645,0,0,0,1,503
3046,4,1,646,31,1,1,1,520
3047,4,1,647,9,0,0,1,566
3048,4,1,648,9,0,0,1,588
3049,4,1,649,0,0,0,1,554
3050,4,1,650,1,1,1,1,614
3051,4,1,651,31,1,1,1,677
3052,4,1,652,19,1,1,1,565
3053,4,1,653,4,0,0,1,549
3054,4,1,654,4,1,1,1,599
3055,4,1,655,4,1,1,1,529
3056,4,1,656,31,0,0,1,596
3057,4,1,657,4,0,0,1,646
3058,4,1,658,0,1,1,1,500
3059,4,1,659,4,1,1,1,526
3060,4,1,660,0,0,0,1,714
3061,4,1,661,4,1,1,1,496
3062,4,1,662,4,1,1,1,684
3063,4,1,663,9,1,1,1,507
3064,4,1,664,19,1,1,1,817
3065,4,1,665,4,1,1,1,504
3066,4,1,666,0,1,1,1,498
3067,4,1,667,4,0,0,1,740
3068,4,1,668,0,1,1,1,576
3069,4,1,669,31,1,1,1,566
3070,4,1,670,19,1,1,1,462
3071,4,1,671,19,0,0,1,669
3072,4,1,672,9,1,1,1,583
3073,4,1,673,0,1,1,1,568
3074,4,1,674,4,1,1,1,611
3075,4,1,675,31,0,0,1,793
3076,4,1,676,9,1,1,1,612
3077,4,1,677,1,0,0,1,463
3078,4,1,678,4,1,1,1,567
3079,4,1,679,9,1,1,1,460
3080,4,1,680,4,0,0,1,633
3081,4,1,681,9,0,0,1,674
3082,4,1,682,19,1,1,1,627
3083,4,1,683,4,0,0,1,661
3084,4,1,684,1,0,0,1,690
3085,4,1,685,0,1,1,1,516
3086,4,1,686,1,0,0,1,621
3087,4,1,687,19,1,1,1,691
3088,4,1,688,1,1,1,1,669
3089,4,1,689,19,1,1,1,744
3090,4,1,690,1,0,0,1,764
3091,4,1,691,1,0,0,1,638
3092,4,1,692,9,0,0,1,675
3093,4,1,693,31,0,0,1,741
3094,4,1,694,4,1,1,1,560
3095,4,1,695,31,0,0,1,943
3096,4,1,696,31,0,0,1,726
3097,4,1,697,31,1,1,1,709
3098,4,1,698,9,1,1,1,713
3099,4,1,699,1,1,1,1,516
3100,4,1,700,1,1,1,1,676
3101,4,1,701,19,0,0,1,696
3102,4,1,702,1,1,1,1,679
3103,4,1,703,9,1,1,1,955
3104,4,1,704,1,0,0,1,667
3105,4,1,705,19,0,0,1,689
3106,4,1,706,9,1,1,1,1056
3107,4,1,707,1,0,0,1,715
3108,4,1,708,19,0,0,1,682
3109,4,1,709,4,1,1,1,580
3110,4,1,710,19,0,0,1,937
3111,4,1,711,19,1,1,1,541
3112,4,1,712,19,1,1,1,764
3113,4,1,713,4,0,0,1,920
3114,4,1,714,9,0,0,1,792
3115,4,1,715,1,1,1,1,666
3116,4,1,716,4,1,1,1,647
3117,4,1,717,9,0,0,1,622
3118,4,1,718,4,1,1,1,570
3119,4,1,719,1,1,1,1,594
3120,4,1,720,4,1,1,1,602
3121,4,1,721,1,1,1,1,634
3122,4,1,722,1,1,1,1,709
3123,4,1,723,9,0,0,1,580
3124,4,1,724,1,1,1,1,489
3125,4,1,725,1,0,0,1,540
3126,4,1,726,19,0,0,1,480
3127,4,1,727,1,1,1,1,554
3128,4,1,728,1,1,1,1,518
3129,4,1,729,31,0,0,1,583
3130,4,1,730,31,1,1,1,593
3131,4,1,731,9,0,0,1,729
3132,4,1,732,4,1,1,1,587
3133,4,1,733,9,1,1,1,626
3134,4,1,734,19,1,1,1,617
3135,4,1,735,19,0,0,1,771
3136,4,1,736,31,0,0,1,562
3137,4,1,737,31,0,0,1,547
3138,4,1,738,9,0,0,1,442
3139,4,1,739,19,1,1,1,894
3140,4,1,740,4,0,0,1,641
3141,4,1,741,0,1,1,1,600
3142,4,1,742,31,0,0,1,661
3143,4,1,743,19,0,0,1,661
3144,4,1,744,19,0,0,1,743
3145,4,1,745,1,1,1,1,924
3146,4,1,746,19,0,0,1,702
3147,4,1,747,19,1,1,1,795
3148,4,1,748,4,1,1,1,704
3149,4,1,749,4,0,0,1,709
3150,4,1,750,9,1,1,1,623
3151,4,1,751,19,0,0,1,540
3152,4,1,752,1,1,1,1,522
3153,4,1,753,0,1,1,1,662
3154,4,1,754,9,0,0,1,680
3155,4,1,755,31,0,0,1,492
3156,4,1,756,0,0,0,1,565
3157,4,1,757,31,1,1,1,782
3158,4,1,758,4,0,0,1,501
3159,4,1,759,9,0,0,1,802
3160,4,1,760,31,0,0,1,647
3161,4,1,761,9,0,0,1,665
3162,4,1,762,31,1,1,1,1005
3163,4,1,763,4,0,0,1,664
3164,4,1,764,4,1,1,1,599
3165,4,1,765,4,0,0,1,686
3166,4,1,766,31,0,0,1,617
3167,4,1,767,9,0,0,1,626
3168,4,1,768,1,0,0,1,558
3169,4,1,769,31,1,1,1,754
3170,4,1,770,1,1,1,1,689
3171,4,1,771,9,1,1,1,791
3172,4,1,772,31,1,1,1,626
3173,4,1,773,31,0,0,1,650
3174,4,1,774,31,0,0,1,652
3175,4,1,775,31,0,0,1,540
3176,4,1,776,31,0,0,1,769
3177,4,1,777,9,0,0,1,699
3178,4,1,778,1,0,0,1,565
3179,4,1,779,31,0,0,1,517
3180,4,1,780,31,1,1,1,664
3181,4,1,781,9,1,1,1,550
3182,4,1,782,1,0,0,1,521
3183,4,1,783,1,0,0,1,608
3184,4,1,784,19,0,0,1,716
3185,4,1,785,4,1,1,1,639
3186,4,1,786,4,0,0,1,612
3187,4,1,787,4,0,0,1,560
3188,4,1,788,19,1,1,1,611
3189,4,1,789,9,0,0,1,526
3190,4,1,790,1,1,1,1,697
3191,4,1,791,31,0,0,1,716
3192,4,1,792,19,0,0,1,515
3193,4,1,793,9,0,0,1,646
3194,4,1,794,1,1,1,1,620
3195,4,1,795,31,0,0,1,512
3196,4,1,796,31,1,1,1,838
3197,4,1,797,4,1,1,1,617
3198,4,1,798,0,0,0,1,712
3199,4,1,799,31,1,1,1,536
3200,4,1,800,1,0,0,1,698
3201,5,1,1,1,0,0,1,730
3202,5,1,2,1,0,0,1,535
3203,5,1,3,31,0,0,1,544
3204,5,1,4,31,0,0,1,454
3205,5,1,5,31,1,1,1,494
3206,5,1,6,31,1,1,1,927
3207,5,1,7,1,1,1,1,453
3208,5,1,8,1,0,0,1,528
3209,5,1,9,4,0,0,1,495
3210,5,1,10,9,0,0,1,629
3211,5,1,11,9,0,0,1,455
3212,5,1,12,9,0,0,1,573
3213,5,1,13,4,1,1,1,426
3214,5,1,14,4,1,1,1,476
3215,5,1,15,1,0,0,1,473
3216,5,1,16,0,0,0,1,385
3217,5,1,17,31,0,0,1,571
3218,5,1,18,1,0,0,1,394
3219,5,1,19,19,0,0,1,570
3220,5,1,20,0,1,1,1,437
3221,5,1,21,9,1,1,1,562
3222,5,1,22,1,0,0,1,416
3223,5,1,23,0,1,1,1,425
3224,5,1,24,19,1,1,1,836
3225,5,1,25,31,1,1,1,532
3226,5,1,26,31,1,1,1,835
3227,5,1,27,19,0,0,1,479
3228,5,1,28,0,1,1,1,437
3229,5,1,29,31,1,1,1,443
3230,5,1,30,31,0,0,1,710
3231,5,1,31,9,0,0,1,439
3232,5,1,32,19,1,1,1,517
3233,5,1,33,0,1,1,1,422
3234,5,1,34,4,0,0,1,488
3235,5,1,35,1,1,1,1,434
3236,5,1,36,1,0,0,1,433
3237,5,1,37,9,1,1,1,435
3238,5,1,38,31,0,0,1,528
3239,5,1,39,19,0,0,1,558
3240,5,1,40,9,0,0,1,557
3241,5,1,41,1,0,0,1,461
3242,5,1,42,19,0,0,1,495
3243,5,1,43,1,0,0,1,489
3244,5,1,44,9,0,0,1,464
3245,5,1,45,31,1,1,1,580
3246,5,1,46,9,0,0,1,483
3247,5,1,47,1,0,0,1,423
3248,5,1,48,1,1,1,1,453
3249,5,1,49,1,1,1,1,410
3250,5,1,50,1,1,1,1,429
3251,5,1,51,4,1,1,1,824
3252,5,1,52,4,0,0,1,572
3253,5,1,53,31,0,0,1,581
3254,5,1,54,1,0,0,1,418
3255,5,1,55,1,0,0,1,484
3256,5,1,56,0,0,0,1,364
3257,5,1,57,9,1,1,1,441
3258,5,1,58,19,0,0,1,494
3259,5,1,59,4,0,0,1,386
3260,5,1,60,19,1,1,1,725
3261,5,1,61,31,1,1,1,543
3262,5,1,62,9,0,0,1,484
3263,5,1,63,9,1,1,1,532
3264,5,1,64,9,0,0,1,430
3265,5,1,65,9,0,0,1,421
3266,5,1,66,0,1,1,1,421
3267,5,1,67,1,1,1,1,488
3268,5,1,68,9,0,0,1,496
3269,5,1,69,4,1,1,1,544
3270,5,1,70,1,0,0,1,478
3271,5,1,71,4,1,1,1,493
3272,5,1,72,4,0,0,1,460
3273,5,1,73,1,1,1,1,448
3274,5,1,74,4,1,1,1,375
3275,5,1,75,9,0,0,1,538
3276,5,1,76,19,0,0,1,487
3277,5,1,77,19,0,0,1,484
3278,5,1,78,19,1,1,1,617
3279,5,1,79,31,0,0,1,521
3280,5,1,80,19,1,1,1,642
3281,5,1,81,19,1,1,1,474
3282,5,1,82,4,0,0,1,501
3283,5,1,83,31,1,1,1,625
3284,5,1,84,19,1,1,1,490
3285,5,1,85,31,0,0,1,432
3286,5,1,86,19,0,0,1,564
3287,5,1,87,4,1,1,1,471
3288,5,1,88,4,0,0,1,400
3289,5,1,89,19,1,1,1,514
3290,5,1,90,31,1,1,1,616
3291,5,1,91,9,0,0,1,529
3292,5,1,92,0,0,0,1,493
3293,5,1,93,9,0,0,1,549
3294,5,1,94,0,1,1,1,473
3295,5,1,95,19,0,0,1,494
3296,5,1,96,19,0,0,1,1279
3297,5,1,97,31,1,1,1,455
3298,5,1,98,19,1,1,1,536
3299,5,1,99,9,1,1,1,523
3300,5,1,100,1,1,1,1,474
3301,5,1,101,4,1,1,1,445
3302,5,1,102,9,0,0,1,480
3303,5,1,103,31,0,0,1,594
3304,5,1,104,31,1,1,1,510
3305,5,1,105,9,1,1,1,583
3306,5,1,106,9,0,0,1,442
3307,5,1,107,31,1,1,1,597
3308,5,1,108,19,0,0,1,511
3309,5,1,109,1,1,1,1,383
3310,5,1,110,9,1,1,1,467
3311,5,1,111,9,0,0,1,435
3312,5,1,112,31,0,0,1,479
3313,5,1,113,4,1,1,1,452
3314,5,1,114,4,1,1,1,384
3315,5,1,115,31,0,0,1,462
3316,5,1,116,19,1,1,1,390
3317,5,1,117,31,1,1,1,613
3318,5,1,118,4,1,1,1,426
3319,5,1,119,19,1,1,1,563
3320,5,1,120,19,0,0,1,540
3321,5,1,121,4,0,0,1,445
3322,5,1,122,19,1,1,1,677
3323,5,1,123,1,1,1,1,434
3324,5,1,124,4,1,1,1,508
3325,5,1,125,9,1,1,1,422
3326,5,1,126,4,1,1,1,387
3327,5,1,127,9,1,1,1,413
3328,5,1,128,4,0,0,1,426
3329,5,1,129,4,0,0,1,494
3330,5,1,130,0,0,0,1,422
3331,5,1,131,31,0,0,1,502
3332,5,1,132,19,0,0,1,503
3333,5,1,133,0,1,1,1,617
3334,5,1,134,19,1,1,1,469
3335,5,1,135,1,0,0,1,433
3336,5,1,136,31,0,0,1,495
3337,5,1,137,31,1,1,1,509
3338,5,1,138,1,1,1,1,449
3339,5,1,139,4,0,0,1,586
3340,5,1,140,19,0,0,1,443
3341,5,1,141,31,0,0,1,493
3342,5,1,142,19,0,0,1,776
3343,5,1,143,19,1,1,1,463
3344,5,1,144,31,0,0,1,554
3345,5,1,145,4,1,1,1,427
3346,5,1,146,4,1,1,1,439
3347,5,1,147,1,0,0,1,457
3348,5,1,148,31,1,1,1,366
3349,5,1,149,9,0,0,1,426
3350,5,1,150,0,0,0,1,395
3351,5,1,151,0,1,1,1,439
3352,5,1,152,9,1,1,1,507
3353,5,1,153,9,0,0,1,609
3354,5,1,154,4,1,1,1,374
3355,5,1,155,19,0,0,1,592
3356,5,1,156,31,1,1,1,426
3357,5,1,157,31,1,1,1,590
3358,5,1,158,0,1,1,1,361
3359,5,1,159,4,0,0,0,337
3360,5,1,160,31,0,0,1,490
3361,5,1,161,9,0,0,1,568
3362,5,1,162,0,0,0,1,439
3363,5,1,163,19,1,1,1,548
3364,5,1,164,9,0,0,1,458
3365,5,1,165,31,0,0,1,544
3366,5,1,166,9,1,1,1,541
3367,5,1,167,19,0,0,1,475
3368,5,1,168,4,0,0,1,461
3369,5,1,169,4,1,1,1,533
3370,5,1,170,4,0,0,1,451
3371,5,1,171,4,0,0,1,460
3372,5,1,172,31,1,1,1,524
3373,5,1,173,19,1,1,1,461
3374,5,1,174,19,1,1,1,564
3375,5,1,175,0,0,0,1,424
3376,5,1,176,9,0,0,1,541
3377,5,1,177,1,0,0,1,462
3378,5,1,178,1,1,1,1,396
3379,5,1,179,4,1,1,1,544
3380,5,1,180,4,0,0,1,499
3381,5,1,181,31,0,0,1,555
3382,5,1,182,1,1,1,1,399
3383,5,1,183,31,1,1,1,425
3384,5,1,184,19,0,0,1,401
3385,5,1,185,9,0,0,1,415
3386,5,1,186,9,1,1,1,437
3387,5,1,187,1,0,0,1,398
3388,5,1,188,19,1,1,1,640
3389,5,1,189,19,1,1,1,546
3390,5,1,190,4,1,1,1,410
3391,5,1,191,4,0,0,1,370
3392,5,1,192,9,1,1,1,426
3393,5,1,193,19,1,1,1,534
3394,5,1,194,9,1,1,1,426
3395,5,1,195,1,1,1,1,360
3396,5,1,196,1,1,1,1,380
3397,5,1,197,4,0,0,1,466
3398,5,1,198,1,1,1,1,380
3399,5,1,199,4,1,1,1,413
3400,5,1,200,1,0,0,1,374
3401,5,1,201,4,0,0,1,515
3402,5,1,202,19,1,1,1,395
3403,5,1,203,4,1,1,1,387
3404,5,1,204,1,1,1,1,347
3405,5,1,205,9,0,0,1,648
3406,5,1,206,9,0,0,1,440
3407,5,1,207,31,0,0,1,426
3408,5,1,208,19,1,1,1,466
3409,5,1,209,19,1,1,1,425
3410,5,1,210,1,1,1,1,417
3411,5,1,211,19,0,0,1,397
3412,5,1,212,31,0,0,1,415
3413,5,1,213,19,0,0,1,422
3414,5,1,214,19,0,0,1,478
3415,5,1,215,4,1,1,1,428
3416,5,1,216,19,0,0,1,437
3417,5,1,217,31,1,1,1,625
3418,5,1,218,1,0,0,1,464
3419,5,1,219,4,0,0,1,447
3420,5,1,220,19,0,0,1,455
3421,5,1,221,31,0,0,1,410
3422,5,1,222,1,1,1,1,517
3423,5,1,223,4,0,0,1,400
3424,5,1,224,0,1,1,1,345
3425,5,1,225,9,0,0,1,431
3426,5,1,226,1,1,1,1,386
3427,5,1,227,4,1,1,1,439
3428,5,1,228,9,0,0,1,403
3429,5,1,229,31,0,0,1,438
3430,5,1,230,19,0,0,1,439
3431,5,1,231,1,0,0,1,418
3432,5,1,232,1,1,1,1,557
3433,5,1,233,0,0,0,1,444
3434,5,1,234,31,0,0,1,566
3435,5,1,235,31,1,1,1,631
3436,5,1,236,4,0,0,1,416
3437,5,1,237,4,1,1,1,407
3438,5,1,238,9,1,1,1,423
3439,5,1,239,31,1,1,1,546
3440,5,1,240,4,0,0,1,618
3441,5,1,241,9,1,1,1,513
3442,5,1,242,4,0,0,1,432
3443,5,1,243,9,1,1,1,525
3444,5,1,244,4,0,0,1,588
3445,5,1,245,0,0,0,1,548
3446,5,1,246,31,0,0,1,604
3447,5,1,247,9,1,1,1,467
3448,5,1,248,19,0,0,1,471
3449,5,1,249,19,1,1,1,468
3450,5,1,250,31,1,1,1,499
3451,5,1,251,9,1,1,1,477
3452,5,1,252,4,0,0,1,346
3453,5,1,253,1,0,0,1,343
3454,5,1,254,31,1,1,1,387
3455,5,1,255,31,1,1,1,442
3456,5,1,256,4,1,1,1,377
3457,5,1,257,19,0,0,0,407
3458,5,1,258,0,1,1,1,468
3459,5,1,259,31,1,1,1,523
3460,5,1,260,31,0,0,1,544
3461,5,1,261,1,1,1,1,439
3462,5,1,262,4,0,0,1,441
3463,5,1,263,19,0,0,1,532
3464,5,1,264,4,1,1,1,517
3465,5,1,265,31,0,0,1,501
3466,5,1,266,19,1,1,1,615
3467,5,1,267,19,1,1,1,506
3468,5,1,268,4,1,1,1,430
3469,5,1,269,9,1,1,1,444
3470,5,1,270,19,1,1,1,478
3471,5,1,271,1,1,1,1,501
3472,5,1,272,9,0,0,1,438
3473,5,1,273,31,0,0,1,523
3474,5,1,274,31,1,1,1,671
3475,5,1,275,1,1,1,1,424
3476,5,1,276,0,0,0,1,492
3477,5,1,277,19,1,1,1,514
3478,5,1,278,9,1,1,1,448
3479,5,1,279,9,0,0,1,742
3480,5,1,280,9,1,1,1,619
3481,5,1,281,9,1,1,1,421
3482,5,1,282,31,1,1,1,491
3483,5,1,283,4,1,1,1,417
3484,5,1,284,4,1,1,1,476
3485,5,1,285,31,0,0,1,569
3486,5,1,286,1,1,1,1,450
3487,5,1,287,1,1,1,1,463
3488,5,1,288,19,0,0,1,566
3489,5,1,289,19,1,1,1,596
3490,5,1,290,9,0,0,1,529
3491,5,1,291,9,0,0,1,675
3492,5,1,292,1,0,0,1,482
3493,5,1,293,19,1,1,1,620
3494,5,1,294,19,1,1,1,505
3495,5,1,295,9,0,0,1,441
3496,5,1,296,9,1,1,1,438
3497,5,1,297,19,0,0,1,465
3498,5,1,298,19,1,1,1,560
3499,5,1,299,0,1,1,1,459
3500,5,1,300,19,1,1,1,534
3501,5,1,301,1,1,1,1,439
3502,5,1,302,4,0,0,1,458
3503,5,1,303,0,1,1,1,372
3504,5,1,304,31,0,0,1,450
3505,5,1,305,1,0,0,1,395
3506,5,1,306,31,1,1,1,524
3507,5,1,307,4,0,0,1,421
3508,5,1,308,9,0,0,1,487
3509,5,1,309,4,1,1,1,407
3510,5,1,310,1,0,0,1,417
3511,5,1,311,31,1,1,1,456
3512,5,1,312,4,1,1,1,485
3513,5,1,313,1,0,0,1,473
3514,5,1,314,9,1,1,1,441
3515,5,1,315,31,0,0,1,437
3516,5,1,316,19,1,1,1,474
3517,5,1,317,9,0,0,1,460
3518,5,1,318,4,1,1,1,436
3519,5,1,319,4,1,1,1,403
3520,5,1,320,9,1,1,1,496
3521,5,1,321,31,0,0,1,481
3522,5,1,322,31,0,0,1,565
3523,5,1,323,19,1,1,1,660
3524,5,1,324,19,0,0,1,455
3525,5,1,325,9,0,0,1,1016
3526,5,1,326,31,1,1,1,566
3527,5,1,327,31,0,0,1,447
3528,5,1,328,1,1,1,1,435
3529,5,1,329,4,1,1,1,382
3530,5,1,330,4,1,1,1,419
3531,5,1,331,4,0,0,1,565
3532,5,1,332,1,1,1,1,414
3533,5,1,333,9,1,1,1,490
3534,5,1,334,1,1,1,1,439
3535,5,1,335,19,1,1,1,500
3536,5,1,336,31,0,0,1,493
3537,5,1,337,4,0,0,1,461
3538,5,1,338,4,1,1,1,682
3539,5,1,339,19,1,1,1,507
3540,5,1,340,9,0,0,1,446
3541,5,1,341,1,1,1,1,488
3542,5,1,342,9,1,1,1,504
3543,5,1,343,4,0,0,1,431
3544,5,1,344,19,0,0,1,470
3545,5,1,345,9,0,0,1,480
3546,5,1,346,9,1,1,1,438
3547,5,1,347,4,1,1,1,442
3548,5,1,348,1,1,1,1,418
3549,5,1,349,4,1,1,1,398
3550,5,1,350,9,0,0,1,432
3551,5,1,351,19,0,0,1,460
3552,5,1,352,31,0,0,1,403
3553,5,1,353,31,0,0,1,401
3554,5,1,354,0,1,1,1,395
3555,5,1,355,4,1,1,1,396
3556,5,1,356,1,0,0,1,383
3557,5,1,357,19,0,0,1,414
3558,5,1,358,4,0,0,1,466
3559,5,1,359,19,1,1,1,477
3560,5,1,360,4,0,0,1,501
3561,5,1,361,1,1,1,1,436
3562,5,1,362,31,1,1,1,498
3563,5,1,363,1,0,0,1,501
3564,5,1,364,31,0,0,1,525
3565,5,1,365,31,1,1,1,496
3566,5,1,366,19,0,0,1,485
3567,5,1,367,31,0,0,1,447
3568,5,1,368,1,0,0,1,479
3569,5,1,369,9,0,0,1,466
3570,5,1,370,1,1,1,1,378
3571,5,1,371,1,0,0,1,378
3572,5,1,372,31,0,0,1,408
3573,5,1,373,1,0,0,1,421
3574,5,1,374,31,1,1,1,442
3575,5,1,375,4,0,0,1,513
3576,5,1,376,1,1,1,1,524
3577,5,1,377,1,1,1,1,427
3578,5,1,378,19,1,1,1,432
3579,5,1,379,1,0,0,1,452
3580,5,1,380,19,1,1,1,424
3581,5,1,381,19,0,0,1,450
3582,5,1,382,4,1,1,1,389
3583,5,1,383,9,1,1,1,462
3584,5,1,384,4,1,1,1,465
3585,5,1,385,19,1,1,1,458
3586,5,1,386,31,1,1,1,487
3587,5,1,387,19,1,1,1,456
3588,5,1,388,0,0,0,1,406
3589,5,1,389,9,1,1,1,431
3590,5,1,390,1,1,1,1,369
3591,5,1,391,9,1,1,1,502
3592,5,1,392,31,1,1,1,496
3593,5,1,393,0,0,0,1,468
3594,5,1,394,31,1,1,1,400
3595,5,1,395,31,0,0,1,503
3596,5,1,396,31,0,0,1,541
3597,5,1,397,4,1,1,1,426
3598,5,1,398,1,0,0,1,392
3599,5,1,399,1,0,0,1,406
3600,5,1,400,1,1,1,1,406
3601,5,1,401,1,0,0,1,499
3602,5,1,402,31,1,1,1,409
3603,5,1,403,1,0,0,0,367
3604,5,1,404,4,1,1,1,493
3605,5,1,405,1,1,1,1,442
3606,5,1,406,0,0,0,1,420
3607,5,1,407,31,0,0,1,503
3608,5,1,408,31,1,1,1,504
3609,5,1,409,9,0,0,1,498
3610,5,1,410,31,1,1,1,496
3611,5,1,411,31,1,1,1,447
3612,5,1,412,19,1,1,1,543
3613,5,1,413,31,0,0,1,456
3614,5,1,414,1,0,0,1,420
3615,5,1,415,4,0,0,1,464
3616,5,1,416,9,1,1,1,429
3617,5,1,417,4,0,0,1,400
3618,5,1,418,1,0,0,1,441
3619,5,1,419,31,1,1,1,506
3620,5,1,420,1,0,0,1,644
3621,5,1,421,31,1,1,1,673
3622,5,1,422,31,1,1,1,478
3623,5,1,423,19,1,1,1,490
3624,5,1,424,9,0,0,1,447
3625,5,1,425,19,0,0,1,420
3626,5,1,426,9,0,0,1,488
3627,5,1,427,4,1,1,1,451
3628,5,1,428,31,0,0,1,621
3629,5,1,429,4,1,1,1,398
3630,5,1,430,31,1,1,1,469
3631,5,1,431,1,1,1,1,427
3632,5,1,432,4,1,1,1,510
3633,5,1,433,31,1,1,1,560
3634,5,1,434,1,0,0,1,490
3635,5,1,435,1,1,1,1,472
3636,5,1,436,9,1,1,1,521
3637,5,1,437,31,1,1,1,407
3638,5,1,438,0,1,1,1,382
3639,5,1,439,9,0,0,1,441
3640,5,1,440,1,0,0,1,569
3641,5,1,441,9,1,1,1,473
3642,5,1,442,1,0,0,1,418
3643,5,1,443,31,1,1,1,527
3644,5,1,444,19,0,0,1,663
3645,5,1,445,9,0,0,1,421
3646,5,1,446,1,1,1,1,412
3647,5,1,447,1,0,0,1,606
3648,5,1,448,1,1,1,1,462
3649,5,1,449,4,1,1,1,408
3650,5,1,450,19,0,0,1,531
3651,5,1,451,4,1,1,1,477
3652,5,1,452,31,1,1,1,587
3653,5,1,453,4,0,0,1,465
3654,5,1,454,9,0,0,1,528
3655,5,1,455,4,1,1,1,423
3656,5,1,456,19,0,0,1,450
3657,5,1,457,9,1,1,1,548
3658,5,1,458,0,1,1,1,359
3659,5,1,459,0,0,0,1,420
3660,5,1,460,31,1,1,1,444
3661,5,1,461,9,1,1,1,467
3662,5,1,462,31,0,0,0,398
3663,5,1,463,19,0,0,1,740
3664,5,1,464,31,1,1,1,416
3665,5,1,465,4,0,0,1,482
3666,5,1,466,4,1,1,1,427
3667,5,1,467,31,1,1,1,529
3668,5,1,468,19,0,0,1,530
3669,5,1,469,19,0,0,1,583
3670,5,1,470,0,1,1,1,503
3671,5,1,471,31,0,0,1,480
3672,5,1,472,9,1,1,1,493
3673,5,1,473,19,0,0,1,733
3674,5,1,474,4,0,0,1,425
3675,5,1,475,19,0,0,1,528
3676,5,1,476,4,1,1,1,636
3677,5,1,477,31,0,0,1,496
3678,5,1,478,4,1,1,1,652
3679,5,1,479,9,1,1,1,564
3680,5,1,480,9,1,1,1,712
3681,5,1,481,1,1,1,1,453
3682,5,1,482,1,1,1,1,433
3683,5,1,483,4,0,0,1,440
3684,5,1,484,4,1,1,1,403
3685,5,1,485,0,1,1,1,389
3686,5,1,486,31,1,1,1,504
3687,5,1,487,9,1,1,1,561
3688,5,1,488,1,0,0,1,417
3689,5,1,489,9,0,0,1,605
3690,5,1,490,1,0,0,1,419
3691,5,1,491,1,1,1,1,470
3692,5,1,492,1,1,1,1,606
3693,5,1,493,19,0,0,1,582
3694,5,1,494,1,0,0,1,422
3695,5,1,495,9,0,0,1,522
3696,5,1,496,9,1,1,1,593
3697,5,1,497,31,0,0,1,518
3698,5,1,498,1,0,0,1,462
3699,5,1,499,9,1,1,1,598
3700,5,1,500,9,1,1,1,569
3701,5,1,501,9,1,1,1,464
3702,5,1,502,19,0,0,1,468
3703,5,1,503,9,0,0,1,475
3704,5,1,504,9,1,1,1,460
3705,5,1,505,4,0,0,1,395
3706,5,1,506,19,1,1,1,353
3707,5,1,507,31,0,0,1,550
3708,5,1,508,0,1,1,1,378
3709,5,1,509,1,1,1,1,591
3710,5,1,510,4,0,0,1,490
3711,5,1,511,1,0,0,1,366
3712,5,1,512,31,0,0,1,465
3713,5,1,513,19,0,0,1,452
3714,5,1,514,4,0,0,1,597
3715,5,1,515,19,1,1,1,453
3716,5,1,516,9,0,0,1,433
3717,5,1,517,19,0,0,1,487
3718,5,1,518,4,0,0,1,604
3719,5,1,519,31,0,0,1,431
3720,5,1,520,9,1,1,1,407
3721,5,1,521,1,1,1,1,398
3722,5,1,522,9,1,1,1,405
3723,5,1,523,1,0,0,1,425
3724,5,1,524,4,0,0,1,380
3725,5,1,525,1,0,0,1,428
3726,5,1,526,4,0,0,1,416
3727,5,1,527,31,0,0,1,483
3728,5,1,528,1,0,0,1,388
3729,5,1,529,19,1,1,1,420
3730,5,1,530,1,1,1,1,424
3731,5,1,531,1,0,0,1,388
3732,5,1,532,31,0,0,1,400
3733,5,1,533,1,1,1,1,370
3734,5,1,534,4,0,0,1,482
3735,5,1,535,1,0,0,1,386
3736,5,1,536,19,1,1,1,485
3737,5,1,537,19,1,1,0,487
3738,5,1,538,0,0,0,1,413
3739,5,1,539,4,1,1,1,466
3740,5,1,540,31,0,0,1,502
3741,5,1,541,31,1,1,1,462
3742,5,1,542,19,0,0,1,542
3743,5,1,543,4,0,0,1,461
3744,5,1,544,4,0,0,1,432
3745,5,1,545,0,1,1,1,445
3746,5,1,546,31,1,1,1,506
3747,5,1,547,4,1,1,1,448
3748,5,1,548,9,0,0,1,430
3749,5,1,549,0,1,1,1,392
3750,5,1,550,31,0,0,1,600
3751,5,1,551,31,0,0,1,489
3752,5,1,552,9,0,0,1,459
3753,5,1,553,9,1,1,1,458
3754,5,1,554,4,0,0,1,393
3755,5,1,555,31,0,0,1,479
3756,5,1,556,19,0,0,1,414
3757,5,1,557,19,0,0,1,376
3758,5,1,558,1,1,1,1,429
3759,5,1,559,9,0,0,1,489
3760,5,1,560,4,0,0,1,385
3761,5,1,561,4,1,1,1,461
3762,5,1,562,9,1,1,1,409
3763,5,1,563,9,1,1,1,492
3764,5,1,564,4,0,0,1,427
3765,5,1,565,9,0,0,1,492
3766,5,1,566,1,0,0,1,362
3767,5,1,567,19,1,1,1,432
3768,5,1,568,31,1,1,1,622
3769,5,1,569,9,1,1,1,452
3770,5,1,570,1,0,0,1,412
3771,5,1,571,9,1,1,1,570
3772,5,1,572,9,1,1,1,553
3773,5,1,573,9,1,1,1,471
3774,5,1,574,19,1,1,1,446
3775,5,1,575,9,1,1,1,492
3776,5,1,576,1,0,0,1,417
3777,5,1,577,9,1,1,1,551
3778,5,1,578,4,0,0,1,446
3779,5,1,579,31,0,0,1,504
3780,5,1,580,1,1,1,1,525
3781,5,1,581,19,0,0,1,489
3782,5,1,582,19,0,0,1,462
3783,5,1,583,19,1,1,1,471
3784,5,1,584,4,0,0,1,514
3785,5,1,585,19,1,1,1,701
3786,5,1,586,31,0,0,1,536
3787,5,1,587,31,0,0,1,488
3788,5,1,588,9,0,0,1,482
3789,5,1,589,4,0,0,1,563
3790,5,1,590,19,1,1,0,422
3791,5,1,591,31,1,1,1,405
3792,5,1,592,31,0,0,1,406
3793,5,1,593,9,0,0,1,465
3794,5,1,594,1,0,0,1,373
3795,5,1,595,4,1,1,1,395
3796,5,1,596,19,1,1,1,657
3797,5,1,597,1,0,0,1,644
3798,5,1,598,4,0,0,1,457
3799,5,1,599,1,0,0,1,419
3800,5,1,600,1,0,0,1,455
3801,5,1,601,0,0,0,1,427
3802,5,1,602,4,0,0,1,413
3803,5,1,603,31,0,0,1,428
3804,5,1,604,19,0,0,1,410
3805,5,1,605,4,1,1,1,460
3806,5,1,606,31,1,1,1,402
3807,5,1,607,1,1,1,1,420
3808,5,1,608,19,0,0,1,542
3809,5,1,609,9,0,0,1,432
3810,5,1,610,31,0,0,1,602
3811,5,1,611,31,0,0,1,452
3812,5,1,612,4,0,0,1,437
3813,5,1,613,9,0,0,1,468
3814,5,1,614,4,0,0,1,623
3815,5,1,615,31,1,1,1,492
3816,5,1,616,1,1,1,1,440
3817,5,1,617,9,1,1,1,472
3818,5,1,618,1,0,0,1,398
3819,5,1,619,1,1,1,1,429
3820,5,1,620,0,1,1,1,523
3821,5,1,621,19,1,1,1,517
3822,5,1,622,4,1,1,1,436
3823,5,1,623,0,0,0,1,435
3824,5,1,624,9,0,0,1,668
3825,5,1,625,31,1,1,1,556
3826,5,1,626,1,0,0,1,448
3827,5,1,627,1,1,1,1,875
3828,5,1,628,9,1,1,1,614
3829,5,1,629,9,0,0,1,459
3830,5,1,630,31,1,1,1,480
3831,5,1,631,9,1,1,1,682
3832,5,1,632,1,0,0,1,414
3833,5,1,633,9,0,0,1,489
3834,5,1,634,19,1,1,1,530
3835,5,1,635,4,0,0,1,1019
3836,5,1,636,1,1,1,1,456
3837,5,1,637,31,1,1,1,435
3838,5,1,638,19,0,0,1,426
3839,5,1,639,1,1,1,1,382
3840,5,1,640,19,0,0,1,510
3841,5,1,641,0,0,0,1,392
3842,5,1,642,31,1,1,1,411
3843,5,1,643,9,1,1,1,409
3844,5,1,644,1,0,0,1,380
3845,5,1,645,4,1,1,1,347
3846,5,1,646,1,0,0,1,389
3847,5,1,647,31,0,0,1,501
3848,5,1,648,9,0,0,1,407
3849,5,1,649,31,0,0,1,427
3850,5,1,650,9,1,1,1,454
3851,5,1,651,1,0,0,1,436
3852,5,1,652,4,0,0,1,523
3853,5,1,653,1,1,1,1,369
3854,5,1,654,4,1,1,1,619
3855,5,1,655,31,0,0,1,602
3856,5,1,656,31,1,1,1,428
3857,5,1,657,4,1,1,1,389
3858,5,1,658,1,1,1,1,392
3859,5,1,659,0,0,0,1,391
3860,5,1,660,1,0,0,1,432
3861,5,1,661,0,0,0,1,341
3862,5,1,662,9,1,1,1,447
3863,5,1,663,4,0,0,1,385
3864,5,1,664,1,1,1,1,402
3865,5,1,665,9,0,0,1,447
3866,5,1,666,0,1,1,1,398
3867,5,1,667,1,0,0,1,432
3868,5,1,668,31,1,1,1,621
3869,5,1,669,19,1,1,1,442
3870,5,1,670,19,0,0,1,520
3871,5,1,671,9,1,1,1,485
3872,5,1,672,9,1,1,1,448
3873,5,1,673,4,0,0,1,444
3874,5,1,674,9,0,0,1,451
3875,5,1,675,31,1,1,1,390
3876,5,1,676,19,0,0,1,533
3877,5,1,677,4,0,0,1,421
3878,5,1,678,1,1,1,1,407
3879,5,1,679,19,0,0,1,435
3880,5,1,680,1,1,1,1,416
3881,5,1,681,1,1,1,1,419
3882,5,1,682,0,1,1,1,394
3883,5,1,683,9,1,1,1,430
3884,5,1,684,9,1,1,1,494
3885,5,1,685,4,1,1,1,414
3886,5,1,686,9,1,1,1,466
3887,5,1,687,4,1,1,1,372
3888,5,1,688,1,1,1,1,413
3889,5,1,689,1,0,0,1,480
3890,5,1,690,19,0,0,1,554
3891,5,1,691,19,0,0,1,598
3892,5,1,692,4,1,1,1,486
3893,5,1,693,31,0,0,1,696
3894,5,1,694,19,1,1,1,614
3895,5,1,695,4,1,1,1,474
3896,5,1,696,4,0,0,1,607
3897,5,1,697,4,0,0,1,459
3898,5,1,698,19,0,0,1,619
3899,5,1,699,1,1,1,1,433
3900,5,1,700,4,1,1,1,422
3901,5,1,701,9,0,0,1,516
3902,5,1,702,9,0,0,1,695
3903,5,1,703,31,0,0,1,386
3904,5,1,704,19,1,1,1,434
3905,5,1,705,4,1,1,1,422
3906,5,1,706,4,0,0,1,457
3907,5,1,707,4,1,1,1,492
3908,5,1,708,4,1,1,1,464
3909,5,1,709,19,0,0,1,451
3910,5,1,710,19,1,1,1,456
3911,5,1,711,9,0,0,1,425
3912,5,1,712,9,1,1,1,587
3913,5,1,713,1,1,1,1,477
3914,5,1,714,0,0,0,1,410
3915,5,1,715,19,0,0,1,426
3916,5,1,716,19,1,1,1,465
3917,5,1,717,31,0,0,1,471
3918,5,1,718,4,0,0,1,417
3919,5,1,719,1,1,1,1,398
3920,5,1,720,0,1,1,1,384
3921,5,1,721,1,0,0,1,395
3922,5,1,722,9,0,0,1,426
3923,5,1,723,31,0,0,1,445
3924,5,1,724,31,1,1,1,479
3925,5,1,725,1,1,1,1,366
3926,5,1,726,1,0,0,1,395
3927,5,1,727,19,1,1,1,454
3928,5,1,728,31,0,0,1,460
3929,5,1,729,19,1,1,1,494
3930,5,1,730,19,1,1,1,484
3931,5,1,731,9,0,0,1,406
3932,5,1,732,9,0,0,1,508
3933,5,1,733,1,1,1,1,402
3934,5,1,734,1,0,0,1,376
3935,5,1,735,19,0,0,1,503
3936,5,1,736,4,1,1,1,389
3937,5,1,737,1,0,0,1,418
3938,5,1,738,1,0,0,1,366
3939,5,1,739,31,0,0,1,532
3940,5,1,740,31,1,1,1,492
3941,5,1,741,19,0,0,1,508
3942,5,1,742,4,0,0,1,489
3943,5,1,743,0,0,0,1,361
3944,5,1,744,31,0,0,1,475
3945,5,1,745,4,0,0,1,383
3946,5,1,746,19,0,0,1,434
3947,5,1,747,19,1,1,1,426
3948,5,1,748,9,1,1,1,416
3949,5,1,749,19,1,1,1,467
3950,5,1,750,19,0,0,1,417
3951,5,1,751,31,1,1,1,472
3952,5,1,752,31,1,1,1,352
3953,5,1,753,31,1,1,1,467
3954,5,1,754,31,1,1,1,359
3955,5,1,755,31,0,0,1,413
3956,5,1,756,0,0,0,1,377
3957,5,1,757,9,1,1,1,429
3958,5,1,758,9,0,0,1,747
3959,5,1,759,19,0,0,1,465
3960,5,1,760,31,1,1,1,570
3961,5,1,761,1,1,1,1,562
3962,5,1,762,4,1,1,1,653
3963,5,1,763,9,1,1,1,529
3964,5,1,764,19,0,0,1,444
3965,5,1,765,1,1,1,1,434
3966,5,1,766,19,0,0,1,437
3967,5,1,767,19,1,1,1,426
3968,5,1,768,19,0,0,1,417
3969,5,1,769,19,0,0,1,511
3970,5,1,770,9,0,0,1,407
3971,5,1,771,4,1,1,1,454
3972,5,1,772,9,0,0,1,423
3973,5,1,773,4,1,1,1,463
3974,5,1,774,19,1,1,1,519
3975,5,1,775,19,1,1,1,499
3976,5,1,776,9,0,0,1,446
3977,5,1,777,1,0,0,1,353
3978,5,1,778,19,1,1,1,549
3979,5,1,779,31,1,1,1,592
3980,5,1,780,1,0,0,1,467
3981,5,1,781,31,1,1,1,445
3982,5,1,782,9,1,1,1,484
3983,5,1,783,9,1,1,1,455
3984,5,1,784,19,0,0,1,389
3985,5,1,785,0,0,0,1,432
3986,5,1,786,19,1,1,1,516
3987,5,1,787,4,1,1,1,439
3988,5,1,788,4,0,0,1,461
3989,5,1,789,19,1,1,1,409
3990,5,1,790,4,0,0,1,384
3991,5,1,791,4,0,0,1,570
3992,5,1,792,1,1,1,1,392
3993,5,1,793,1,1,1,1,449
3994,5,1,794,9,0,0,1,491
3995,5,1,795,9,0,0,1,405
3996,5,1,796,19,1,1,1,466
3997,5,1,797,19,1,1,1,715
3998,5,1,798,9,1,1,1,449
3999,5,1,799,4,0,0,1,405
