trial_id,Subject,block_n,Trial,numDistractors,correctResponse,keyResponse,acc,RT
1,1,1,1,31,1,1,1,1790
2,1,1,2,19,0,0,0,1064
3,1,1,3,1,0,0,0,1098
4,1,1,4,4,1,1,1,916
5,1,1,5,19,0,0,1,1147
6,1,1,6,19,1,1,1,1119
7,1,1,7,4,1,1,1,671
8,1,1,8,4,1,1,1,664
9,1,1,9,19,0,0,1,608
10,1,1,10,4,0,0,1,550
11,1,1,11,31,1,1,1,608
12,1,1,12,9,1,1,1,685
13,1,1,13,9,1,1,1,673
14,1,1,14,4,0,0,1,856
15,1,1,15,19,1,1,1,624
16,1,1,16,31,1,1,1,596
17,1,1,17,19,0,0,1,604
18,1,1,18,1,0,0,1,791
19,1,1,19,19,1,1,1,635
20,1,1,20,31,0,0,1,657
21,1,1,21,1,0,0,1,669
22,1,1,22,1,0,0,1,538
23,1,1,23,9,1,1,1,622
24,1,1,24,19,0,0,1,666
25,1,1,25,1,1,1,1,502
26,1,1,26,4,1,1,1,585
27,1,1,27,9,0,0,1,779
28,1,1,28,4,0,0,1,777
29,1,1,29,9,1,1,1,476
30,1,1,30,1,0,0,1,521
31,1,1,31,4,0,0,1,601
32,1,1,32,1,0,0,1,432
33,1,1,33,31,0,0,1,908
34,1,1,34,19,1,1,1,725
35,1,1,35,31,0,0,1,750
36,1,1,36,1,0,0,1,1054
37,1,1,37,19,0,0,1,1013
38,1,1,38,4,1,1,1,565
39,1,1,39,19,0,0,1,716
40,1,1,40,9,0,0,1,654
41,1,1,41,1,0,0,1,717
42,1,1,42,19,0,0,1,800
43,1,1,43,9,1,1,1,810
44,1,1,44,4,0,0,1,636
45,1,1,45,19,0,0,1,651
46,1,1,46,31,1,1,1,480
47,1,1,47,0,1,1,1,500
48,1,1,48,31,0,0,1,858
49,1,1,49,4,0,0,1,530
50,1,1,50,4,0,0,1,726
51,1,1,51,4,1,1,1,585
52,1,1,52,4,0,0,1,501
53,1,1,53,1,0,0,1,535
54,1,1,54,1,0,0,1,516
55,1,1,55,9,0,0,1,521
56,1,1,56,4,1,1,1,541
57,1,1,57,1,0,0,1,561
58,1,1,58,4,0,0,1,524
59,1,1,59,1,1,1,1,613
60,1,1,60,31,0,0,1,709
61,1,1,61,1,1,1,1,511
62,1,1,62,4,1,1,1,607
63,1,1,63,1,0,0,1,666
64,1,1,64,19,0,0,1,615
65,1,1,65,0,0,0,1,429
66,1,1,66,1,0,0,1,693
67,1,1,67,1,1,1,1,547
68,1,1,68,0,0,0,1,503
69,1,1,69,19,1,1,1,534
70,1,1,70,19,0,0,1,908
71,1,1,71,19,1,1,1,633
72,1,1,72,19,0,0,1,584
73,1,1,73,19,0,0,1,569
74,1,1,74,1,0,0,1,600
75,1,1,75,31,1,1,1,658
76,1,1,76,31,0,0,1,807
77,1,1,77,19,1,1,1,674
78,1,1,78,31,1,1,1,559
79,1,1,79,1,0,0,1,649
80,1,1,80,0,1,1,1,495
81,1,1,81,9,0,0,1,887
82,1,1,82,9,0,0,1,678
83,1,1,83,31,0,0,1,811
84,1,1,84,31,1,1,1,799
85,1,1,85,19,0,0,1,765
86,1,1,86,1,1,1,1,536
87,1,1,87,4,1,1,1,532
88,1,1,88,9,1,1,1,724
89,1,1,89,19,1,1,1,568
90,1,1,90,0,1,1,1,541
91,1,1,91,9,1,1,1,694
92,1,1,92,1,0,0,1,793
93,1,1,93,1,1,1,1,514
94,1,1,94,0,1,1,1,440
95,1,1,95,1,1,1,1,504
96,1,1,96,9,1,1,1,458
97,1,1,97,9,0,0,1,509
98,1,1,98,31,0,0,1,684
99,1,1,99,9,0,0,1,744
100,1,1,100,19,0,0,1,639
101,1,1,101,31,0,0,1,886
102,1,1,102,9,0,0,1,910
103,1,1,103,31,0,0,1,501
104,1,1,104,4,1,1,1,598
105,1,1,105,31,0,0,1,556
106,1,1,106,19,0,0,1,586
107,1,1,107,9,1,1,1,561
108,1,1,108,31,0,0,1,700
109,1,1,109,1,0,0,1,594
110,1,1,110,9,1,1,1,594
111,1,1,111,4,1,1,1,587
112,1,1,112,9,0,0,1,665
113,1,1,113,1,0,0,1,670
114,1,1,114,9,1,1,1,604
115,1,1,115,31,0,0,1,635
116,1,1,116,31,1,1,1,732
117,1,1,117,9,1,1,1,522
118,1,1,118,1,1,1,1,587
119,1,1,119,0,1,1,1,507
120,1,1,120,4,0,0,1,445
121,1,1,121,31,0,0,1,848
122,1,1,122,1,1,1,1,591
123,1,1,123,31,0,0,1,559
124,1,1,124,1,1,1,1,546
125,1,1,125,9,1,1,1,530
126,1,1,126,1,1,1,1,437
127,1,1,127,4,1,1,1,500
128,1,1,128,4,1,1,1,585
129,1,1,129,4,1,1,1,512
130,1,1,130,1,0,0,1,504
131,1,1,131,9,0,0,1,628
132,1,1,132,9,0,0,1,593
133,1,1,133,9,1,1,1,771
134,1,1,134,1,0,0,1,509
135,1,1,135,31,0,0,1,656
136,1,1,136,1,0,0,1,422
137,1,1,137,9,0,0,1,771
138,1,1,138,1,1,1,1,653
139,1,1,139,31,0,0,1,617
140,1,1,140,4,0,0,1,564
141,1,1,141,19,0,0,1,620
142,1,1,142,4,0,0,1,494
143,1,1,143,19,0,0,1,586
144,1,1,144,9,1,1,1,567
145,1,1,145,9,1,1,1,556
146,1,1,146,9,1,1,1,618
147,1,1,147,4,1,1,1,654
148,1,1,148,19,1,1,1,751
149,1,1,149,4,0,0,1,601
150,1,1,150,1,1,1,1,515
151,1,1,151,19,0,0,1,656
152,1,1,152,19,1,1,1,499
153,1,1,153,0,0,0,1,492
154,1,1,154,4,1,1,1,373
155,1,1,155,1,0,0,1,414
156,1,1,156,19,1,1,1,475
157,1,1,157,9,0,0,1,426
158,1,1,158,31,0,0,1,610
159,1,1,159,4,1,1,1,522
160,1,1,160,9,1,1,1,535
161,1,1,161,0,1,1,1,426
162,1,1,162,9,0,0,1,580
163,1,1,163,1,0,0,1,507
164,1,1,164,0,0,0,1,365
165,1,1,165,31,0,0,1,677
166,1,1,166,31,1,1,1,670
167,1,1,167,1,0,0,1,783
168,1,1,168,19,1,1,1,602
169,1,1,169,19,1,1,1,458
170,1,1,170,9,1,1,1,511
171,1,1,171,31,0,0,1,585
172,1,1,172,31,0,0,0,647
173,1,1,173,19,0,0,1,936
174,1,1,174,4,0,0,1,625
175,1,1,175,1,0,0,1,526
176,1,1,176,0,1,1,1,480
177,1,1,177,0,1,1,1,470
178,1,1,178,9,0,0,1,912
179,1,1,179,31,1,1,1,505
180,1,1,180,0,1,1,1,414
181,1,1,181,1,1,1,1,572
182,1,1,182,4,0,0,1,561
183,1,1,183,4,1,1,1,477
184,1,1,184,19,1,1,1,479
185,1,1,185,31,0,0,1,631
186,1,1,186,31,1,1,1,580
187,1,1,187,19,1,1,1,464
188,1,1,188,1,1,1,1,451
189,1,1,189,19,1,1,1,943
190,1,1,190,1,1,1,1,758
191,1,1,191,0,0,0,1,440
192,1,1,192,1,0,0,0,566
193,1,1,193,9,0,0,1,1113
194,1,1,194,9,1,1,1,725
195,1,1,195,1,1,1,1,720
196,1,1,196,4,0,0,1,521
197,1,1,197,4,0,0,1,535
198,1,1,198,19,0,0,1,554
199,1,1,199,9,0,0,1,652
200,1,1,200,4,1,1,1,635
201,1,1,201,9,0,0,1,615
202,1,1,202,1,1,1,1,558
203,1,1,203,19,0,0,1,677
204,1,1,204,4,1,1,1,664
205,1,1,205,31,0,0,1,773
206,1,1,206,1,1,1,1,566
207,1,1,207,1,1,1,1,507
208,1,1,208,0,0,0,1,1059
209,1,1,209,1,1,1,1,632
210,1,1,210,19,0,0,1,643
211,1,1,211,4,0,0,1,618
212,1,1,212,9,1,1,1,635
213,1,1,213,4,1,1,1,512
214,1,1,214,9,1,1,1,471
215,1,1,215,31,0,0,1,638
216,1,1,216,1,1,1,1,473
217,1,1,217,31,1,1,1,612
218,1,1,218,1,1,1,1,523
219,1,1,219,31,1,1,1,542
220,1,1,220,4,1,1,1,379
221,1,1,221,31,0,0,1,589
222,1,1,222,1,1,1,1,503
223,1,1,223,9,0,0,1,525
224,1,1,224,4,1,1,1,476
225,1,1,225,31,0,0,1,593
226,1,1,226,1,1,1,1,468
227,1,1,227,19,1,1,1,601
228,1,1,228,19,1,1,1,414
229,1,1,229,9,1,1,1,531
230,1,1,230,1,0,0,1,891
231,1,1,231,19,0,0,1,771
232,1,1,232,19,1,1,1,610
233,1,1,233,1,1,1,1,652
234,1,1,234,9,1,1,0,531
235,1,1,235,19,1,1,1,744
236,1,1,236,4,0,0,1,1026
237,1,1,237,19,0,0,1,661
238,1,1,238,1,1,1,1,581
239,1,1,239,1,1,1,1,527
240,1,1,240,9,0,0,1,613
241,1,1,241,19,1,1,1,476
242,1,1,242,19,1,1,1,714
243,1,1,243,19,0,0,1,872
244,1,1,244,19,0,0,1,611
245,1,1,245,31,1,1,1,652
246,1,1,246,31,0,0,1,609
247,1,1,247,4,0,0,1,521
248,1,1,248,9,0,0,1,860
249,1,1,249,4,1,1,1,567
250,1,1,250,19,1,1,1,545
251,1,1,251,31,1,1,1,538
252,1,1,252,31,0,0,1,735
253,1,1,253,31,0,0,1,657
254,1,1,254,31,1,1,1,556
255,1,1,255,1,1,1,1,482
256,1,1,256,1,0,0,1,693
257,1,1,257,1,0,0,1,538
258,1,1,258,0,1,1,1,617
259,1,1,259,1,0,0,1,935
260,1,1,260,31,1,1,1,600
261,1,1,261,31,0,0,1,694
262,1,1,262,31,0,0,1,632
263,1,1,263,19,1,1,1,584
264,1,1,264,0,0,0,1,593
265,1,1,265,4,0,0,1,539
266,1,1,266,9,1,1,1,536
267,1,1,267,4,0,0,1,723
268,1,1,268,31,0,0,1,808
269,1,1,269,19,0,0,1,668
270,1,1,270,1,0,0,1,838
271,1,1,271,31,0,0,1,669
272,1,1,272,19,1,1,1,571
273,1,1,273,9,0,0,1,632
274,1,1,274,4,1,1,1,544
275,1,1,275,31,1,1,1,713
276,1,1,276,0,1,1,1,426
277,1,1,277,19,0,0,1,799
278,1,1,278,19,0,0,1,737
279,1,1,279,0,0,0,1,576
280,1,1,280,31,1,1,1,558
281,1,1,281,19,1,1,1,544
282,1,1,282,19,0,0,1,553
283,1,1,283,19,1,1,1,1144
284,1,1,284,31,1,1,1,724
285,1,1,285,9,0,0,1,685
286,1,1,286,0,0,0,1,780
287,1,1,287,1,1,1,1,396
288,1,1,288,4,0,0,1,654
289,1,1,289,19,1,1,1,464
290,1,1,290,9,1,1,1,568
291,1,1,291,0,0,0,1,763
292,1,1,292,19,0,0,1,691
293,1,1,293,31,1,1,1,474
294,1,1,294,31,0,0,1,537
295,1,1,295,31,1,1,1,526
296,1,1,296,31,0,0,1,627
297,1,1,297,19,0,0,1,615
298,1,1,298,19,1,1,1,671
299,1,1,299,4,1,1,1,545
300,1,1,300,9,0,0,1,567
301,1,1,301,4,0,0,1,693
302,1,1,302,31,0,0,1,684
303,1,1,303,9,0,0,1,629
304,1,1,304,4,0,0,1,748
305,1,1,305,0,0,0,1,471
306,1,1,306,19,1,1,1,584
307,1,1,307,9,0,0,1,629
308,1,1,308,0,0,0,1,454
309,1,1,309,4,0,0,1,478
310,1,1,310,19,1,1,1,563
311,1,1,311,19,1,1,1,655
312,1,1,312,31,0,0,1,842
313,1,1,313,1,0,0,1,897
314,1,1,314,1,0,0,1,492
315,1,1,315,9,0,0,1,683
316,1,1,316,31,1,1,1,609
317,1,1,317,9,0,0,1,749
318,1,1,318,31,0,0,1,575
319,1,1,319,9,1,1,1,434
320,1,1,320,1,0,0,1,689
321,1,1,321,9,1,1,1,710
322,1,1,322,4,1,1,1,508
323,1,1,323,1,0,0,1,608
324,1,1,324,9,1,1,1,577
325,1,1,325,19,1,1,1,508
326,1,1,326,31,1,1,1,604
327,1,1,327,0,0,0,1,568
328,1,1,328,4,1,1,1,536
329,1,1,329,1,0,0,1,542
330,1,1,330,19,1,1,1,576
331,1,1,331,9,0,0,1,582
332,1,1,332,19,1,1,1,598
333,1,1,333,19,0,0,1,574
334,1,1,334,4,0,0,1,663
335,1,1,335,9,0,0,1,499
336,1,1,336,19,0,0,1,523
337,1,1,337,0,0,0,1,1166
338,1,1,338,1,0,0,1,730
339,1,1,339,9,0,0,1,850
340,1,1,340,4,1,1,1,542
341,1,1,341,1,1,1,1,440
342,1,1,342,31,0,0,1,586
343,1,1,343,31,0,0,1,564
344,1,1,344,4,1,1,1,473
345,1,1,345,4,1,1,1,602
346,1,1,346,0,1,1,1,605
347,1,1,347,4,0,0,1,509
348,1,1,348,9,1,1,1,453
349,1,1,349,4,1,1,1,736
350,1,1,350,0,0,0,1,525
351,1,1,351,1,0,0,1,750
352,1,1,352,0,0,0,1,460
353,1,1,353,19,0,0,1,686
354,1,1,354,19,1,1,1,651
355,1,1,355,4,1,1,1,514
356,1,1,356,4,0,0,1,634
357,1,1,357,1,1,1,1,476
358,1,1,358,31,1,1,1,530
359,1,1,359,31,0,0,1,463
360,1,1,360,31,1,1,1,608
361,1,1,361,4,1,1,1,582
362,1,1,362,4,0,0,1,671
363,1,1,363,1,0,0,1,905
364,1,1,364,4,1,1,1,525
365,1,1,365,19,0,0,1,661
366,1,1,366,4,1,1,1,369
367,1,1,367,19,0,0,1,493
368,1,1,368,19,1,1,1,533
369,1,1,369,9,1,1,1,466
370,1,1,370,1,0,0,1,645
371,1,1,371,31,1,1,1,637
372,1,1,372,19,0,0,1,619
373,1,1,373,9,1,1,1,540
374,1,1,374,9,1,1,1,552
375,1,1,375,19,0,0,1,562
376,1,1,376,4,0,0,1,797
377,1,1,377,31,1,1,1,622
378,1,1,378,9,1,1,1,613
379,1,1,379,19,1,1,1,893
380,1,1,380,9,1,1,1,599
381,1,1,381,31,0,0,1,757
382,1,1,382,19,0,0,1,513
383,1,1,383,1,0,0,1,442
384,1,1,384,31,1,1,1,504
385,1,1,385,9,1,1,1,477
386,1,1,386,4,0,0,1,483
387,1,1,387,19,1,1,1,555
388,1,1,388,19,0,0,1,938
389,1,1,389,19,0,0,1,848
390,1,1,390,19,1,1,1,623
391,1,1,391,31,0,0,1,683
392,1,1,392,9,0,0,1,615
393,1,1,393,1,0,0,1,579
394,1,1,394,4,1,1,1,644
395,1,1,395,19,1,1,1,539
396,1,1,396,19,0,0,1,711
397,1,1,397,19,1,1,1,576
398,1,1,398,9,0,0,1,614
399,1,1,399,1,1,1,1,648
400,1,1,400,1,1,1,1,514
401,1,1,401,1,0,0,1,877
402,1,1,402,1,0,0,1,526
403,1,1,403,31,1,1,1,590
404,1,1,404,9,1,1,1,674
405,1,1,405,19,0,0,1,596
406,1,1,406,9,0,0,1,439
407,1,1,407,0,0,0,1,406
408,1,1,408,31,1,1,1,686
409,1,1,409,1,1,1,1,439
410,1,1,410,4,1,1,1,733
411,1,1,411,31,0,0,1,556
412,1,1,412,31,1,1,1,561
413,1,1,413,9,1,1,1,482
414,1,1,414,31,1,1,1,518
415,1,1,415,19,0,0,1,517
416,1,1,416,31,0,0,1,741
417,1,1,417,31,1,1,1,602
418,1,1,418,31,1,1,1,519
419,1,1,419,4,0,0,1,564
420,1,1,420,1,0,0,1,384
421,1,1,421,31,1,1,1,411
422,1,1,422,19,1,1,1,558
423,1,1,423,9,0,0,1,655
424,1,1,424,9,1,1,1,502
425,1,1,425,19,1,1,1,512
426,1,1,426,4,0,0,1,715
427,1,1,427,1,0,0,1,560
428,1,1,428,4,0,0,1,674
429,1,1,429,4,1,1,1,564
430,1,1,430,19,1,1,1,617
431,1,1,431,4,0,0,1,547
432,1,1,432,1,0,0,1,391
433,1,1,433,31,0,0,1,863
434,1,1,434,1,1,1,1,659
435,1,1,435,1,1,1,1,491
436,1,1,436,31,0,0,1,558
437,1,1,437,4,1,1,1,500
438,1,1,438,19,1,1,1,437
439,1,1,439,4,0,0,1,657
440,1,1,440,31,1,1,1,740
441,1,1,441,4,1,1,1,544
442,1,1,442,1,0,0,1,539
443,1,1,443,4,0,0,1,580
444,1,1,444,31,1,1,1,556
445,1,1,445,1,1,1,1,588
446,1,1,446,4,0,0,1,644
447,1,1,447,31,1,1,1,454
448,1,1,448,1,0,0,1,569
449,1,1,449,1,1,1,1,596
450,1,1,450,4,1,1,1,476
451,1,1,451,9,1,1,1,933
452,1,1,452,31,1,1,1,609
453,1,1,453,9,0,0,1,710
454,1,1,454,31,1,1,1,508
455,1,1,455,0,1,1,1,407
456,1,1,456,19,1,1,1,495
457,1,1,457,1,1,1,1,375
458,1,1,458,9,1,1,1,498
459,1,1,459,1,1,1,1,523
460,1,1,460,1,1,1,1,586
461,1,1,461,4,1,1,1,687
462,1,1,462,4,0,0,1,525
463,1,1,463,9,0,0,1,654
464,1,1,464,31,1,1,1,537
465,1,1,465,19,1,1,1,532
466,1,1,466,9,0,0,1,905
467,1,1,467,19,1,1,1,509
468,1,1,468,1,1,1,1,450
469,1,1,469,1,1,1,1,563
470,1,1,470,19,0,0,1,583
471,1,1,471,1,0,0,1,513
472,1,1,472,9,0,0,0,500
473,1,1,473,1,0,0,1,415
474,1,1,474,31,1,1,1,463
475,1,1,475,1,1,1,1,683
476,1,1,476,31,0,0,1,645
477,1,1,477,1,1,1,1,482
478,1,1,478,1,0,0,1,514
479,1,1,479,9,0,0,1,564
480,1,1,480,19,0,0,1,630
481,1,1,481,9,0,0,1,596
482,1,1,482,0,1,1,1,418
483,1,1,483,31,1,1,1,532
484,1,1,484,4,1,1,1,550
485,1,1,485,19,1,1,1,841
486,1,1,486,31,0,0,1,559
487,1,1,487,4,0,0,1,524
488,1,1,488,1,1,1,1,500
489,1,1,489,9,1,1,1,658
490,1,1,490,1,1,1,1,629
491,1,1,491,9,1,1,1,573
492,1,1,492,19,0,0,1,758
493,1,1,493,0,1,1,1,433
494,1,1,494,31,0,0,1,690
495,1,1,495,4,0,0,1,478
496,1,1,496,4,0,0,1,607
497,1,1,497,0,0,0,1,569
498,1,1,498,19,0,0,1,850
499,1,1,499,9,1,1,1,682
500,1,1,500,1,0,0,1,958
501,1,1,501,9,0,0,1,955
502,1,1,502,4,1,1,1,427
503,1,1,503,1,0,0,1,729
504,1,1,504,31,1,1,1,693
505,1,1,505,31,1,1,1,425
506,1,1,506,31,1,1,1,410
507,1,1,507,4,0,0,1,351
508,1,1,508,31,0,0,1,647
509,1,1,509,1,0,0,1,556
510,1,1,510,31,0,0,1,548
511,1,1,511,4,0,0,1,538
512,1,1,512,19,0,0,1,761
513,1,1,513,1,1,1,1,450
514,1,1,514,4,1,1,1,561
515,1,1,515,1,1,1,1,501
516,1,1,516,9,1,1,1,602
517,1,1,517,1,1,1,1,534
518,1,1,518,4,0,0,1,765
519,1,1,519,19,1,1,1,581
520,1,1,520,1,0,0,1,554
521,1,1,521,9,0,0,1,616
522,1,1,522,4,0,0,1,764
523,1,1,523,31,1,1,1,756
524,1,1,524,31,1,1,1,653
525,1,1,525,9,0,0,1,729
526,1,1,526,31,1,1,1,630
527,1,1,527,9,1,1,1,471
528,1,1,528,4,0,0,1,544
529,1,1,529,1,0,0,1,425
530,1,1,530,9,1,1,1,637
531,1,1,531,9,0,0,1,780
532,1,1,532,4,1,1,1,431
533,1,1,533,1,1,1,1,503
534,1,1,534,19,1,1,1,693
535,1,1,535,9,1,1,1,652
536,1,1,536,9,0,0,1,522
537,1,1,537,4,1,1,1,579
538,1,1,538,9,1,1,1,610
539,1,1,539,19,0,0,1,649
540,1,1,540,4,1,1,1,449
541,1,1,541,9,1,1,1,549
542,1,1,542,31,1,1,1,456
543,1,1,543,19,0,0,1,643
544,1,1,544,19,1,1,1,555
545,1,1,545,31,0,0,1,554
546,1,1,546,1,1,1,1,412
547,1,1,547,4,0,0,1,664
548,1,1,548,4,1,1,1,554
549,1,1,549,9,0,0,1,595
550,1,1,550,9,1,1,1,597
551,1,1,551,0,1,1,1,679
552,1,1,552,0,1,1,1,408
553,1,1,553,31,0,0,1,595
554,1,1,554,4,0,0,0,429
555,1,1,555,4,0,0,1,512
556,1,1,556,31,1,1,1,511
557,1,1,557,31,1,1,1,595
558,1,1,558,1,0,0,1,617
559,1,1,559,31,1,1,1,671
560,1,1,560,1,0,0,1,483
561,1,1,561,9,1,1,1,545
562,1,1,562,4,1,1,1,529
563,1,1,563,1,0,0,1,618
564,1,1,564,4,1,1,1,518
565,1,1,565,31,0,0,1,628
566,1,1,566,31,0,0,1,650
567,1,1,567,0,1,1,1,478
568,1,1,568,4,1,1,1,562
569,1,1,569,19,1,1,1,469
570,1,1,570,4,0,0,1,432
571,1,1,571,31,1,1,1,538
572,1,1,572,0,1,1,1,611
573,1,1,573,1,0,0,1,520
574,1,1,574,0,1,1,1,522
575,1,1,575,19,1,1,1,567
576,1,1,576,31,1,1,1,512
577,1,1,577,9,0,0,1,800
578,1,1,578,9,0,0,1,548
579,1,1,579,4,1,1,1,543
580,1,1,580,4,1,1,1,499
581,1,1,581,19,1,1,1,590
582,1,1,582,1,1,1,1,407
583,1,1,583,4,1,1,1,377
584,1,1,584,1,1,1,1,390
585,1,1,585,0,0,0,1,427
586,1,1,586,31,0,0,1,712
587,1,1,587,19,1,1,1,480
588,1,1,588,9,1,1,1,501
589,1,1,589,19,0,0,1,701
590,1,1,590,19,1,1,1,518
591,1,1,591,31,1,1,1,578
592,1,1,592,9,0,0,1,639
593,1,1,593,4,1,1,1,614
594,1,1,594,9,0,0,1,599
595,1,1,595,19,0,0,1,670
596,1,1,596,1,0,0,1,539
597,1,1,597,1,1,1,1,441
598,1,1,598,9,0,0,1,881
599,1,1,599,1,0,0,1,516
600,1,1,600,31,1,1,1,883
601,1,1,601,31,0,0,1,744
602,1,1,602,19,0,0,1,889
603,1,1,603,19,1,1,1,848
604,1,1,604,9,0,0,1,638
605,1,1,605,4,0,0,1,1083
606,1,1,606,9,1,1,1,525
607,1,1,607,0,0,0,1,701
608,1,1,608,19,1,1,1,478
609,1,1,609,1,0,0,1,711
610,1,1,610,31,0,0,1,631
611,1,1,611,31,1,1,1,811
612,1,1,612,4,1,1,1,464
613,1,1,613,9,1,1,1,646
614,1,1,614,4,1,1,1,551
615,1,1,615,1,1,1,1,485
616,1,1,616,31,0,0,1,616
617,1,1,617,4,0,0,1,600
618,1,1,618,0,1,1,1,554
619,1,1,619,9,0,0,1,528
620,1,1,620,31,1,1,1,753
621,1,1,621,4,1,1,1,620
622,1,1,622,4,1,1,1,435
623,1,1,623,31,0,0,1,602
624,1,1,624,31,0,0,1,510
625,1,1,625,4,0,0,0,548
626,1,1,626,4,0,0,1,783
627,1,1,627,0,1,1,1,548
628,1,1,628,1,1,1,1,682
629,1,1,629,31,0,0,1,679
630,1,1,630,0,0,0,1,533
631,1,1,631,4,1,1,1,519
632,1,1,632,19,0,0,1,591
633,1,1,633,4,1,1,1,560
634,1,1,634,9,1,1,1,604
635,1,1,635,4,0,0,1,668
636,1,1,636,9,0,0,1,760
637,1,1,637,4,1,1,1,475
638,1,1,638,19,0,0,1,766
639,1,1,639,0,1,1,1,537
640,1,1,640,9,0,0,1,580
641,1,1,641,1,1,1,1,519
642,1,1,642,9,0,0,1,555
643,1,1,643,31,1,1,1,619
644,1,1,644,9,1,1,1,544
645,1,1,645,31,0,0,1,566
646,1,1,646,1,1,1,1,554
647,1,1,647,9,1,1,1,600
648,1,1,648,9,0,0,1,586
649,1,1,649,4,1,1,1,498
650,1,1,650,4,1,1,1,575
651,1,1,651,1,1,1,1,679
652,1,1,652,4,1,1,1,573
653,1,1,653,9,0,0,1,873
654,1,1,654,31,1,1,1,623
655,1,1,655,4,0,0,1,604
656,1,1,656,1,0,0,1,605
657,1,1,657,9,0,0,1,630
658,1,1,658,31,1,1,1,622
659,1,1,659,4,1,1,1,423
660,1,1,660,31,0,0,1,663
661,1,1,661,19,1,1,1,414
662,1,1,662,19,0,0,1,628
663,1,1,663,9,0,0,1,628
664,1,1,664,1,1,1,1,489
665,1,1,665,9,0,0,1,694
666,1,1,666,19,1,1,1,576
667,1,1,667,19,0,0,1,478
668,1,1,668,1,1,1,1,401
669,1,1,669,31,1,1,1,551
670,1,1,670,31,0,0,1,591
671,1,1,671,31,1,1,1,669
672,1,1,672,31,1,1,1,494
673,1,1,673,4,0,0,1,458
674,1,1,674,1,0,0,1,657
675,1,1,675,9,1,1,1,576
676,1,1,676,0,0,0,1,493
677,1,1,677,19,0,0,1,698
678,1,1,678,19,0,0,1,728
679,1,1,679,19,0,0,1,552
680,1,1,680,1,1,1,1,476
681,1,1,681,9,0,0,1,565
682,1,1,682,9,0,0,1,653
683,1,1,683,19,0,0,1,557
684,1,1,684,1,1,1,1,472
685,1,1,685,0,1,1,1,404
686,1,1,686,4,0,0,1,464
687,1,1,687,31,0,0,1,717
688,1,1,688,9,1,1,1,663
689,1,1,689,9,1,1,1,558
690,1,1,690,9,1,1,1,449
691,1,1,691,9,1,1,1,659
692,1,1,692,4,1,1,1,518
693,1,1,693,19,1,1,1,549
694,1,1,694,9,1,1,1,634
695,1,1,695,19,1,1,1,571
696,1,1,696,9,1,1,1,522
697,1,1,697,1,1,1,1,486
698,1,1,698,9,1,1,1,550
699,1,1,699,4,0,0,1,610
700,1,1,700,4,0,0,1,717
701,1,1,701,19,1,1,1,90
702,1,1,702,0,1,1,1,929
703,1,1,703,19,1,1,1,538
704,1,1,704,19,1,1,1,501
705,1,1,705,1,1,1,1,456
706,1,1,706,19,0,0,1,611
707,1,1,707,4,1,1,1,877
708,1,1,708,9,1,1,1,729
709,1,1,709,1,0,0,1,596
710,1,1,710,9,0,0,1,540
711,1,1,711,9,0,0,1,796
712,1,1,712,31,0,0,1,455
713,1,1,713,1,0,0,1,514
714,1,1,714,31,1,1,1,588
715,1,1,715,19,0,0,1,530
716,1,1,716,9,0,0,1,646
717,1,1,717,4,0,0,1,566
718,1,1,718,9,0,0,1,575
719,1,1,719,4,0,0,1,470
720,1,1,720,31,0,0,1,637
721,1,1,721,0,0,0,1,438
722,1,1,722,4,0,0,1,546
723,1,1,723,4,1,1,1,548
724,1,1,724,31,1,1,1,533
725,1,1,725,1,1,1,1,626
726,1,1,726,9,0,0,1,530
727,1,1,727,31,0,0,1,932
728,1,1,728,9,1,1,1,581
729,1,1,729,4,0,0,1,543
730,1,1,730,4,1,1,1,857
731,1,1,731,19,0,0,1,635
732,1,1,732,1,1,1,1,548
733,1,1,733,9,0,0,1,778
734,1,1,734,19,0,0,1,611
735,1,1,735,4,0,0,1,628
736,1,1,736,31,0,0,1,956
737,1,1,737,1,0,0,1,484
738,1,1,738,4,0,0,1,578
739,1,1,739,9,0,0,1,518
740,1,1,740,9,1,3,0,581
741,1,1,741,19,0,0,1,901
742,1,1,742,1,0,0,0,486
743,1,1,743,1,0,0,1,516
744,1,1,744,31,0,0,1,481
745,1,1,745,4,0,0,1,736
746,1,1,746,31,1,1,1,625
747,1,1,747,19,1,1,1,598
748,1,1,748,1,0,0,1,477
749,1,1,749,19,1,1,1,459
750,1,1,750,31,1,1,1,587
751,1,1,751,19,1,1,1,990
752,1,1,752,1,1,1,1,544
753,1,1,753,1,0,0,1,512
754,1,1,754,31,1,1,1,702
755,1,1,755,9,1,1,1,606
756,1,1,756,19,1,1,1,478
757,1,1,757,4,0,0,1,667
758,1,1,758,4,0,0,1,597
759,1,1,759,4,1,1,1,559
760,1,1,760,0,0,0,1,564
761,1,1,761,19,0,0,1,514
762,1,1,762,19,1,1,1,562
763,1,1,763,31,1,1,1,586
764,1,1,764,4,0,0,1,700
765,1,1,765,19,0,0,1,589
766,1,1,766,4,0,0,1,542
767,1,1,767,4,0,0,0,402
768,1,1,768,31,0,0,1,571
769,1,1,769,19,1,1,1,880
770,1,1,770,31,1,1,1,611
771,1,1,771,9,0,0,1,583
772,1,1,772,1,1,1,1,452
773,1,1,773,31,0,0,1,890
774,1,1,774,9,0,0,1,615
775,1,1,775,1,1,1,1,502
776,1,1,776,4,1,1,1,642
777,1,1,777,9,1,1,1,458
778,1,1,778,4,0,0,1,488
779,1,1,779,31,1,1,1,583
780,1,1,780,19,1,1,1,582
781,1,1,781,31,0,0,1,544
782,1,1,782,9,1,1,1,556
783,1,1,783,19,0,0,1,674
784,1,1,784,19,0,0,1,749
785,1,1,785,9,1,1,1,587
786,1,1,786,1,1,1,1,599
787,1,1,787,1,0,0,1,713
788,1,1,788,9,0,0,1,522
789,1,1,789,0,0,0,1,536
790,1,1,790,9,1,1,1,628
791,1,1,791,1,1,1,1,610
792,1,1,792,19,0,0,1,581
793,1,1,793,9,0,0,0,497
794,1,1,794,9,1,1,1,1001
795,1,1,795,31,1,1,1,729
796,1,1,796,19,1,1,1,856
797,1,1,797,1,1,1,1,736
798,1,1,798,1,0,0,1,690
799,1,1,799,4,1,1,1,602
800,1,1,800,19,0,0,1,640
801,2,1,1,1,1,1,1,2892
802,2,1,2,4,1,1,1,730
803,2,1,3,31,1,1,1,978
804,2,1,4,31,1,1,1,936
805,2,1,5,9,1,1,1,656
806,2,1,6,1,0,0,1,920
807,2,1,7,31,1,1,1,699
808,2,1,8,9,0,0,1,714
809,2,1,9,1,1,1,1,715
810,2,1,10,4,0,0,1,660
811,2,1,11,4,1,1,1,554
812,2,1,12,1,0,0,1,794
813,2,1,13,31,1,1,1,704
814,2,1,14,4,1,1,1,839
815,2,1,15,4,0,0,1,720
816,2,1,16,31,1,1,1,579
817,2,1,17,31,0,0,1,548
818,2,1,18,19,1,1,1,673
819,2,1,19,4,1,1,1,687
820,2,1,20,1,1,1,1,508
821,2,1,21,0,0,0,1,393
822,2,1,22,0,1,1,1,713
823,2,1,23,1,0,0,1,530
824,2,1,24,4,0,0,1,559
825,2,1,25,19,1,1,1,708
826,2,1,26,9,1,1,1,548
827,2,1,27,4,0,0,1,665
828,2,1,28,1,1,1,1,531
829,2,1,29,19,0,0,1,734
830,2,1,30,19,0,0,1,572
831,2,1,31,19,0,0,1,675
832,2,1,32,4,0,0,1,708
833,2,1,33,31,1,1,1,757
834,2,1,34,4,0,0,1,786
835,2,1,35,19,1,1,1,545
836,2,1,36,31,1,1,1,666
837,2,1,37,0,0,0,1,567
838,2,1,38,19,1,1,1,806
839,2,1,39,9,0,0,1,574
840,2,1,40,19,1,1,1,826
841,2,1,41,4,1,1,1,488
842,2,1,42,9,1,1,1,490
843,2,1,43,4,0,0,1,578
844,2,1,44,19,1,1,1,595
845,2,1,45,0,0,0,1,460
846,2,1,46,9,1,1,1,444
847,2,1,47,31,0,0,1,744
848,2,1,48,0,0,0,1,546
849,2,1,49,0,1,1,1,568
850,2,1,50,1,1,1,1,448
851,2,1,51,1,1,1,1,628
852,2,1,52,9,1,1,1,519
853,2,1,53,1,1,1,1,496
854,2,1,54,31,0,0,1,581
855,2,1,55,19,1,1,1,542
856,2,1,56,31,0,0,1,531
857,2,1,57,31,0,0,1,659
858,2,1,58,1,1,1,1,732
859,2,1,59,19,1,1,1,590
860,2,1,60,19,0,0,1,647
861,2,1,61,19,0,0,1,714
862,2,1,62,19,1,1,1,763
863,2,1,63,4,1,1,1,713
864,2,1,64,31,0,0,1,536
865,2,1,65,9,1,1,1,477
866,2,1,66,0,1,1,1,510
867,2,1,67,1,0,0,1,501
868,2,1,68,1,1,1,1,480
869,2,1,69,9,1,1,1,584
870,2,1,70,19,1,1,1,588
871,2,1,71,9,1,1,1,633
872,2,1,72,4,1,1,1,635
873,2,1,73,31,1,1,1,579
874,2,1,74,9,0,0,1,750
875,2,1,75,4,0,0,1,561
876,2,1,76,0,1,1,1,500
877,2,1,77,1,1,1,1,499
878,2,1,78,1,1,1,1,509
879,2,1,79,1,0,0,1,546
880,2,1,80,31,0,0,1,547
881,2,1,81,9,0,0,1,558
882,2,1,82,9,1,1,1,759
883,2,1,83,4,1,1,1,573
884,2,1,84,19,0,0,1,511
885,2,1,85,1,1,1,1,618
886,2,1,86,9,1,1,1,964
887,2,1,87,9,0,0,1,570
888,2,1,88,31,1,1,1,611
889,2,1,89,19,1,1,1,729
890,2,1,90,1,1,1,1,911
891,2,1,91,9,1,1,1,549
892,2,1,92,1,0,0,1,490
893,2,1,93,19,1,1,1,518
894,2,1,94,1,1,1,1,602
895,2,1,95,9,1,1,1,649
896,2,1,96,19,0,0,1,565
897,2,1,97,31,1,1,1,633
898,2,1,98,9,0,0,1,476
899,2,1,99,4,1,1,1,742
900,2,1,100,31,0,0,1,564
901,2,1,101,9,1,1,1,618
902,2,1,102,31,1,1,1,659
903,2,1,103,9,0,0,1,656
904,2,1,104,9,0,0,1,601
905,2,1,105,4,1,1,1,656
906,2,1,106,9,1,1,1,548
907,2,1,107,4,1,1,1,601
908,2,1,108,1,1,1,1,528
909,2,1,109,19,1,1,1,544
910,2,1,110,0,1,1,1,418
911,2,1,111,1,0,0,1,526
912,2,1,112,31,1,1,1,733
913,2,1,113,9,1,1,1,569
914,2,1,114,9,1,1,1,557
915,2,1,115,31,1,1,1,487
916,2,1,116,31,1,1,1,495
917,2,1,117,19,0,0,1,738
918,2,1,118,19,0,0,1,574
919,2,1,119,19,1,1,1,603
920,2,1,120,4,0,0,1,704
921,2,1,121,19,1,1,1,390
922,2,1,122,1,1,1,1,505
923,2,1,123,31,0,0,1,567
924,2,1,124,9,0,0,1,604
925,2,1,125,31,0,0,1,567
926,2,1,126,0,0,0,1,472
927,2,1,127,9,1,1,1,722
928,2,1,128,1,1,1,1,484
929,2,1,129,9,0,0,1,528
930,2,1,130,4,0,0,1,549
931,2,1,131,9,0,0,1,526
932,2,1,132,9,0,0,1,497
933,2,1,133,9,1,1,1,575
934,2,1,134,0,0,0,1,413
935,2,1,135,1,0,0,1,472
936,2,1,136,1,1,1,1,459
937,2,1,137,19,0,0,1,562
938,2,1,138,19,1,1,1,742
939,2,1,139,31,1,1,1,539
940,2,1,140,4,0,0,1,508
941,2,1,141,4,1,1,1,669
942,2,1,142,31,1,1,1,701
943,2,1,143,9,0,0,1,447
944,2,1,144,9,0,0,1,498
945,2,1,145,19,0,0,1,732
946,2,1,146,9,1,1,1,392
947,2,1,147,9,1,1,1,640
948,2,1,148,31,1,1,1,508
949,2,1,149,19,1,1,1,866
950,2,1,150,31,0,0,1,684
951,2,1,151,19,1,1,1,505
952,2,1,152,19,0,0,1,765
953,2,1,153,4,1,1,1,501
954,2,1,154,1,1,1,1,861
955,2,1,155,1,1,1,1,413
956,2,1,156,0,1,1,1,361
957,2,1,157,19,0,0,1,565
958,2,1,158,0,0,0,1,463
959,2,1,159,9,0,0,1,662
960,2,1,160,31,0,0,1,572
961,2,1,161,31,0,0,1,658
962,2,1,162,4,0,0,1,932
963,2,1,163,4,0,0,1,443
964,2,1,164,9,0,0,1,693
965,2,1,165,4,1,1,1,529
966,2,1,166,4,1,1,1,479
967,2,1,167,31,0,0,1,680
968,2,1,168,1,1,1,1,537
969,2,1,169,31,1,1,1,508
970,2,1,170,9,1,1,1,531
971,2,1,171,31,0,0,1,497
972,2,1,172,9,1,1,1,385
973,2,1,173,1,1,1,1,673
974,2,1,174,1,1,1,1,554
975,2,1,175,9,1,1,1,531
976,2,1,176,1,1,1,1,504
977,2,1,177,9,1,1,1,609
978,2,1,178,31,1,1,1,556
979,2,1,179,31,1,1,1,512
980,2,1,180,9,1,1,1,807
981,2,1,181,1,1,1,1,430
982,2,1,182,1,0,0,1,780
983,2,1,183,19,1,1,1,628
984,2,1,184,4,1,1,1,653
985,2,1,185,0,1,1,1,501
986,2,1,186,9,1,1,1,697
987,2,1,187,1,0,0,1,487
988,2,1,188,0,1,1,1,496
989,2,1,189,19,1,1,1,655
990,2,1,190,1,1,1,1,407
991,2,1,191,31,0,0,1,726
992,2,1,192,9,1,1,1,625
993,2,1,193,31,1,1,1,737
994,2,1,194,9,0,0,1,497
995,2,1,195,9,0,0,1,688
996,2,1,196,9,0,0,1,548
997,2,1,197,4,0,0,1,598
998,2,1,198,1,0,0,1,408
999,2,1,199,31,0,0,1,929
1000,2,1,200,31,0,0,1,801
1001,2,1,201,31,1,1,1,469
1002,2,1,202,0,0,0,1,407
1003,2,1,203,1,0,0,1,434
1004,2,1,204,1,0,0,1,488
1005,2,1,205,19,0,0,1,485
1006,2,1,206,1,1,1,1,620
1007,2,1,207,4,0,0,1,581
1008,2,1,208,1,1,1,1,545
1009,2,1,209,19,1,1,1,702
1010,2,1,210,9,0,0,1,595
1011,2,1,211,0,0,0,1,495
1012,2,1,212,0,1,1,1,650
1013,2,1,213,19,1,1,1,504
1014,2,1,214,1,1,1,1,763
1015,2,1,215,1,1,1,1,437
1016,2,1,216,31,1,1,1,466
1017,2,1,217,31,1,1,1,651
1018,2,1,218,19,1,1,1,473
1019,2,1,219,4,1,1,1,511
1020,2,1,220,19,0,0,1,631
1021,2,1,221,31,1,1,1,665
1022,2,1,222,9,1,1,1,950
1023,2,1,223,4,0,0,1,649
1024,2,1,224,31,0,0,1,549
1025,2,1,225,4,0,0,1,478
1026,2,1,226,1,0,0,1,484
1027,2,1,227,9,1,1,1,799
1028,2,1,228,1,1,1,1,521
1029,2,1,229,4,1,1,1,487
1030,2,1,230,31,1,1,1,655
1031,2,1,231,9,0,0,1,677
1032,2,1,232,0,0,0,1,401
1033,2,1,233,1,0,0,1,563
1034,2,1,234,9,0,0,1,708
1035,2,1,235,31,0,0,1,382
1036,2,1,236,19,0,0,1,438
1037,2,1,237,1,0,0,1,453
1038,2,1,238,19,0,0,1,495
1039,2,1,239,31,0,0,1,575
1040,2,1,240,1,1,1,1,593
1041,2,1,241,9,1,1,1,440
1042,2,1,242,19,1,1,1,512
1043,2,1,243,9,0,0,1,394
1044,2,1,244,1,0,0,1,440
1045,2,1,245,1,1,1,1,449
1046,2,1,246,19,1,1,1,521
1047,2,1,247,1,0,0,1,449
1048,2,1,248,31,1,1,1,450
1049,2,1,249,9,0,0,1,463
1050,2,1,250,4,1,1,1,383
1051,2,1,251,1,0,0,1,473
1052,2,1,252,19,1,1,1,581
1053,2,1,253,19,1,1,1,638
1054,2,1,254,19,0,0,1,541
1055,2,1,255,9,0,0,1,612
1056,2,1,256,4,1,1,1,466
1057,2,1,257,4,1,1,1,374
1058,2,1,258,19,0,0,1,456
1059,2,1,259,19,0,0,1,721
1060,2,1,260,19,1,1,1,461
1061,2,1,261,1,0,0,1,423
1062,2,1,262,1,0,0,1,623
1063,2,1,263,1,0,0,1,435
1064,2,1,264,9,0,0,1,581
1065,2,1,265,19,0,0,1,543
1066,2,1,266,19,0,0,1,494
1067,2,1,267,9,1,1,1,510
1068,2,1,268,9,0,0,1,629
1069,2,1,269,1,0,0,1,564
1070,2,1,270,31,0,0,1,468
1071,2,1,271,19,0,0,1,422
1072,2,1,272,1,1,1,1,526
1073,2,1,273,4,0,0,1,501
1074,2,1,274,4,1,1,1,669
1075,2,1,275,1,0,0,1,551
1076,2,1,276,9,1,1,1,717
1077,2,1,277,1,0,0,1,553
1078,2,1,278,4,1,1,1,523
1079,2,1,279,31,0,0,1,489
1080,2,1,280,1,0,0,1,520
1081,2,1,281,31,0,0,1,546
1082,2,1,282,1,1,1,1,508
1083,2,1,283,19,1,1,1,676
1084,2,1,284,19,0,0,1,572
1085,2,1,285,19,1,1,1,471
1086,2,1,286,19,1,1,1,695
1087,2,1,287,4,1,1,1,447
1088,2,1,288,1,0,0,1,441
1089,2,1,289,0,1,1,1,474
1090,2,1,290,31,1,1,1,613
1091,2,1,291,0,0,0,1,601
1092,2,1,292,31,0,0,1,662
1093,2,1,293,9,1,1,1,651
1094,2,1,294,1,1,1,1,474
1095,2,1,295,19,1,1,1,516
1096,2,1,296,19,1,1,1,553
1097,2,1,297,1,1,1,1,507
1098,2,1,298,9,0,0,1,690
1099,2,1,299,4,0,0,1,422
1100,2,1,300,31,0,0,1,688
1101,2,1,301,1,1,1,1,736
1102,2,1,302,4,1,1,1,506
1103,2,1,303,19,0,0,1,619
1104,2,1,304,1,0,0,1,737
1105,2,1,305,4,1,1,1,733
1106,2,1,306,9,0,0,1,552
1107,2,1,307,0,0,0,1,534
1108,2,1,308,9,1,1,1,507
1109,2,1,309,9,0,0,1,491
1110,2,1,310,4,1,1,1,768
1111,2,1,311,9,0,0,1,485
1112,2,1,312,9,1,1,1,644
1113,2,1,313,4,1,1,1,664
1114,2,1,314,1,1,1,1,563
1115,2,1,315,1,1,1,1,508
1116,2,1,316,4,1,1,1,420
1117,2,1,317,9,0,0,1,676
1118,2,1,318,1,0,0,1,663
1119,2,1,319,31,1,1,1,616
1120,2,1,320,4,1,1,1,509
1121,2,1,321,19,0,0,1,758
1122,2,1,322,19,1,1,1,512
1123,2,1,323,1,0,0,1,399
1124,2,1,324,31,0,0,1,589
1125,2,1,325,9,1,1,1,661
1126,2,1,326,19,1,1,1,549
1127,2,1,327,4,1,1,1,565
1128,2,1,328,1,1,1,1,442
1129,2,1,329,19,0,0,1,725
1130,2,1,330,0,1,1,1,638
1131,2,1,331,4,0,0,1,669
1132,2,1,332,1,0,0,1,471
1133,2,1,333,9,0,0,1,485
1134,2,1,334,1,0,0,1,354
1135,2,1,335,19,1,1,1,523
1136,2,1,336,4,1,1,1,492
1137,2,1,337,19,1,1,1,491
1138,2,1,338,4,0,0,1,448
1139,2,1,339,4,0,0,1,413
1140,2,1,340,31,0,0,1,527
1141,2,1,341,4,1,1,1,497
1142,2,1,342,0,1,1,1,448
1143,2,1,343,19,1,1,1,434
1144,2,1,344,4,1,1,1,478
1145,2,1,345,31,0,0,1,515
1146,2,1,346,9,0,0,1,403
1147,2,1,347,9,1,1,1,545
1148,2,1,348,4,0,0,1,533
1149,2,1,349,4,0,0,1,477
1150,2,1,350,31,1,1,1,599
1151,2,1,351,4,1,1,1,662
1152,2,1,352,4,0,0,1,390
1153,2,1,353,31,0,0,1,543
1154,2,1,354,4,1,1,1,433
1155,2,1,355,4,1,1,1,572
1156,2,1,356,31,1,1,1,486
1157,2,1,357,9,1,1,1,503
1158,2,1,358,0,1,1,1,414
1159,2,1,359,1,1,1,1,448
1160,2,1,360,19,1,1,1,592
1161,2,1,361,31,0,0,1,621
1162,2,1,362,19,1,1,1,552
1163,2,1,363,4,1,1,1,617
1164,2,1,364,0,0,0,1,460
1165,2,1,365,1,1,1,1,503
1166,2,1,366,1,1,1,1,572
1167,2,1,367,1,0,0,1,465
1168,2,1,368,31,0,0,1,803
1169,2,1,369,19,1,1,1,577
1170,2,1,370,19,0,0,1,553
1171,2,1,371,4,1,1,1,555
1172,2,1,372,31,1,1,1,536
1173,2,1,373,1,1,1,1,455
1174,2,1,374,4,1,1,1,672
1175,2,1,375,4,1,1,1,393
1176,2,1,376,4,0,0,1,536
1177,2,1,377,4,0,0,1,425
1178,2,1,378,1,1,1,1,678
1179,2,1,379,4,0,0,1,405
1180,2,1,380,4,1,1,1,536
1181,2,1,381,4,0,0,1,629
1182,2,1,382,9,0,0,1,410
1183,2,1,383,19,0,0,1,514
1184,2,1,384,9,0,0,1,469
1185,2,1,385,1,0,0,1,426
1186,2,1,386,31,0,0,1,520
1187,2,1,387,4,0,0,1,724
1188,2,1,388,4,0,0,1,460
1189,2,1,389,19,1,1,1,467
1190,2,1,390,19,1,1,1,499
1191,2,1,391,31,0,0,1,464
1192,2,1,392,4,0,0,0,559
1193,2,1,393,31,0,0,1,680
1194,2,1,394,9,0,0,1,634
1195,2,1,395,31,0,0,1,1044
1196,2,1,396,31,1,1,1,640
1197,2,1,397,19,0,0,1,550
1198,2,1,398,19,0,0,1,511
1199,2,1,399,1,0,0,1,651
1200,2,1,400,1,0,0,1,481
1201,2,1,401,4,1,1,1,583
1202,2,1,402,4,1,1,1,520
1203,2,1,403,0,1,1,1,388
1204,2,1,404,19,0,0,1,429
1205,2,1,405,9,1,1,1,601
1206,2,1,406,19,0,0,1,477
1207,2,1,407,9,1,1,1,571
1208,2,1,408,1,0,0,1,612
1209,2,1,409,19,1,1,1,483
1210,2,1,410,4,0,0,1,513
1211,2,1,411,9,1,1,1,396
1212,2,1,412,31,1,1,1,803
1213,2,1,413,31,0,0,1,502
1214,2,1,414,1,0,0,1,434
1215,2,1,415,1,1,1,1,737
1216,2,1,416,31,0,0,1,538
1217,2,1,417,1,0,0,1,651
1218,2,1,418,9,0,0,1,495
1219,2,1,419,9,0,0,1,538
1220,2,1,420,31,0,0,1,486
1221,2,1,421,0,1,1,1,475
1222,2,1,422,9,0,0,1,586
1223,2,1,423,4,0,0,1,457
1224,2,1,424,19,0,0,1,507
1225,2,1,425,4,1,1,1,516
1226,2,1,426,9,1,1,1,518
1227,2,1,427,31,0,0,1,521
1228,2,1,428,9,0,0,1,489
1229,2,1,429,1,1,1,1,460
1230,2,1,430,9,1,1,1,503
1231,2,1,431,9,1,1,1,747
1232,2,1,432,31,1,1,1,462
1233,2,1,433,1,0,0,1,542
1234,2,1,434,19,1,1,1,492
1235,2,1,435,31,0,0,1,531
1236,2,1,436,1,0,0,1,499
1237,2,1,437,31,0,0,1,439
1238,2,1,438,31,1,1,1,656
1239,2,1,439,4,0,0,1,480
1240,2,1,440,4,1,1,1,594
1241,2,1,441,31,1,1,1,505
1242,2,1,442,9,1,1,1,535
1243,2,1,443,31,0,0,1,523
1244,2,1,444,4,1,1,1,400
1245,2,1,445,9,0,0,1,529
1246,2,1,446,1,0,0,1,416
1247,2,1,447,19,0,0,1,437
1248,2,1,448,31,1,1,1,514
1249,2,1,449,9,0,0,1,530
1250,2,1,450,19,1,1,1,422
1251,2,1,451,4,1,1,1,592
1252,2,1,452,1,0,0,1,489
1253,2,1,453,31,1,1,0,527
1254,2,1,454,9,1,1,1,610
1255,2,1,455,31,0,0,1,558
1256,2,1,456,31,0,0,1,836
1257,2,1,457,1,1,1,1,458
1258,2,1,458,4,0,0,1,538
1259,2,1,459,19,1,1,1,645
1260,2,1,460,19,1,1,1,670
1261,2,1,461,4,0,0,1,481
1262,2,1,462,4,0,0,1,454
1263,2,1,463,31,1,1,1,665
1264,2,1,464,1,0,0,1,404
1265,2,1,465,19,0,0,1,470
1266,2,1,466,0,0,0,1,852
1267,2,1,467,9,0,0,1,536
1268,2,1,468,4,0,0,1,562
1269,2,1,469,9,1,1,1,465
1270,2,1,470,4,1,1,1,608
1271,2,1,471,31,1,1,1,606
1272,2,1,472,1,1,1,1,640
1273,2,1,473,31,0,0,1,888
1274,2,1,474,31,0,0,1,500
1275,2,1,475,31,1,1,1,414
1276,2,1,476,0,0,0,1,442
1277,2,1,477,1,0,0,1,524
1278,2,1,478,19,0,0,1,532
1279,2,1,479,4,0,0,1,514
1280,2,1,480,9,0,0,1,615
1281,2,1,481,31,1,1,1,895
1282,2,1,482,9,0,0,1,478
1283,2,1,483,0,1,1,1,466
1284,2,1,484,1,0,0,1,411
1285,2,1,485,4,0,0,1,444
1286,2,1,486,9,1,1,1,632
1287,2,1,487,4,0,0,1,556
1288,2,1,488,9,0,0,1,481
1289,2,1,489,9,1,1,1,533
1290,2,1,490,19,0,0,1,539
1291,2,1,491,1,0,0,1,535
1292,2,1,492,31,0,0,1,490
1293,2,1,493,1,0,0,1,448
1294,2,1,494,4,1,1,1,630
1295,2,1,495,9,0,0,1,563
1296,2,1,496,4,1,1,1,542
1297,2,1,497,19,1,1,1,464
1298,2,1,498,4,0,0,1,448
1299,2,1,499,4,0,0,1,532
1300,2,1,500,31,1,1,1,690
1301,2,1,501,4,1,1,1,581
1302,2,1,502,4,0,0,1,600
1303,2,1,503,4,0,0,0,455
1304,2,1,504,9,1,1,1,621
1305,2,1,505,9,0,0,1,504
1306,2,1,506,0,1,1,1,526
1307,2,1,507,19,1,1,1,686
1308,2,1,508,4,0,0,1,433
1309,2,1,509,0,0,0,1,456
1310,2,1,510,9,0,0,1,524
1311,2,1,511,31,1,1,1,765
1312,2,1,512,9,1,1,0,381
1313,2,1,513,31,0,0,1,764
1314,2,1,514,19,1,1,1,694
1315,2,1,515,9,0,0,1,507
1316,2,1,516,19,1,1,1,733
1317,2,1,517,19,1,1,1,572
1318,2,1,518,1,0,0,1,607
1319,2,1,519,1,1,1,1,541
1320,2,1,520,4,1,1,1,549
1321,2,1,521,4,0,0,1,518
1322,2,1,522,31,1,1,1,709
1323,2,1,523,4,0,0,1,526
1324,2,1,524,19,0,0,1,713
1325,2,1,525,4,0,0,1,544
1326,2,1,526,0,1,1,1,489
1327,2,1,527,9,0,0,1,493
1328,2,1,528,4,1,1,1,486
1329,2,1,529,31,0,0,1,499
1330,2,1,530,19,0,0,1,408
1331,2,1,531,0,0,0,1,509
1332,2,1,532,19,0,0,1,531
1333,2,1,533,31,0,0,1,497
1334,2,1,534,19,1,1,1,592
1335,2,1,535,4,0,0,1,581
1336,2,1,536,31,1,1,1,436
1337,2,1,537,0,1,1,1,468
1338,2,1,538,1,1,1,1,403
1339,2,1,539,19,1,1,1,494
1340,2,1,540,9,1,1,1,394
1341,2,1,541,4,1,1,1,365
1342,2,1,542,1,0,0,1,475
1343,2,1,543,1,1,1,0,447
1344,2,1,544,19,0,0,1,932
1345,2,1,545,9,1,1,1,583
1346,2,1,546,19,0,0,1,573
1347,2,1,547,9,0,0,1,604
1348,2,1,548,1,1,1,1,450
1349,2,1,549,19,1,1,1,666
1350,2,1,550,1,1,1,1,500
1351,2,1,551,4,0,0,1,490
1352,2,1,552,19,0,0,1,669
1353,2,1,553,0,0,0,1,433
1354,2,1,554,9,0,0,1,428
1355,2,1,555,4,1,1,1,470
1356,2,1,556,4,0,0,1,505
1357,2,1,557,31,1,1,1,724
1358,2,1,558,9,0,0,1,476
1359,2,1,559,4,1,1,1,633
1360,2,1,560,4,0,0,1,436
1361,2,1,561,31,1,1,1,437
1362,2,1,562,0,0,0,1,283
1363,2,1,563,0,1,1,1,729
1364,2,1,564,19,0,0,1,554
1365,2,1,565,19,0,0,1,676
1366,2,1,566,19,1,1,1,609
1367,2,1,567,4,0,0,1,473
1368,2,1,568,19,0,0,1,439
1369,2,1,569,4,1,1,1,716
1370,2,1,570,1,1,1,1,600
1371,2,1,571,31,1,1,1,628
1372,2,1,572,31,0,0,1,591
1373,2,1,573,1,1,1,1,433
1374,2,1,574,1,0,0,1,362
1375,2,1,575,19,0,0,1,409
1376,2,1,576,19,0,0,1,592
1377,2,1,577,9,0,0,1,466
1378,2,1,578,9,0,0,1,476
1379,2,1,579,4,0,0,1,451
1380,2,1,580,4,0,0,1,552
1381,2,1,581,9,1,1,1,512
1382,2,1,582,0,0,0,1,478
1383,2,1,583,31,0,0,1,538
1384,2,1,584,31,0,0,1,429
1385,2,1,585,19,1,1,1,648
1386,2,1,586,1,0,0,1,522
1387,2,1,587,9,1,1,1,741
1388,2,1,588,9,1,1,1,443
1389,2,1,589,31,1,1,1,1027
1390,2,1,590,19,1,1,1,759
1391,2,1,591,9,0,0,1,559
1392,2,1,592,4,0,0,1,405
1393,2,1,593,1,1,1,1,435
1394,2,1,594,0,1,1,1,415
1395,2,1,595,9,1,1,1,466
1396,2,1,596,4,1,1,1,387
1397,2,1,597,19,0,0,1,535
1398,2,1,598,1,1,1,1,569
1399,2,1,599,31,1,1,1,541
1400,2,1,600,9,0,0,1,699
1401,2,1,601,1,1,1,1,508
1402,2,1,602,31,1,1,0,526
1403,2,1,603,4,1,1,1,512
1404,2,1,604,4,0,0,1,704
1405,2,1,605,1,0,0,1,540
1406,2,1,606,4,0,0,1,669
1407,2,1,607,31,0,0,1,515
1408,2,1,608,31,1,1,1,650
1409,2,1,609,1,0,0,1,470
1410,2,1,610,19,1,1,1,488
1411,2,1,611,1,0,0,1,627
1412,2,1,612,31,0,0,1,1013
1413,2,1,613,4,0,0,1,506
1414,2,1,614,1,1,1,1,682
1415,2,1,615,19,1,1,1,503
1416,2,1,616,9,0,0,1,456
1417,2,1,617,4,0,0,1,464
1418,2,1,618,4,0,0,1,445
1419,2,1,619,0,0,0,1,365
1420,2,1,620,19,1,1,1,488
1421,2,1,621,19,0,0,1,592
1422,2,1,622,4,1,1,1,940
1423,2,1,623,31,1,1,1,560
1424,2,1,624,31,1,1,1,566
1425,2,1,625,1,0,0,1,620
1426,2,1,626,31,0,0,1,926
1427,2,1,627,31,1,1,1,830
1428,2,1,628,19,0,0,1,545
1429,2,1,629,9,1,1,1,707
1430,2,1,630,9,1,1,1,617
1431,2,1,631,1,0,0,1,626
1432,2,1,632,4,1,1,1,682
1433,2,1,633,31,0,0,1,470
1434,2,1,634,31,1,1,1,616
1435,2,1,635,4,1,1,1,501
1436,2,1,636,9,0,0,1,617
1437,2,1,637,9,0,0,1,532
1438,2,1,638,9,1,1,1,474
1439,2,1,639,0,1,1,1,615
1440,2,1,640,19,1,1,1,523
1441,2,1,641,19,1,1,1,439
1442,2,1,642,1,1,1,1,428
1443,2,1,643,19,1,1,1,504
1444,2,1,644,31,1,1,1,446
1445,2,1,645,9,0,0,0,492
1446,2,1,646,9,1,1,1,696
1447,2,1,647,31,1,1,1,462
1448,2,1,648,31,1,1,1,657
1449,2,1,649,9,0,0,1,765
1450,2,1,650,9,1,1,1,523
1451,2,1,651,19,0,0,1,530
1452,2,1,652,0,1,1,1,459
1453,2,1,653,31,0,0,1,447
1454,2,1,654,19,1,1,1,601
1455,2,1,655,1,1,1,1,519
1456,2,1,656,31,1,1,1,520
1457,2,1,657,4,1,1,1,491
1458,2,1,658,31,1,1,1,621
1459,2,1,659,31,1,1,1,509
1460,2,1,660,9,0,0,1,582
1461,2,1,661,1,1,1,1,464
1462,2,1,662,19,0,0,1,438
1463,2,1,663,1,0,0,1,508
1464,2,1,664,31,0,0,1,574
1465,2,1,665,0,0,0,1,646
1466,2,1,666,19,0,0,1,705
1467,2,1,667,31,0,0,1,600
1468,2,1,668,4,0,0,1,792
1469,2,1,669,9,1,1,1,605
1470,2,1,670,1,0,0,1,748
1471,2,1,671,9,1,1,1,768
1472,2,1,672,0,1,1,1,493
1473,2,1,673,4,0,0,1,514
1474,2,1,674,19,1,1,1,495
1475,2,1,675,9,1,1,1,564
1476,2,1,676,1,0,0,1,535
1477,2,1,677,1,0,0,1,756
1478,2,1,678,19,0,0,1,573
1479,2,1,679,1,1,1,1,532
1480,2,1,680,19,1,1,1,456
1481,2,1,681,31,0,0,1,558
1482,2,1,682,0,0,0,1,478
1483,2,1,683,4,1,1,1,520
1484,2,1,684,4,0,0,1,454
1485,2,1,685,1,1,1,1,409
1486,2,1,686,19,1,1,1,468
1487,2,1,687,1,0,0,1,547
1488,2,1,688,19,0,0,1,524
1489,2,1,689,19,0,0,1,474
1490,2,1,690,9,0,0,1,477
1491,2,1,691,31,0,0,1,412
1492,2,1,692,1,1,1,1,560
1493,2,1,693,9,1,1,1,637
1494,2,1,694,1,0,0,1,581
1495,2,1,695,19,0,0,1,668
1496,2,1,696,19,0,0,1,464
1497,2,1,697,1,0,0,1,463
1498,2,1,698,4,1,1,1,541
1499,2,1,699,9,1,1,1,507
1500,2,1,700,31,1,1,1,541
1501,2,1,701,31,1,1,1,871
1502,2,1,702,19,0,0,1,557
1503,2,1,703,31,1,1,1,500
1504,2,1,704,4,1,1,1,416
1505,2,1,705,19,0,0,1,836
1506,2,1,706,1,0,0,1,419
1507,2,1,707,4,1,1,1,696
1508,2,1,708,9,1,1,1,527
1509,2,1,709,19,1,1,1,548
1510,2,1,710,4,0,0,1,423
1511,2,1,711,31,1,1,1,656
1512,2,1,712,9,0,0,1,790
1513,2,1,713,31,0,0,1,503
1514,2,1,714,4,1,1,1,458
1515,2,1,715,9,1,1,1,591
1516,2,1,716,19,1,1,1,757
1517,2,1,717,9,0,0,1,481
1518,2,1,718,31,0,0,1,489
1519,2,1,719,1,0,0,1,600
1520,2,1,720,4,0,0,1,459
1521,2,1,721,9,1,1,1,530
1522,2,1,722,1,0,0,1,548
1523,2,1,723,31,0,0,1,812
1524,2,1,724,4,0,0,1,545
1525,2,1,725,19,1,1,1,592
1526,2,1,726,19,0,0,1,542
1527,2,1,727,31,1,1,1,1034
1528,2,1,728,4,0,0,1,639
1529,2,1,729,31,0,0,1,565
1530,2,1,730,19,0,0,1,490
1531,2,1,731,31,1,1,1,591
1532,2,1,732,0,0,0,1,413
1533,2,1,733,19,0,0,1,529
1534,2,1,734,4,0,0,1,503
1535,2,1,735,4,0,0,1,521
1536,2,1,736,9,1,1,1,450
1537,2,1,737,31,1,1,1,534
1538,2,1,738,1,0,0,1,464
1539,2,1,739,1,0,0,1,449
1540,2,1,740,1,1,1,1,432
1541,2,1,741,31,0,0,1,637
1542,2,1,742,31,0,0,1,551
1543,2,1,743,4,0,0,1,565
1544,2,1,744,9,1,1,1,680
1545,2,1,745,31,1,1,1,540
1546,2,1,746,9,1,1,1,554
1547,2,1,747,31,0,0,1,488
1548,2,1,748,1,0,0,1,589
1549,2,1,749,4,1,1,1,662
1550,2,1,750,19,0,0,1,429
1551,2,1,751,31,0,0,1,1003
1552,2,1,752,31,0,0,1,750
1553,2,1,753,4,1,1,1,675
1554,2,1,754,19,1,1,1,442
1555,2,1,755,1,1,1,1,410
1556,2,1,756,31,0,0,1,688
1557,2,1,757,1,1,1,1,457
1558,2,1,758,19,0,0,1,483
1559,2,1,759,19,0,0,1,518
1560,2,1,760,1,1,1,1,499
1561,2,1,761,4,0,0,1,494
1562,2,1,762,9,0,0,1,417
1563,2,1,763,9,0,0,1,513
1564,2,1,764,1,0,0,1,569
1565,2,1,765,19,0,0,1,534
1566,2,1,766,19,0,0,1,786
1567,2,1,767,9,0,0,1,519
1568,2,1,768,9,0,0,1,611
1569,2,1,769,31,0,0,1,674
1570,2,1,770,4,0,0,1,428
1571,2,1,771,19,1,1,1,597
1572,2,1,772,19,0,0,1,544
1573,2,1,773,1,1,1,1,419
1574,2,1,774,9,0,0,1,478
1575,2,1,775,1,0,0,1,452
1576,2,1,776,4,1,1,1,703
1577,2,1,777,9,0,0,1,506
1578,2,1,778,31,0,0,1,466
1579,2,1,779,4,1,1,1,516
1580,2,1,780,4,1,1,1,595
1581,2,1,781,1,1,1,1,551
1582,2,1,782,19,0,0,1,706
1583,2,1,783,1,0,0,1,529
1584,2,1,784,0,1,1,1,402
1585,2,1,785,9,1,1,1,465
1586,2,1,786,31,1,1,1,609
1587,2,1,787,31,1,1,1,511
1588,2,1,788,9,1,1,1,484
1589,2,1,789,31,1,1,1,415
1590,2,1,790,1,0,0,0,378
1591,2,1,791,19,0,0,1,611
1592,2,1,792,0,0,0,1,373
1593,2,1,793,19,0,0,1,537
1594,2,1,794,4,1,1,1,727
1595,2,1,795,19,0,0,1,539
1596,2,1,796,1,0,0,1,525
1597,2,1,797,9,0,0,1,506
1598,2,1,798,1,1,1,1,711
1599,2,1,799,1,1,1,1,409
1600,2,1,800,19,1,1,1,484
1601,3,1,1,1,0,0,0,1179
1602,3,1,2,9,1,1,1,587
1603,3,1,3,19,1,1,0,532
1604,3,1,4,19,0,0,1,2333
1605,3,1,5,9,0,0,1,599
1606,3,1,6,9,0,0,1,1117
1607,3,1,7,4,0,0,0,486
1608,3,1,8,1,1,1,1,553
1609,3,1,9,4,1,1,0,443
1610,3,1,10,31,1,1,1,569
1611,3,1,11,19,1,1,0,1925
1612,3,1,12,1,1,1,0,763
1613,3,1,13,4,0,0,0,482
1614,3,1,14,9,0,0,1,498
1615,3,1,15,1,1,1,0,485
1616,3,1,16,1,1,1,0,647
1617,3,1,17,1,0,0,0,546
1618,3,1,18,4,0,0,1,371
1619,3,1,19,9,1,1,1,405
1620,3,1,20,4,1,1,1,489
1621,3,1,21,0,1,1,1,426
1622,3,1,22,19,0,0,0,708
1623,3,1,23,1,0,0,0,510
1624,3,1,24,19,1,1,0,460
1625,3,1,25,9,0,0,0,375
1626,3,1,26,1,0,0,0,582
1627,3,1,27,19,1,1,0,529
1628,3,1,28,4,1,1,1,401
1629,3,1,29,9,1,1,0,454
1630,3,1,30,31,1,1,0,435
1631,3,1,31,31,1,1,1,408
1632,3,1,32,31,0,0,1,478
1633,3,1,33,31,1,1,1,419
1634,3,1,34,1,0,0,0,546
1635,3,1,35,31,1,1,1,465
1636,3,1,36,4,1,1,0,630
1637,3,1,37,4,1,1,0,473
1638,3,1,38,1,0,0,0,430
1639,3,1,39,31,0,0,0,859
1640,3,1,40,31,0,0,1,475
1641,3,1,41,9,1,1,0,436
1642,3,1,42,9,0,0,1,383
1643,3,1,43,19,0,0,1,513
1644,3,1,44,1,0,0,1,366
1645,3,1,45,9,1,1,1,486
1646,3,1,46,9,0,0,0,894
1647,3,1,47,19,0,0,1,402
1648,3,1,48,19,0,0,1,616
1649,3,1,49,4,1,1,0,502
1650,3,1,50,4,1,1,1,643
1651,3,1,51,1,1,1,1,625
1652,3,1,52,19,0,0,1,488
1653,3,1,53,4,0,0,0,473
1654,3,1,54,9,1,1,1,547
1655,3,1,55,19,0,0,1,608
1656,3,1,56,31,0,0,0,1435
1657,3,1,57,1,0,0,0,415
1658,3,1,58,31,0,0,0,440
1659,3,1,59,31,1,1,1,419
1660,3,1,60,31,0,0,0,360
1661,3,1,61,31,1,1,0,1310
1662,3,1,62,1,1,1,1,577
1663,3,1,63,31,1,1,1,916
1664,3,1,64,31,1,1,1,567
1665,3,1,65,9,0,0,0,712
1666,3,1,66,0,0,0,0,608
1667,3,1,67,1,0,0,0,508
1668,3,1,68,9,1,1,1,525
1669,3,1,69,9,1,1,1,707
1670,3,1,70,31,1,1,1,715
1671,3,1,71,31,0,0,1,680
1672,3,1,72,4,1,1,0,901
1673,3,1,73,31,1,1,0,520
1674,3,1,74,9,1,1,0,608
1675,3,1,75,4,1,1,1,562
1676,3,1,76,31,0,0,0,477
1677,3,1,77,9,0,0,0,608
1678,3,1,78,1,0,0,0,528
1679,3,1,79,1,1,1,1,743
1680,3,1,80,19,1,1,0,512
1681,3,1,81,1,0,0,1,668
1682,3,1,82,19,1,1,1,570
1683,3,1,83,4,0,0,1,769
1684,3,1,84,9,0,0,0,671
1685,3,1,85,4,0,0,1,676
1686,3,1,86,19,1,1,1,574
1687,3,1,87,4,1,1,0,709
1688,3,1,88,19,0,0,1,631
1689,3,1,89,31,1,1,1,606
1690,3,1,90,9,1,1,1,811
1691,3,1,91,1,1,1,0,734
1692,3,1,92,19,0,0,0,568
1693,3,1,93,19,0,0,1,561
1694,3,1,94,9,0,0,0,510
1695,3,1,95,31,0,0,1,430
1696,3,1,96,19,1,1,1,647
1697,3,1,97,31,1,1,0,983
1698,3,1,98,1,0,0,1,567
1699,3,1,99,19,1,1,1,515
1700,3,1,100,4,0,0,0,597
1701,3,1,101,1,1,1,0,495
1702,3,1,102,1,0,0,1,625
1703,3,1,103,19,0,0,1,1045
1704,3,1,104,31,0,0,0,630
1705,3,1,105,9,1,1,1,700
1706,3,1,106,19,1,1,0,606
1707,3,1,107,19,1,1,0,584
1708,3,1,108,31,1,1,0,692
1709,3,1,109,9,1,1,0,841
1710,3,1,110,0,1,1,0,756
1711,3,1,111,19,0,0,1,576
1712,3,1,112,4,0,0,0,657
1713,3,1,113,4,0,0,0,662
1714,3,1,114,9,0,0,0,457
1715,3,1,115,9,1,1,0,507
1716,3,1,116,1,1,1,1,449
1717,3,1,117,0,1,1,0,374
1718,3,1,118,31,1,1,1,544
1719,3,1,119,31,0,0,1,721
1720,3,1,120,19,0,0,1,542
1721,3,1,121,0,0,0,1,445
1722,3,1,122,19,0,0,0,577
1723,3,1,123,31,0,0,0,1202
1724,3,1,124,4,0,0,1,706
1725,3,1,125,31,0,0,1,524
1726,3,1,126,0,1,1,0,434
1727,3,1,127,9,1,1,1,508
1728,3,1,128,9,0,0,0,696
1729,3,1,129,31,1,1,1,905
1730,3,1,130,1,1,1,0,605
1731,3,1,131,31,1,1,1,745
1732,3,1,132,31,0,0,0,659
1733,3,1,133,0,0,0,1,757
1734,3,1,134,9,0,0,0,591
1735,3,1,135,0,1,1,1,453
1736,3,1,136,9,0,0,0,698
1737,3,1,137,0,0,0,1,780
1738,3,1,138,4,0,0,0,846
1739,3,1,139,9,0,0,1,1025
1740,3,1,140,19,1,1,1,2641
1741,3,1,141,1,0,0,1,1195
1742,3,1,142,19,0,0,1,4297
1743,3,1,143,31,1,1,1,2885
1744,3,1,144,4,0,0,1,2915
1745,3,1,145,4,0,0,1,3057
1746,3,1,146,19,0,0,1,2161
1747,3,1,147,19,1,1,1,952
1748,3,1,148,4,1,1,1,1173
1749,3,1,149,31,1,1,1,990
1750,3,1,150,9,1,1,1,719
1751,3,1,151,9,0,0,1,976
1752,3,1,152,19,0,0,1,774
1753,3,1,153,31,1,1,1,649
1754,3,1,154,19,0,0,1,507
1755,3,1,155,31,1,1,1,872
1756,3,1,156,4,0,0,1,806
1757,3,1,157,4,0,0,1,521
1758,3,1,158,0,0,0,1,722
1759,3,1,159,4,0,0,1,2112
1760,3,1,160,0,1,1,1,667
1761,3,1,161,19,0,0,0,1130
1762,3,1,162,19,0,0,1,2710
1763,3,1,163,31,0,0,1,612
1764,3,1,164,4,0,0,1,671
1765,3,1,165,4,1,1,1,1149
1766,3,1,166,31,0,0,1,525
1767,3,1,167,9,1,1,1,506
1768,3,1,168,19,1,1,1,943
1769,3,1,169,19,1,1,1,519
1770,3,1,170,9,1,1,1,508
1771,3,1,171,31,0,0,1,1964
1772,3,1,172,4,0,0,1,1875
1773,3,1,173,1,0,0,1,567
1774,3,1,174,1,0,0,1,541
1775,3,1,175,9,1,1,1,656
1776,3,1,176,31,1,1,1,792
1777,3,1,177,4,0,0,1,1596
1778,3,1,178,9,0,0,1,560
1779,3,1,179,31,1,1,1,1391
1780,3,1,180,9,0,0,1,1072
1781,3,1,181,19,1,1,1,693
1782,3,1,182,19,1,1,1,637
1783,3,1,183,19,1,1,1,544
1784,3,1,184,4,0,0,1,662
1785,3,1,185,19,1,1,1,707
1786,3,1,186,4,1,1,1,642
1787,3,1,187,4,0,0,1,537
1788,3,1,188,31,1,1,1,607
1789,3,1,189,9,0,0,1,644
1790,3,1,190,4,0,0,0,619
1791,3,1,191,19,0,0,1,911
1792,3,1,192,4,1,1,1,517
1793,3,1,193,1,1,1,1,737
1794,3,1,194,31,1,1,1,759
1795,3,1,195,9,0,0,1,651
1796,3,1,196,19,1,1,1,550
1797,3,1,197,0,0,0,1,595
1798,3,1,198,0,1,1,1,595
1799,3,1,199,4,1,1,1,503
1800,3,1,200,1,1,1,1,616
1801,3,1,201,1,1,1,1,1006
1802,3,1,202,9,1,1,1,615
1803,3,1,203,4,1,1,1,545
1804,3,1,204,1,0,0,1,452
1805,3,1,205,4,0,0,1,553
1806,3,1,206,4,0,0,1,479
1807,3,1,207,1,0,0,1,446
1808,3,1,208,19,0,0,1,440
1809,3,1,209,19,0,0,1,772
1810,3,1,210,19,0,0,1,747
1811,3,1,211,9,0,0,1,967
1812,3,1,212,4,1,1,1,534
1813,3,1,213,1,0,0,1,639
1814,3,1,214,1,1,1,1,544
1815,3,1,215,1,1,1,1,533
1816,3,1,216,9,1,1,1,546
1817,3,1,217,31,0,0,1,1093
1818,3,1,218,31,0,0,1,1713
1819,3,1,219,1,0,0,1,1032
1820,3,1,220,1,0,0,1,1652
1821,3,1,221,31,1,1,1,1065
1822,3,1,222,4,1,1,1,601
1823,3,1,223,31,0,0,1,747
1824,3,1,224,1,1,1,1,842
1825,3,1,225,31,0,0,1,1141
1826,3,1,226,31,0,0,1,625
1827,3,1,227,0,1,1,1,613
1828,3,1,228,0,1,1,1,550
1829,3,1,229,4,0,0,1,648
1830,3,1,230,9,0,0,1,818
1831,3,1,231,0,1,1,1,535
1832,3,1,232,0,0,0,1,1766
1833,3,1,233,1,0,0,1,467
1834,3,1,234,9,0,0,1,737
1835,3,1,235,19,0,0,1,665
1836,3,1,236,19,0,0,1,779
1837,3,1,237,9,0,0,1,853
1838,3,1,238,31,0,0,1,494
1839,3,1,239,4,1,1,1,540
1840,3,1,240,4,1,1,1,464
1841,3,1,241,31,0,0,1,624
1842,3,1,242,19,1,1,1,545
1843,3,1,243,0,0,0,1,904
1844,3,1,244,4,1,1,1,677
1845,3,1,245,1,0,0,1,667
1846,3,1,246,9,0,0,1,1583
1847,3,1,247,9,1,1,1,823
1848,3,1,248,31,1,1,1,865
1849,3,1,249,31,1,1,1,618
1850,3,1,250,1,0,0,1,1227
1851,3,1,251,31,0,0,1,1314
1852,3,1,252,19,1,1,1,780
1853,3,1,253,4,0,0,1,697
1854,3,1,254,4,0,0,1,612
1855,3,1,255,31,0,0,1,686
1856,3,1,256,31,0,0,1,717
1857,3,1,257,4,1,1,1,606
1858,3,1,258,31,1,1,1,569
1859,3,1,259,31,0,0,1,761
1860,3,1,260,1,0,0,1,921
1861,3,1,261,1,0,0,1,644
1862,3,1,262,19,0,0,1,899
1863,3,1,263,1,1,1,1,585
1864,3,1,264,31,0,0,1,931
1865,3,1,265,1,1,1,1,527
1866,3,1,266,9,0,0,1,971
1867,3,1,267,31,0,0,1,1176
1868,3,1,268,9,0,0,1,533
1869,3,1,269,9,1,1,1,544
1870,3,1,270,9,1,1,1,503
1871,3,1,271,1,0,0,1,494
1872,3,1,272,4,1,1,1,451
1873,3,1,273,9,0,0,1,836
1874,3,1,274,19,0,0,1,958
1875,3,1,275,19,1,1,1,728
1876,3,1,276,9,0,0,1,675
1877,3,1,277,31,0,0,1,536
1878,3,1,278,4,1,1,1,415
1879,3,1,279,1,1,1,1,476
1880,3,1,280,9,1,1,1,860
1881,3,1,281,19,1,1,1,471
1882,3,1,282,9,0,0,1,890
1883,3,1,283,4,1,1,1,657
1884,3,1,284,31,1,1,1,699
1885,3,1,285,19,0,0,1,407
1886,3,1,286,4,1,1,1,693
1887,3,1,287,19,1,1,1,874
1888,3,1,288,31,0,0,1,740
1889,3,1,289,1,1,1,1,1194
1890,3,1,290,31,0,0,1,918
1891,3,1,291,4,0,0,1,862
1892,3,1,292,19,1,1,1,615
1893,3,1,293,1,1,1,1,798
1894,3,1,294,9,1,1,1,810
1895,3,1,295,1,1,1,1,547
1896,3,1,296,4,0,0,1,895
1897,3,1,297,19,1,1,1,614
1898,3,1,298,4,0,0,1,975
1899,3,1,299,31,0,0,1,678
1900,3,1,300,1,0,0,1,983
1901,3,1,301,4,0,0,1,681
1902,3,1,302,0,0,0,1,605
1903,3,1,303,0,1,1,1,579
1904,3,1,304,19,0,0,1,700
1905,3,1,305,9,1,1,1,557
1906,3,1,306,1,0,0,1,597
1907,3,1,307,19,0,0,1,834
1908,3,1,308,4,1,1,1,572
1909,3,1,309,9,0,0,1,927
1910,3,1,310,9,1,1,1,648
1911,3,1,311,0,0,0,1,592
1912,3,1,312,4,0,0,1,880
1913,3,1,313,1,0,0,1,785
1914,3,1,314,9,1,1,1,645
1915,3,1,315,19,1,1,1,542
1916,3,1,316,31,1,1,1,733
1917,3,1,317,31,0,0,1,725
1918,3,1,318,1,1,1,1,490
1919,3,1,319,9,0,0,1,627
1920,3,1,320,9,0,0,1,681
1921,3,1,321,4,0,0,1,648
1922,3,1,322,31,1,1,1,542
1923,3,1,323,4,0,0,1,683
1924,3,1,324,31,1,1,1,669
1925,3,1,325,4,0,0,1,699
1926,3,1,326,1,1,1,1,520
1927,3,1,327,9,0,0,1,550
1928,3,1,328,1,1,1,1,514
1929,3,1,329,4,0,0,1,905
1930,3,1,330,19,1,1,1,737
1931,3,1,331,31,0,0,1,512
1932,3,1,332,4,1,1,1,693
1933,3,1,333,9,0,0,1,777
1934,3,1,334,31,0,0,1,829
1935,3,1,335,4,1,1,1,678
1936,3,1,336,0,0,0,1,593
1937,3,1,337,9,0,0,1,608
1938,3,1,338,1,0,0,1,1018
1939,3,1,339,31,1,1,1,674
1940,3,1,340,1,1,1,1,766
1941,3,1,341,31,1,1,1,771
1942,3,1,342,9,0,0,1,840
1943,3,1,343,4,1,1,1,694
1944,3,1,344,1,0,0,1,599
1945,3,1,345,31,1,1,1,1026
1946,3,1,346,19,0,0,1,1312
1947,3,1,347,1,0,0,1,1249
1948,3,1,348,19,1,1,1,571
1949,3,1,349,1,1,1,1,866
1950,3,1,350,4,0,0,1,647
1951,3,1,351,19,1,1,1,662
1952,3,1,352,19,0,0,1,574
1953,3,1,353,9,0,0,1,959
1954,3,1,354,9,1,1,1,1025
1955,3,1,355,4,0,0,1,696
1956,3,1,356,1,0,0,1,814
1957,3,1,357,1,0,0,1,616
1958,3,1,358,0,1,1,1,648
1959,3,1,359,9,0,0,1,789
1960,3,1,360,9,1,1,1,879
1961,3,1,361,19,0,0,1,922
1962,3,1,362,19,1,1,1,710
1963,3,1,363,1,0,0,1,817
1964,3,1,364,31,0,0,1,768
1965,3,1,365,9,0,0,1,796
1966,3,1,366,4,0,0,1,698
1967,3,1,367,1,0,0,1,477
1968,3,1,368,0,0,0,1,516
1969,3,1,369,0,0,0,1,488
1970,3,1,370,9,0,0,1,538
1971,3,1,371,1,0,0,1,417
1972,3,1,372,19,0,0,1,863
1973,3,1,373,1,0,0,1,637
1974,3,1,374,31,1,1,1,748
1975,3,1,375,31,1,1,1,487
1976,3,1,376,1,0,0,1,633
1977,3,1,377,4,1,1,1,500
1978,3,1,378,4,1,1,1,461
1979,3,1,379,19,1,1,1,751
1980,3,1,380,19,0,0,1,1178
1981,3,1,381,19,1,1,1,1488
1982,3,1,382,9,0,0,1,1223
1983,3,1,383,0,0,0,1,706
1984,3,1,384,1,1,1,1,1341
1985,3,1,385,9,0,0,1,1321
1986,3,1,386,31,0,0,1,684
1987,3,1,387,0,0,0,1,614
1988,3,1,388,31,0,0,1,697
1989,3,1,389,19,0,0,1,1400
1990,3,1,390,4,1,1,1,445
1991,3,1,391,0,1,1,1,370
1992,3,1,392,4,0,0,1,788
1993,3,1,393,4,0,0,0,406
1994,3,1,394,1,0,0,1,931
1995,3,1,395,4,1,1,1,659
1996,3,1,396,4,1,1,1,665
1997,3,1,397,4,0,0,1,777
1998,3,1,398,4,0,0,1,628
1999,3,1,399,9,1,1,1,485
2000,3,1,400,19,1,1,1,490
2001,3,1,401,1,0,0,1,524
2002,3,1,402,9,0,0,1,525
2003,3,1,403,9,0,0,1,643
2004,3,1,404,4,0,0,1,729
2005,3,1,405,19,1,1,1,707
2006,3,1,406,1,0,0,1,446
2007,3,1,407,1,0,0,1,499
2008,3,1,408,31,0,0,1,724
2009,3,1,409,31,1,1,1,480
2010,3,1,410,19,1,1,1,617
2011,3,1,411,0,0,0,1,818
2012,3,1,412,31,1,1,1,1046
2013,3,1,413,19,0,0,1,488
2014,3,1,414,1,1,1,1,472
2015,3,1,415,1,1,1,1,551
2016,3,1,416,9,1,1,1,451
2017,3,1,417,31,1,1,1,799
2018,3,1,418,19,1,1,1,792
2019,3,1,419,1,1,1,1,574
2020,3,1,420,31,0,0,1,639
2021,3,1,421,1,1,1,1,557
2022,3,1,422,9,1,1,1,783
2023,3,1,423,19,0,0,1,585
2024,3,1,424,1,0,0,1,741
2025,3,1,425,9,1,1,1,1132
2026,3,1,426,1,0,0,1,805
2027,3,1,427,4,1,1,1,661
2028,3,1,428,19,0,0,1,629
2029,3,1,429,19,0,0,1,779
2030,3,1,430,9,1,1,1,795
2031,3,1,431,4,1,1,1,561
2032,3,1,432,9,0,0,1,604
2033,3,1,433,0,0,0,1,787
2034,3,1,434,19,1,1,1,711
2035,3,1,435,31,0,0,1,1413
2036,3,1,436,9,1,1,1,761
2037,3,1,437,9,0,0,1,539
2038,3,1,438,9,0,0,1,1168
2039,3,1,439,1,0,0,1,1268
2040,3,1,440,4,0,0,1,911
2041,3,1,441,0,0,0,1,456
2042,3,1,442,19,1,1,1,936
2043,3,1,443,19,1,1,1,734
2044,3,1,444,19,0,0,1,786
2045,3,1,445,1,0,0,1,572
2046,3,1,446,4,1,1,1,598
2047,3,1,447,19,0,0,1,716
2048,3,1,448,4,0,0,1,505
2049,3,1,449,1,0,0,1,734
2050,3,1,450,31,0,0,1,788
2051,3,1,451,4,1,1,1,525
2052,3,1,452,31,0,0,1,811
2053,3,1,453,19,0,0,1,701
2054,3,1,454,1,1,1,1,704
2055,3,1,455,1,0,0,1,827
2056,3,1,456,31,1,1,1,587
2057,3,1,457,9,0,0,1,587
2058,3,1,458,4,0,0,1,595
2059,3,1,459,4,1,1,1,681
2060,3,1,460,9,0,0,1,692
2061,3,1,461,31,0,0,1,572
2062,3,1,462,31,0,0,1,553
2063,3,1,463,31,1,1,1,551
2064,3,1,464,9,0,0,1,574
2065,3,1,465,4,1,1,1,628
2066,3,1,466,0,1,1,1,589
2067,3,1,467,0,0,0,1,551
2068,3,1,468,9,0,0,1,589
2069,3,1,469,31,0,0,1,585
2070,3,1,470,19,0,0,1,491
2071,3,1,471,9,0,0,1,488
2072,3,1,472,9,0,0,1,571
2073,3,1,473,31,0,0,1,614
2074,3,1,474,19,0,0,1,988
2075,3,1,475,19,0,0,1,751
2076,3,1,476,1,1,1,1,672
2077,3,1,477,1,0,0,1,744
2078,3,1,478,4,1,1,1,880
2079,3,1,479,19,0,0,1,608
2080,3,1,480,19,1,1,1,526
2081,3,1,481,1,1,1,1,768
2082,3,1,482,9,1,1,1,1031
2083,3,1,483,19,0,0,1,1342
2084,3,1,484,4,1,1,1,1013
2085,3,1,485,1,0,0,1,573
2086,3,1,486,9,1,1,1,657
2087,3,1,487,19,0,0,1,729
2088,3,1,488,9,0,0,1,790
2089,3,1,489,4,0,0,1,774
2090,3,1,490,4,1,1,1,539
2091,3,1,491,9,0,0,1,951
2092,3,1,492,31,1,1,1,613
2093,3,1,493,19,1,1,1,618
2094,3,1,494,4,0,0,1,651
2095,3,1,495,19,0,0,1,999
2096,3,1,496,31,1,1,1,965
2097,3,1,497,31,0,0,1,994
2098,3,1,498,9,1,1,1,823
2099,3,1,499,31,1,1,1,767
2100,3,1,500,19,0,0,1,874
2101,3,1,501,19,1,1,1,610
2102,3,1,502,4,1,1,1,612
2103,3,1,503,1,1,1,1,514
2104,3,1,504,4,1,1,1,664
2105,3,1,505,4,0,0,1,794
2106,3,1,506,31,1,1,1,809
2107,3,1,507,9,1,1,1,857
2108,3,1,508,31,1,1,1,727
2109,3,1,509,4,0,0,1,493
2110,3,1,510,9,1,1,1,592
2111,3,1,511,4,0,0,1,471
2112,3,1,512,31,1,1,1,505
2113,3,1,513,4,0,0,1,665
2114,3,1,514,4,1,1,1,704
2115,3,1,515,9,0,0,1,583
2116,3,1,516,31,0,0,1,845
2117,3,1,517,4,1,1,1,645
2118,3,1,518,19,1,1,1,632
2119,3,1,519,9,1,1,1,685
2120,3,1,520,9,0,0,1,686
2121,3,1,521,1,0,0,1,602
2122,3,1,522,9,0,0,1,668
2123,3,1,523,1,1,1,1,638
2124,3,1,524,19,1,1,1,589
2125,3,1,525,31,1,1,1,649
2126,3,1,526,31,0,0,1,678
2127,3,1,527,31,0,0,1,787
2128,3,1,528,19,0,0,1,622
2129,3,1,529,1,1,1,1,551
2130,3,1,530,31,1,1,1,782
2131,3,1,531,31,0,0,1,980
2132,3,1,532,9,0,0,1,817
2133,3,1,533,4,0,0,1,781
2134,3,1,534,1,0,0,1,596
2135,3,1,535,1,1,1,1,478
2136,3,1,536,19,0,0,1,688
2137,3,1,537,19,0,0,1,567
2138,3,1,538,1,1,1,1,412
2139,3,1,539,4,1,1,1,589
2140,3,1,540,9,1,1,1,566
2141,3,1,541,4,0,0,1,916
2142,3,1,542,9,1,1,1,538
2143,3,1,543,1,1,1,1,534
2144,3,1,544,31,0,0,1,578
2145,3,1,545,4,1,1,1,475
2146,3,1,546,9,0,0,1,558
2147,3,1,547,9,1,1,1,516
2148,3,1,548,19,1,1,1,1130
2149,3,1,549,31,1,1,1,568
2150,3,1,550,1,0,0,1,735
2151,3,1,551,9,1,1,1,595
2152,3,1,552,31,0,0,1,636
2153,3,1,553,9,0,0,1,673
2154,3,1,554,31,0,0,1,504
2155,3,1,555,4,1,1,1,445
2156,3,1,556,31,0,0,1,554
2157,3,1,557,1,1,1,1,600
2158,3,1,558,31,1,1,1,446
2159,3,1,559,31,1,1,1,813
2160,3,1,560,9,1,1,1,595
2161,3,1,561,9,0,0,1,630
2162,3,1,562,31,1,1,1,652
2163,3,1,563,19,1,1,1,615
2164,3,1,564,1,0,0,1,714
2165,3,1,565,1,0,0,1,564
2166,3,1,566,19,0,0,1,553
2167,3,1,567,9,0,0,1,739
2168,3,1,568,19,0,0,1,1258
2169,3,1,569,4,0,0,1,579
2170,3,1,570,4,1,1,1,636
2171,3,1,571,31,1,1,1,1071
2172,3,1,572,19,0,0,1,746
2173,3,1,573,19,0,0,1,650
2174,3,1,574,0,1,1,1,501
2175,3,1,575,31,1,1,1,716
2176,3,1,576,1,0,0,1,739
2177,3,1,577,4,1,1,1,678
2178,3,1,578,31,0,0,1,941
2179,3,1,579,4,0,0,1,639
2180,3,1,580,4,1,1,1,644
2181,3,1,581,1,0,0,1,797
2182,3,1,582,4,1,1,1,530
2183,3,1,583,1,0,0,1,653
2184,3,1,584,9,0,0,1,730
2185,3,1,585,19,0,0,1,630
2186,3,1,586,9,1,1,1,548
2187,3,1,587,19,0,0,1,609
2188,3,1,588,9,1,1,1,592
2189,3,1,589,31,1,1,1,764
2190,3,1,590,31,0,0,1,595
2191,3,1,591,9,1,1,1,625
2192,3,1,592,0,1,1,1,476
2193,3,1,593,4,1,1,1,554
2194,3,1,594,9,0,0,1,614
2195,3,1,595,1,1,1,1,633
2196,3,1,596,9,0,0,1,977
2197,3,1,597,1,0,0,1,581
2198,3,1,598,19,0,0,1,703
2199,3,1,599,19,1,1,1,587
2200,3,1,600,19,0,0,1,723
2201,3,1,601,19,1,1,1,651
2202,3,1,602,31,0,0,1,932
2203,3,1,603,19,0,0,1,666
2204,3,1,604,1,0,0,1,639
2205,3,1,605,9,1,1,1,622
2206,3,1,606,1,1,1,1,557
2207,3,1,607,31,0,0,1,612
2208,3,1,608,0,1,1,1,1713
2209,3,1,609,4,0,0,1,856
2210,3,1,610,4,1,1,1,586
2211,3,1,611,19,1,1,1,583
2212,3,1,612,9,1,1,1,592
2213,3,1,613,31,0,0,1,881
2214,3,1,614,4,0,0,1,607
2215,3,1,615,1,0,0,1,618
2216,3,1,616,4,1,1,1,602
2217,3,1,617,31,1,1,1,612
2218,3,1,618,1,1,1,1,666
2219,3,1,619,4,0,0,1,683
2220,3,1,620,31,1,1,1,567
2221,3,1,621,0,1,1,1,723
2222,3,1,622,19,1,1,1,611
2223,3,1,623,9,0,0,1,885
2224,3,1,624,4,0,0,1,675
2225,3,1,625,4,1,1,1,566
2226,3,1,626,4,1,1,1,553
2227,3,1,627,1,0,0,1,694
2228,3,1,628,1,1,1,1,569
2229,3,1,629,31,0,0,1,630
2230,3,1,630,4,0,0,1,641
2231,3,1,631,4,1,1,1,1101
2232,3,1,632,4,0,0,1,682
2233,3,1,633,4,0,0,1,809
2234,3,1,634,1,1,1,1,522
2235,3,1,635,9,1,1,1,522
2236,3,1,636,4,0,0,1,546
2237,3,1,637,19,0,0,1,1265
2238,3,1,638,31,0,0,1,631
2239,3,1,639,31,0,0,1,506
2240,3,1,640,31,1,1,1,530
2241,3,1,641,4,1,1,1,497
2242,3,1,642,31,1,1,1,705
2243,3,1,643,4,1,1,1,605
2244,3,1,644,9,1,1,1,448
2245,3,1,645,1,0,0,1,840
2246,3,1,646,19,0,0,1,617
2247,3,1,647,9,1,1,1,535
2248,3,1,648,31,1,1,1,759
2249,3,1,649,4,1,1,1,699
2250,3,1,650,19,1,1,1,780
2251,3,1,651,0,0,0,1,643
2252,3,1,652,4,1,1,1,527
2253,3,1,653,1,1,1,1,506
2254,3,1,654,31,1,1,1,663
2255,3,1,655,31,0,0,1,870
2256,3,1,656,4,0,0,1,593
2257,3,1,657,31,1,1,1,619
2258,3,1,658,1,1,1,1,461
2259,3,1,659,19,1,1,1,457
2260,3,1,660,1,1,1,1,426
2261,3,1,661,1,1,1,1,460
2262,3,1,662,19,1,1,1,627
2263,3,1,663,19,0,0,1,657
2264,3,1,664,19,1,1,1,931
2265,3,1,665,1,1,1,1,503
2266,3,1,666,4,1,1,1,468
2267,3,1,667,9,1,1,1,473
2268,3,1,668,1,1,1,1,548
2269,3,1,669,0,0,0,1,542
2270,3,1,670,19,1,1,1,683
2271,3,1,671,31,1,1,1,612
2272,3,1,672,9,1,1,1,489
2273,3,1,673,19,1,1,1,533
2274,3,1,674,1,0,0,1,925
2275,3,1,675,31,0,0,1,575
2276,3,1,676,19,0,0,1,767
2277,3,1,677,19,1,1,1,542
2278,3,1,678,4,1,1,1,620
2279,3,1,679,1,1,1,1,580
2280,3,1,680,4,1,1,1,949
2281,3,1,681,19,1,1,1,543
2282,3,1,682,9,1,1,1,501
2283,3,1,683,4,0,0,1,679
2284,3,1,684,1,0,0,1,643
2285,3,1,685,9,0,0,1,1957
2286,3,1,686,19,1,1,1,1430
2287,3,1,687,19,1,1,1,587
2288,3,1,688,9,1,1,1,538
2289,3,1,689,9,1,1,1,608
2290,3,1,690,0,1,1,1,556
2291,3,1,691,31,0,0,1,1162
2292,3,1,692,1,1,1,1,951
2293,3,1,693,19,1,1,1,843
2294,3,1,694,19,1,1,1,661
2295,3,1,695,4,1,1,1,415
2296,3,1,696,19,0,0,1,704
2297,3,1,697,4,0,0,1,555
2298,3,1,698,1,0,0,1,560
2299,3,1,699,4,0,0,1,592
2300,3,1,700,1,0,0,1,505
2301,3,1,701,9,0,0,1,735
2302,3,1,702,9,1,1,1,503
2303,3,1,703,9,1,1,1,833
2304,3,1,704,31,1,1,1,667
2305,3,1,705,0,0,0,1,508
2306,3,1,706,9,1,1,1,919
2307,3,1,707,1,1,1,1,541
2308,3,1,708,31,1,1,1,629
2309,3,1,709,1,0,0,1,621
2310,3,1,710,0,0,0,1,629
2311,3,1,711,9,0,0,1,661
2312,3,1,712,9,0,0,1,799
2313,3,1,713,1,1,1,1,646
2314,3,1,714,31,1,1,1,1070
2315,3,1,715,19,0,0,1,760
2316,3,1,716,1,0,0,1,713
2317,3,1,717,31,1,1,1,759
2318,3,1,718,1,1,1,1,817
2319,3,1,719,0,1,1,1,704
2320,3,1,720,19,1,1,1,614
2321,3,1,721,31,1,1,1,417
2322,3,1,722,1,0,0,1,836
2323,3,1,723,1,1,1,1,612
2324,3,1,724,4,1,1,1,958
2325,3,1,725,1,1,1,1,661
2326,3,1,726,9,0,0,1,538
2327,3,1,727,9,1,1,1,519
2328,3,1,728,1,1,1,1,468
2329,3,1,729,31,0,0,1,504
2330,3,1,730,4,1,1,1,505
2331,3,1,731,4,0,0,1,703
2332,3,1,732,4,1,1,1,611
2333,3,1,733,31,1,1,1,579
2334,3,1,734,0,1,1,1,442
2335,3,1,735,4,0,0,1,558
2336,3,1,736,4,1,1,1,809
2337,3,1,737,31,0,0,1,903
2338,3,1,738,19,1,1,1,1517
2339,3,1,739,19,1,1,1,690
2340,3,1,740,9,1,1,1,557
2341,3,1,741,4,1,1,1,428
2342,3,1,742,4,0,0,1,700
2343,3,1,743,1,1,1,1,360
2344,3,1,744,0,1,1,1,489
2345,3,1,745,4,0,0,1,626
2346,3,1,746,9,1,1,1,519
2347,3,1,747,1,1,1,1,622
2348,3,1,748,19,1,1,1,577
2349,3,1,749,9,0,0,1,648
2350,3,1,750,19,1,1,1,519
2351,3,1,751,1,0,0,0,371
2352,3,1,752,19,1,1,1,969
2353,3,1,753,19,0,0,1,520
2354,3,1,754,1,1,1,1,603
2355,3,1,755,9,1,1,1,597
2356,3,1,756,9,1,1,1,572
2357,3,1,757,1,0,0,1,754
2358,3,1,758,0,0,0,1,610
2359,3,1,759,19,0,0,1,588
2360,3,1,760,1,0,0,1,543
2361,3,1,761,19,1,1,1,741
2362,3,1,762,19,1,1,1,572
2363,3,1,763,0,1,1,1,462
2364,3,1,764,4,1,1,1,680
2365,3,1,765,9,1,1,1,543
2366,3,1,766,1,1,1,1,409
2367,3,1,767,9,1,1,1,482
2368,3,1,768,1,1,1,1,519
2369,3,1,769,1,1,1,1,419
2370,3,1,770,9,1,1,1,412
2371,3,1,771,19,0,0,1,555
2372,3,1,772,19,0,0,1,673
2373,3,1,773,9,1,1,1,516
2374,3,1,774,19,1,1,1,1034
2375,3,1,775,31,0,0,1,629
2376,3,1,776,1,1,1,1,527
2377,3,1,777,19,1,1,1,627
2378,3,1,778,9,1,1,1,588
2379,3,1,779,31,0,0,1,592
2380,3,1,780,0,0,0,1,458
2381,3,1,781,1,1,1,1,539
2382,3,1,782,1,1,1,1,600
2383,3,1,783,19,1,1,1,533
2384,3,1,784,9,1,1,1,586
2385,3,1,785,1,1,1,1,492
2386,3,1,786,0,1,1,1,555
2387,3,1,787,1,1,1,1,926
2388,3,1,788,9,1,1,1,566
2389,3,1,789,0,1,1,1,403
2390,3,1,790,9,0,0,0,496
2391,3,1,791,4,0,0,1,671
2392,3,1,792,31,1,1,1,563
2393,3,1,793,1,1,1,1,587
2394,3,1,794,4,0,0,1,499
2395,3,1,795,1,1,1,1,496
2396,3,1,796,31,1,1,1,783
2397,3,1,797,19,0,0,1,687
2398,3,1,798,31,0,0,1,655
2399,3,1,799,31,1,1,1,709
2400,3,1,800,31,0,0,1,1538
2401,4,1,1,19,1,1,1,1652
2402,4,1,2,19,0,0,1,691
2403,4,1,3,1,0,0,1,670
2404,4,1,4,31,0,0,1,837
2405,4,1,5,31,1,1,1,1033
2406,4,1,6,9,0,0,1,652
2407,4,1,7,9,1,1,1,492
2408,4,1,8,31,1,1,1,467
2409,4,1,9,19,0,0,1,458
2410,4,1,10,31,1,1,1,502
2411,4,1,11,4,0,0,1,354
2412,4,1,12,9,1,1,1,819
2413,4,1,13,9,1,1,1,1010
2414,4,1,14,31,1,1,1,463
2415,4,1,15,19,0,0,1,1037
2416,4,1,16,1,0,0,1,653
2417,4,1,17,4,1,1,1,567
2418,4,1,18,19,0,0,1,567
2419,4,1,19,4,0,0,1,486
2420,4,1,20,1,1,1,1,422
2421,4,1,21,9,0,0,1,518
2422,4,1,22,19,0,0,1,418
2423,4,1,23,19,1,1,1,554
2424,4,1,24,1,1,1,1,564
2425,4,1,25,1,0,0,1,665
2426,4,1,26,1,0,0,1,536
2427,4,1,27,4,1,1,1,552
2428,4,1,28,19,0,0,1,490
2429,4,1,29,0,0,0,1,401
2430,4,1,30,4,1,1,1,468
2431,4,1,31,9,1,1,1,520
2432,4,1,32,19,1,1,1,973
2433,4,1,33,19,1,1,1,380
2434,4,1,34,1,0,0,1,370
2435,4,1,35,1,1,1,1,595
2436,4,1,36,1,0,0,1,339
2437,4,1,37,19,0,0,1,569
2438,4,1,38,31,1,1,1,480
2439,4,1,39,19,0,0,0,550
2440,4,1,40,4,1,1,1,452
2441,4,1,41,31,0,0,1,853
2442,4,1,42,4,0,0,1,597
2443,4,1,43,31,0,0,0,456
2444,4,1,44,31,0,0,1,727
2445,4,1,45,19,0,0,1,441
2446,4,1,46,1,0,0,1,597
2447,4,1,47,4,1,1,1,696
2448,4,1,48,4,1,1,1,1975
2449,4,1,49,19,0,0,1,655
2450,4,1,50,31,1,1,1,725
2451,4,1,51,1,0,0,1,523
2452,4,1,52,31,0,0,1,460
2453,4,1,53,4,1,1,1,586
2454,4,1,54,31,1,1,1,551
2455,4,1,55,0,1,1,1,356
2456,4,1,56,19,1,1,1,602
2457,4,1,57,19,1,1,1,503
2458,4,1,58,4,1,1,1,482
2459,4,1,59,1,1,1,1,285
2460,4,1,60,1,1,1,1,439
2461,4,1,61,19,1,1,1,566
2462,4,1,62,4,1,1,1,879
2463,4,1,63,1,0,0,0,358
2464,4,1,64,31,0,0,1,566
2465,4,1,65,0,1,1,1,517
2466,4,1,66,9,1,1,1,700
2467,4,1,67,9,1,1,1,794
2468,4,1,68,9,0,0,1,464
2469,4,1,69,19,0,0,1,823
2470,4,1,70,0,0,0,1,616
2471,4,1,71,31,1,1,1,484
2472,4,1,72,4,1,1,1,842
2473,4,1,73,31,0,0,1,583
2474,4,1,74,4,0,0,1,592
2475,4,1,75,19,0,0,1,524
2476,4,1,76,9,0,0,1,573
2477,4,1,77,9,0,0,1,539
2478,4,1,78,19,0,0,1,559
2479,4,1,79,1,0,0,1,574
2480,4,1,80,31,1,1,1,500
2481,4,1,81,0,0,0,1,394
2482,4,1,82,19,0,0,1,482
2483,4,1,83,4,0,0,1,425
2484,4,1,84,0,0,0,1,366
2485,4,1,85,19,1,1,0,386
2486,4,1,86,9,1,1,1,770
2487,4,1,87,19,0,0,1,483
2488,4,1,88,1,0,0,1,659
2489,4,1,89,4,1,1,1,585
2490,4,1,90,19,1,1,1,630
2491,4,1,91,9,0,0,1,602
2492,4,1,92,9,0,0,1,855
2493,4,1,93,1,0,0,1,532
2494,4,1,94,0,1,1,1,601
2495,4,1,95,9,1,1,1,688
2496,4,1,96,4,1,1,1,577
2497,4,1,97,1,1,1,1,509
2498,4,1,98,1,1,1,1,686
2499,4,1,99,1,0,0,1,549
2500,4,1,100,4,0,0,1,730
2501,4,1,101,4,1,1,1,672
2502,4,1,102,1,1,1,1,839
2503,4,1,103,0,0,0,1,457
2504,4,1,104,0,0,0,1,526
2505,4,1,105,31,0,0,1,619
2506,4,1,106,4,0,0,1,400
2507,4,1,107,1,0,0,1,391
2508,4,1,108,31,0,0,1,910
2509,4,1,109,4,1,1,1,829
2510,4,1,110,9,1,1,1,629
2511,4,1,111,1,0,0,1,787
2512,4,1,112,19,0,0,1,500
2513,4,1,113,1,0,0,1,596
2514,4,1,114,19,1,1,1,611
2515,4,1,115,19,1,1,1,481
2516,4,1,116,4,0,0,1,556
2517,4,1,117,1,1,1,0,630
2518,4,1,118,4,0,0,1,462
2519,4,1,119,9,0,0,1,501
2520,4,1,120,19,0,0,1,760
2521,4,1,121,31,1,1,1,579
2522,4,1,122,4,0,0,1,491
2523,4,1,123,9,0,0,1,446
2524,4,1,124,31,0,0,1,574
2525,4,1,125,31,0,0,1,439
2526,4,1,126,0,1,1,1,589
2527,4,1,127,0,0,0,1,512
2528,4,1,128,1,1,1,1,665
2529,4,1,129,31,0,0,1,554
2530,4,1,130,4,0,0,1,499
2531,4,1,131,1,1,1,1,579
2532,4,1,132,19,1,1,1,703
2533,4,1,133,9,0,0,1,535
2534,4,1,134,4,0,0,1,575
2535,4,1,135,31,1,1,1,798
2536,4,1,136,9,1,1,1,592
2537,4,1,137,1,0,0,1,673
2538,4,1,138,0,1,1,1,609
2539,4,1,139,0,1,1,1,498
2540,4,1,140,1,0,0,1,394
2541,4,1,141,19,1,1,1,1221
2542,4,1,142,4,1,1,1,698
2543,4,1,143,19,1,1,1,659
2544,4,1,144,31,1,1,1,725
2545,4,1,145,31,1,1,1,774
2546,4,1,146,31,0,0,0,590
2547,4,1,147,9,1,1,1,661
2548,4,1,148,31,0,0,1,652
2549,4,1,149,31,1,1,1,676
2550,4,1,150,4,0,0,1,794
2551,4,1,151,9,1,1,1,765
2552,4,1,152,0,0,0,1,535
2553,4,1,153,1,1,1,1,514
2554,4,1,154,31,0,0,1,517
2555,4,1,155,9,0,0,1,579
2556,4,1,156,19,0,0,1,640
2557,4,1,157,1,0,0,1,484
2558,4,1,158,9,0,0,1,445
2559,4,1,159,31,0,0,1,463
2560,4,1,160,9,0,0,1,413
2561,4,1,161,31,1,1,1,588
2562,4,1,162,19,1,1,1,647
2563,4,1,163,4,1,1,1,730
2564,4,1,164,9,0,0,1,579
2565,4,1,165,19,1,1,1,633
2566,4,1,166,1,1,1,1,476
2567,4,1,167,4,1,1,1,736
2568,4,1,168,4,1,1,1,433
2569,4,1,169,31,1,1,1,568
2570,4,1,170,1,0,0,1,756
2571,4,1,171,31,1,1,1,766
2572,4,1,172,9,1,1,1,653
2573,4,1,173,9,0,0,1,863
2574,4,1,174,31,1,1,1,526
2575,4,1,175,4,0,0,1,728
2576,4,1,176,1,0,0,1,440
2577,4,1,177,1,1,1,1,586
2578,4,1,178,1,1,1,1,499
2579,4,1,179,19,1,1,1,572
2580,4,1,180,4,0,0,1,696
2581,4,1,181,9,0,0,1,524
2582,4,1,182,4,0,0,1,650
2583,4,1,183,31,1,1,1,721
2584,4,1,184,1,0,0,1,379
2585,4,1,185,4,0,0,1,522
2586,4,1,186,31,1,1,1,484
2587,4,1,187,9,0,0,1,570
2588,4,1,188,4,0,0,1,536
2589,4,1,189,1,1,1,1,468
2590,4,1,190,4,0,0,1,490
2591,4,1,191,31,0,0,1,500
2592,4,1,192,9,0,0,1,826
2593,4,1,193,4,0,0,1,474
2594,4,1,194,9,1,1,1,475
2595,4,1,195,4,0,0,1,478
2596,4,1,196,19,0,0,1,483
2597,4,1,197,9,0,0,1,436
2598,4,1,198,19,1,1,1,778
2599,4,1,199,1,1,1,1,525
2600,4,1,200,31,0,0,1,537
2601,4,1,201,4,1,1,1,673
2602,4,1,202,19,0,0,1,1077
2603,4,1,203,9,1,1,1,748
2604,4,1,204,1,1,1,1,777
2605,4,1,205,31,0,0,1,644
2606,4,1,206,4,0,0,1,776
2607,4,1,207,19,0,0,1,834
2608,4,1,208,19,0,0,1,871
2609,4,1,209,31,1,1,1,692
2610,4,1,210,31,0,0,1,518
2611,4,1,211,31,1,1,1,559
2612,4,1,212,31,1,1,1,444
2613,4,1,213,19,1,1,1,652
2614,4,1,214,1,0,0,1,541
2615,4,1,215,0,1,1,0,412
2616,4,1,216,31,1,1,1,675
2617,4,1,217,19,1,1,1,927
2618,4,1,218,9,0,0,1,463
2619,4,1,219,4,0,0,1,444
2620,4,1,220,4,1,1,1,491
2621,4,1,221,9,1,1,1,754
2622,4,1,222,4,0,0,0,435
2623,4,1,223,1,1,1,1,912
2624,4,1,224,1,0,0,1,562
2625,4,1,225,1,0,0,1,387
2626,4,1,226,1,0,0,1,970
2627,4,1,227,9,1,1,1,582
2628,4,1,228,0,1,1,1,572
2629,4,1,229,19,1,1,1,612
2630,4,1,230,31,0,0,1,605
2631,4,1,231,9,0,0,1,716
2632,4,1,232,31,0,0,1,978
2633,4,1,233,31,0,0,1,514
2634,4,1,234,1,1,1,1,960
2635,4,1,235,1,1,1,1,1019
2636,4,1,236,19,1,1,1,912
2637,4,1,237,19,1,1,1,940
2638,4,1,238,4,0,0,1,917
2639,4,1,239,1,1,1,1,491
2640,4,1,240,19,0,0,1,573
2641,4,1,241,31,0,0,1,584
2642,4,1,242,19,1,1,0,867
2643,4,1,243,4,0,0,1,851
2644,4,1,244,4,0,0,1,852
2645,4,1,245,19,1,1,1,668
2646,4,1,246,1,0,0,0,493
2647,4,1,247,4,1,1,1,869
2648,4,1,248,0,0,0,1,430
2649,4,1,249,19,0,0,1,590
2650,4,1,250,1,1,1,1,627
2651,4,1,251,9,0,0,1,938
2652,4,1,252,9,0,0,1,518
2653,4,1,253,19,1,1,1,708
2654,4,1,254,19,0,0,1,533
2655,4,1,255,4,1,1,0,406
2656,4,1,256,1,0,0,1,541
2657,4,1,257,31,1,1,1,786
2658,4,1,258,31,1,1,1,717
2659,4,1,259,19,1,1,1,576
2660,4,1,260,1,0,0,1,512
2661,4,1,261,9,0,0,1,531
2662,4,1,262,9,0,0,1,493
2663,4,1,263,0,0,0,1,554
2664,4,1,264,19,1,1,1,611
2665,4,1,265,4,1,1,1,554
2666,4,1,266,9,0,0,1,702
2667,4,1,267,4,0,0,1,1062
2668,4,1,268,4,0,0,1,778
2669,4,1,269,0,1,1,1,426
2670,4,1,270,19,1,1,1,706
2671,4,1,271,19,1,1,1,497
2672,4,1,272,9,0,0,1,466
2673,4,1,273,1,1,1,1,611
2674,4,1,274,9,1,1,1,720
2675,4,1,275,1,1,1,1,645
2676,4,1,276,31,0,0,1,569
2677,4,1,277,0,1,1,1,689
2678,4,1,278,1,0,0,1,592
2679,4,1,279,19,1,1,1,620
2680,4,1,280,4,1,1,1,584
2681,4,1,281,1,1,1,1,686
2682,4,1,282,4,1,1,1,552
2683,4,1,283,31,1,1,1,1248
2684,4,1,284,9,1,1,1,584
2685,4,1,285,1,0,0,1,595
2686,4,1,286,19,0,0,1,491
2687,4,1,287,19,1,1,1,564
2688,4,1,288,9,0,0,1,497
2689,4,1,289,31,0,0,1,620
2690,4,1,290,0,0,0,1,384
2691,4,1,291,4,0,0,1,447
2692,4,1,292,4,0,0,1,492
2693,4,1,293,19,1,1,1,533
2694,4,1,294,19,1,1,1,514
2695,4,1,295,19,0,0,1,441
2696,4,1,296,31,1,1,1,1321
2697,4,1,297,4,0,0,1,439
2698,4,1,298,31,0,0,1,635
2699,4,1,299,9,1,1,1,604
2700,4,1,300,4,0,0,1,397
2701,4,1,301,31,0,0,1,570
2702,4,1,302,4,0,0,1,429
2703,4,1,303,31,0,0,1,470
2704,4,1,304,9,1,1,1,429
2705,4,1,305,0,1,1,1,595
2706,4,1,306,9,0,0,1,491
2707,4,1,307,4,0,0,1,575
2708,4,1,308,9,0,0,1,422
2709,4,1,309,9,1,1,1,477
2710,4,1,310,1,0,0,1,532
2711,4,1,311,19,1,1,1,914
2712,4,1,312,19,0,0,1,475
2713,4,1,313,1,1,1,0,435
2714,4,1,314,9,0,0,1,573
2715,4,1,315,0,0,0,1,471
2716,4,1,316,9,1,1,1,757
2717,4,1,317,1,0,0,1,677
2718,4,1,318,1,0,0,1,538
2719,4,1,319,9,0,0,1,730
2720,4,1,320,31,0,0,1,591
2721,4,1,321,31,0,0,1,549
2722,4,1,322,4,0,0,1,634
2723,4,1,323,9,1,1,1,695
2724,4,1,324,19,0,0,1,498
2725,4,1,325,31,0,0,1,837
2726,4,1,326,31,0,0,1,623
2727,4,1,327,9,1,1,1,487
2728,4,1,328,9,0,0,1,326
2729,4,1,329,9,1,1,1,596
2730,4,1,330,1,1,1,1,739
2731,4,1,331,1,1,1,1,442
2732,4,1,332,31,0,0,1,467
2733,4,1,333,4,1,1,1,659
2734,4,1,334,1,1,1,1,610
2735,4,1,335,9,1,1,1,485
2736,4,1,336,9,1,1,1,520
2737,4,1,337,4,1,1,1,669
2738,4,1,338,9,0,0,1,539
2739,4,1,339,4,1,1,1,496
2740,4,1,340,1,0,0,1,530
2741,4,1,341,1,1,1,1,520
2742,4,1,342,19,0,0,1,419
2743,4,1,343,4,0,0,1,659
2744,4,1,344,0,1,1,1,544
2745,4,1,345,4,1,1,1,454
2746,4,1,346,4,0,0,1,695
2747,4,1,347,4,1,1,1,729
2748,4,1,348,9,1,1,1,520
2749,4,1,349,19,1,1,1,780
2750,4,1,350,31,0,0,1,674
2751,4,1,351,9,0,0,1,535
2752,4,1,352,19,1,1,1,440
2753,4,1,353,0,0,0,1,327
2754,4,1,354,9,1,1,1,353
2755,4,1,355,1,1,1,1,554
2756,4,1,356,19,0,0,1,1187
2757,4,1,357,19,1,1,1,555
2758,4,1,358,4,0,0,1,457
2759,4,1,359,19,0,0,1,532
2760,4,1,360,9,0,0,1,454
2761,4,1,361,4,1,1,1,433
2762,4,1,362,31,1,1,1,511
2763,4,1,363,1,0,0,1,424
2764,4,1,364,4,0,0,1,565
2765,4,1,365,1,0,0,1,401
2766,4,1,366,31,1,1,1,383
2767,4,1,367,0,0,0,1,321
2768,4,1,368,1,0,0,0,527
2769,4,1,369,19,1,1,1,554
2770,4,1,370,4,1,1,1,736
2771,4,1,371,19,0,0,1,661
2772,4,1,372,4,1,1,1,579
2773,4,1,373,31,1,1,1,537
2774,4,1,374,19,0,0,1,1064
2775,4,1,375,31,1,1,1,687
2776,4,1,376,19,0,0,1,477
2777,4,1,377,0,0,0,1,561
2778,4,1,378,31,1,1,1,513
2779,4,1,379,31,1,1,1,576
2780,4,1,380,31,1,1,1,506
2781,4,1,381,31,0,0,1,652
2782,4,1,382,1,1,1,1,548
2783,4,1,383,0,0,0,1,521
2784,4,1,384,19,0,0,1,560
2785,4,1,385,1,0,0,1,414
2786,4,1,386,19,1,1,1,956
2787,4,1,387,4,1,1,1,742
2788,4,1,388,4,1,1,1,651
2789,4,1,389,9,0,0,1,481
2790,4,1,390,31,0,0,1,618
2791,4,1,391,9,0,0,1,499
2792,4,1,392,4,0,0,1,561
2793,4,1,393,9,0,0,1,461
2794,4,1,394,9,0,0,1,554
2795,4,1,395,1,1,1,1,731
2796,4,1,396,1,1,1,1,586
2797,4,1,397,1,1,1,1,588
2798,4,1,398,9,0,0,1,586
2799,4,1,399,1,1,1,1,518
2800,4,1,400,1,1,1,1,366
2801,4,1,401,9,0,0,1,613
2802,4,1,402,9,0,0,1,702
2803,4,1,403,19,0,0,1,705
2804,4,1,404,0,1,1,1,626
2805,4,1,405,19,1,1,0,536
2806,4,1,406,31,0,0,1,526
2807,4,1,407,4,1,1,1,653
2808,4,1,408,9,0,0,1,460
2809,4,1,409,4,1,1,1,592
2810,4,1,410,1,1,1,1,388
2811,4,1,411,1,1,1,1,425
2812,4,1,412,19,0,0,1,787
2813,4,1,413,9,0,0,1,383
2814,4,1,414,1,1,1,1,440
2815,4,1,415,19,1,1,1,447
2816,4,1,416,31,0,0,1,519
2817,4,1,417,0,1,1,1,406
2818,4,1,418,4,1,1,0,548
2819,4,1,419,31,0,0,1,536
2820,4,1,420,31,1,1,1,823
2821,4,1,421,1,0,0,1,406
2822,4,1,422,31,1,1,1,1201
2823,4,1,423,9,1,1,1,701
2824,4,1,424,4,0,0,1,463
2825,4,1,425,19,1,1,1,491
2826,4,1,426,4,0,0,1,387
2827,4,1,427,9,0,0,1,408
2828,4,1,428,1,0,0,1,351
2829,4,1,429,1,0,0,1,392
2830,4,1,430,9,0,0,1,443
2831,4,1,431,9,0,0,1,566
2832,4,1,432,31,1,1,1,610
2833,4,1,433,0,0,0,1,407
2834,4,1,434,0,1,1,1,567
2835,4,1,435,9,1,1,1,561
2836,4,1,436,1,0,0,1,494
2837,4,1,437,31,1,1,1,555
2838,4,1,438,19,1,1,1,527
2839,4,1,439,4,0,0,1,814
2840,4,1,440,1,0,0,1,568
2841,4,1,441,19,0,0,1,833
2842,4,1,442,1,0,0,0,385
2843,4,1,443,1,0,0,1,630
2844,4,1,444,9,0,0,1,572
2845,4,1,445,31,0,0,1,848
2846,4,1,446,31,0,0,1,662
2847,4,1,447,4,1,1,1,524
2848,4,1,448,31,0,0,1,542
2849,4,1,449,0,1,1,1,650
2850,4,1,450,19,1,1,1,536
2851,4,1,451,4,1,1,1,676
2852,4,1,452,0,0,0,1,361
2853,4,1,453,4,0,0,1,498
2854,4,1,454,9,0,0,1,478
2855,4,1,455,4,0,0,1,543
2856,4,1,456,1,1,1,1,454
2857,4,1,457,31,0,0,1,613
2858,4,1,458,31,1,1,1,617
2859,4,1,459,1,1,1,1,401
2860,4,1,460,4,0,0,1,428
2861,4,1,461,31,1,1,1,577
2862,4,1,462,19,1,1,1,1017
2863,4,1,463,9,0,0,1,723
2864,4,1,464,1,0,0,1,486
2865,4,1,465,31,1,1,1,382
2866,4,1,466,19,1,1,1,547
2867,4,1,467,19,1,1,1,481
2868,4,1,468,4,1,1,1,997
2869,4,1,469,9,1,1,1,690
2870,4,1,470,31,1,1,1,558
2871,4,1,471,19,1,1,1,826
2872,4,1,472,1,1,1,1,802
2873,4,1,473,4,0,0,1,600
2874,4,1,474,4,1,1,1,495
2875,4,1,475,31,0,0,1,588
2876,4,1,476,19,0,0,1,692
2877,4,1,477,19,1,1,1,590
2878,4,1,478,0,1,1,1,519
2879,4,1,479,0,0,0,1,382
2880,4,1,480,9,1,1,1,448
2881,4,1,481,9,1,1,1,724
2882,4,1,482,19,0,0,1,608
2883,4,1,483,1,1,1,1,1135
2884,4,1,484,1,1,1,1,413
2885,4,1,485,1,0,0,1,738
2886,4,1,486,31,0,0,1,531
2887,4,1,487,9,1,1,1,697
2888,4,1,488,31,1,1,1,702
2889,4,1,489,4,1,1,1,493
2890,4,1,490,19,0,0,1,891
2891,4,1,491,9,0,0,1,553
2892,4,1,492,19,1,1,1,647
2893,4,1,493,4,1,1,1,424
2894,4,1,494,19,0,0,1,493
2895,4,1,495,4,1,1,1,500
2896,4,1,496,9,1,1,1,451
2897,4,1,497,4,1,1,1,635
2898,4,1,498,4,1,1,1,353
2899,4,1,499,1,0,0,1,396
2900,4,1,500,31,0,0,1,581
2901,4,1,501,31,1,1,1,515
2902,4,1,502,31,0,0,1,557
2903,4,1,503,9,1,1,1,465
2904,4,1,504,1,1,1,1,675
2905,4,1,505,4,1,1,1,554
2906,4,1,506,9,0,0,1,588
2907,4,1,507,1,0,0,1,575
2908,4,1,508,9,1,1,1,669
2909,4,1,509,9,1,1,1,649
2910,4,1,510,19,1,1,1,529
2911,4,1,511,9,1,1,1,520
2912,4,1,512,9,1,1,1,499
2913,4,1,513,19,0,0,1,483
2914,4,1,514,0,1,1,1,632
2915,4,1,515,4,1,1,1,469
2916,4,1,516,31,0,0,0,464
2917,4,1,517,19,0,0,1,550
2918,4,1,518,31,0,0,1,526
2919,4,1,519,31,0,0,1,543
2920,4,1,520,19,1,1,1,718
2921,4,1,521,1,1,1,1,424
2922,4,1,522,0,1,1,1,574
2923,4,1,523,31,1,1,1,542
2924,4,1,524,19,0,0,1,498
2925,4,1,525,4,0,0,0,384
2926,4,1,526,1,0,0,1,495
2927,4,1,527,31,0,0,1,547
2928,4,1,528,4,1,1,1,499
2929,4,1,529,31,1,1,1,668
2930,4,1,530,31,0,0,1,506
2931,4,1,531,4,1,1,1,554
2932,4,1,532,9,1,1,1,485
2933,4,1,533,4,0,0,1,632
2934,4,1,534,0,1,1,1,615
2935,4,1,535,9,1,1,1,776
2936,4,1,536,31,0,0,1,571
2937,4,1,537,19,1,1,1,738
2938,4,1,538,9,1,1,1,546
2939,4,1,539,31,1,1,1,515
2940,4,1,540,1,1,1,1,590
2941,4,1,541,4,0,0,1,533
2942,4,1,542,9,1,1,1,427
2943,4,1,543,19,0,0,1,555
2944,4,1,544,19,0,0,1,830
2945,4,1,545,1,1,1,1,408
2946,4,1,546,9,1,1,1,803
2947,4,1,547,31,0,0,1,504
2948,4,1,548,4,0,0,1,465
2949,4,1,549,19,0,0,1,476
2950,4,1,550,9,1,1,1,442
2951,4,1,551,1,0,0,1,601
2952,4,1,552,19,1,1,0,422
2953,4,1,553,31,1,1,1,580
2954,4,1,554,31,0,0,1,530
2955,4,1,555,31,1,1,1,535
2956,4,1,556,19,0,0,1,492
2957,4,1,557,19,0,0,1,909
2958,4,1,558,19,1,1,1,631
2959,4,1,559,9,0,0,1,503
2960,4,1,560,9,1,1,1,894
2961,4,1,561,31,1,1,1,750
2962,4,1,562,1,1,1,1,878
2963,4,1,563,19,0,0,1,679
2964,4,1,564,4,0,0,1,820
2965,4,1,565,19,0,0,1,622
2966,4,1,566,31,1,1,1,684
2967,4,1,567,31,1,1,1,1212
2968,4,1,568,1,0,0,1,563
2969,4,1,569,31,0,0,1,570
2970,4,1,570,9,0,0,1,942
2971,4,1,571,4,0,0,1,570
2972,4,1,572,9,1,1,1,425
2973,4,1,573,1,1,1,1,656
2974,4,1,574,31,1,1,1,729
2975,4,1,575,9,0,0,1,502
2976,4,1,576,9,1,1,1,730
2977,4,1,577,31,0,0,1,685
2978,4,1,578,1,1,1,1,411
2979,4,1,579,1,1,1,1,457
2980,4,1,580,19,0,0,1,431
2981,4,1,581,31,1,1,1,536
2982,4,1,582,4,0,0,1,469
2983,4,1,583,1,1,1,1,378
2984,4,1,584,1,1,1,0,446
2985,4,1,585,9,1,1,1,681
2986,4,1,586,31,1,1,1,547
2987,4,1,587,4,1,1,1,476
2988,4,1,588,31,1,1,1,590
2989,4,1,589,4,1,1,1,553
2990,4,1,590,4,1,1,1,451
2991,4,1,591,9,0,0,1,508
2992,4,1,592,31,1,1,1,801
2993,4,1,593,31,1,1,1,564
2994,4,1,594,19,0,0,1,521
2995,4,1,595,9,0,0,1,394
2996,4,1,596,19,0,0,1,447
2997,4,1,597,31,1,1,1,748
2998,4,1,598,31,1,1,1,719
2999,4,1,599,4,0,0,1,352
3000,4,1,600,9,1,1,1,529
3001,4,1,601,0,0,0,1,1097
3002,4,1,602,31,0,0,1,592
3003,4,1,603,0,0,0,1,551
3004,4,1,604,4,1,1,1,605
3005,4,1,605,0,0,0,1,330
3006,4,1,606,1,1,1,1,474
3007,4,1,607,9,0,0,1,429
3008,4,1,608,19,1,1,1,509
3009,4,1,609,1,0,0,1,299
3010,4,1,610,19,1,1,1,689
3011,4,1,611,4,1,1,1,669
3012,4,1,612,19,0,0,1,454
3013,4,1,613,19,1,1,1,531
3014,4,1,614,1,0,0,1,329
3015,4,1,615,31,1,1,1,397
3016,4,1,616,31,0,0,1,442
3017,4,1,617,31,0,0,1,534
3018,4,1,618,0,0,0,0,358
3019,4,1,619,19,0,0,1,413
3020,4,1,620,4,1,1,1,555
3021,4,1,621,1,1,1,1,636
3022,4,1,622,1,0,0,1,409
3023,4,1,623,1,1,1,1,582
3024,4,1,624,19,1,1,1,626
3025,4,1,625,4,0,0,1,387
3026,4,1,626,4,1,1,1,382
3027,4,1,627,1,1,1,1,465
3028,4,1,628,1,1,1,1,401
3029,4,1,629,19,1,1,1,608
3030,4,1,630,1,1,1,1,382
3031,4,1,631,19,0,0,1,606
3032,4,1,632,1,1,1,1,483
3033,4,1,633,31,0,0,1,375
3034,4,1,634,1,1,1,1,413
3035,4,1,635,19,1,1,1,769
3036,4,1,636,9,1,1,1,933
3037,4,1,637,31,0,0,1,672
3038,4,1,638,1,0,0,1,388
3039,4,1,639,9,1,1,0,519
3040,4,1,640,4,0,0,1,593
3041,4,1,641,19,0,0,1,534
3042,4,1,642,0,1,1,1,440
3043,4,1,643,1,0,0,1,448
3044,4,1,644,9,1,1,1,968
3045,4,1,645,19,1,1,1,646
3046,4,1,646,1,1,1,1,438
3047,4,1,647,9,1,1,1,690
3048,4,1,648,9,0,0,1,417
3049,4,1,649,31,1,1,1,544
3050,4,1,650,1,0,0,1,392
3051,4,1,651,1,1,1,1,565
3052,4,1,652,19,0,0,1,584
3053,4,1,653,9,1,1,1,677
3054,4,1,654,9,0,0,1,453
3055,4,1,655,4,1,1,1,461
3056,4,1,656,4,0,0,1,476
3057,4,1,657,1,0,0,1,426
3058,4,1,658,19,1,1,1,546
3059,4,1,659,4,0,0,1,529
3060,4,1,660,31,0,0,1,625
3061,4,1,661,9,1,1,1,487
3062,4,1,662,19,0,0,1,567
3063,4,1,663,4,0,0,0,436
3064,4,1,664,19,0,0,1,517
3065,4,1,665,19,1,1,1,1136
3066,4,1,666,1,0,0,1,545
3067,4,1,667,4,0,0,1,531
3068,4,1,668,1,1,1,1,411
3069,4,1,669,19,1,1,1,617
3070,4,1,670,1,1,1,1,460
3071,4,1,671,1,1,1,1,576
3072,4,1,672,31,1,1,1,620
3073,4,1,673,31,1,1,1,558
3074,4,1,674,9,0,0,1,683
3075,4,1,675,31,1,1,1,528
3076,4,1,676,19,1,1,1,628
3077,4,1,677,9,0,0,1,483
3078,4,1,678,19,0,0,1,560
3079,4,1,679,0,1,1,1,368
3080,4,1,680,0,0,0,1,489
3081,4,1,681,9,0,0,1,733
3082,4,1,682,1,0,0,1,466
3083,4,1,683,9,0,0,1,638
3084,4,1,684,31,1,1,1,596
3085,4,1,685,9,1,1,1,651
3086,4,1,686,4,0,0,1,511
3087,4,1,687,9,0,0,1,490
3088,4,1,688,4,1,1,1,510
3089,4,1,689,1,1,1,1,489
3090,4,1,690,1,0,0,1,553
3091,4,1,691,4,0,0,1,450
3092,4,1,692,31,0,0,1,524
3093,4,1,693,9,1,1,1,647
3094,4,1,694,31,1,1,1,470
3095,4,1,695,4,0,0,1,817
3096,4,1,696,4,1,1,1,745
3097,4,1,697,19,1,1,1,581
3098,4,1,698,0,1,1,1,559
3099,4,1,699,4,0,0,1,766
3100,4,1,700,4,1,1,1,506
3101,4,1,701,31,0,0,1,882
3102,4,1,702,31,0,0,0,492
3103,4,1,703,4,1,1,1,621
3104,4,1,704,19,0,0,1,649
3105,4,1,705,19,0,0,1,581
3106,4,1,706,4,0,0,1,419
3107,4,1,707,9,1,1,1,663
3108,4,1,708,19,0,0,1,560
3109,4,1,709,9,1,1,1,529
3110,4,1,710,1,0,0,1,424
3111,4,1,711,1,0,0,1,416
3112,4,1,712,9,0,0,1,543
3113,4,1,713,1,0,0,1,468
3114,4,1,714,1,0,0,1,609
3115,4,1,715,31,0,0,1,689
3116,4,1,716,31,1,1,1,940
3117,4,1,717,31,0,0,1,582
3118,4,1,718,19,1,1,1,516
3119,4,1,719,19,0,0,1,542
3120,4,1,720,4,1,1,1,822
3121,4,1,721,9,0,0,1,405
3122,4,1,722,1,0,0,1,1025
3123,4,1,723,0,1,1,1,476
3124,4,1,724,4,1,1,1,527
3125,4,1,725,1,1,1,1,436
3126,4,1,726,1,1,1,1,511
3127,4,1,727,1,0,0,1,566
3128,4,1,728,0,0,0,1,367
3129,4,1,729,4,1,1,1,468
3130,4,1,730,1,0,0,1,602
3131,4,1,731,9,0,0,1,449
3132,4,1,732,19,0,0,1,580
3133,4,1,733,1,0,0,1,397
3134,4,1,734,9,1,1,1,609
3135,4,1,735,1,1,1,1,730
3136,4,1,736,9,0,0,1,541
3137,4,1,737,9,0,0,0,379
3138,4,1,738,4,0,0,1,469
3139,4,1,739,31,1,1,0,562
3140,4,1,740,9,1,1,0,411
3141,4,1,741,31,0,0,1,718
3142,4,1,742,1,0,0,1,542
3143,4,1,743,4,1,1,1,859
3144,4,1,744,4,1,1,1,913
3145,4,1,745,4,0,0,1,618
3146,4,1,746,9,1,1,1,755
3147,4,1,747,9,1,1,1,557
3148,4,1,748,31,1,1,1,678
3149,4,1,749,19,0,0,1,498
3150,4,1,750,31,0,0,1,542
3151,4,1,751,4,0,0,1,614
3152,4,1,752,4,1,1,1,601
3153,4,1,753,9,1,1,1,544
3154,4,1,754,31,1,1,1,583
3155,4,1,755,4,1,1,1,542
3156,4,1,756,31,0,0,1,537
3157,4,1,757,4,1,1,1,556
3158,4,1,758,31,0,0,1,641
3159,4,1,759,19,0,0,1,554
3160,4,1,760,4,1,1,1,680
3161,4,1,761,31,0,0,1,570
3162,4,1,762,4,0,0,1,629
3163,4,1,763,19,1,1,0,500
3164,4,1,764,4,1,1,1,539
3165,4,1,765,19,0,0,1,1759
3166,4,1,766,1,0,0,1,458
3167,4,1,767,4,1,1,1,573
3168,4,1,768,4,1,1,1,625
3169,4,1,769,4,0,0,1,627
3170,4,1,770,9,1,1,1,572
3171,4,1,771,31,1,1,1,496
3172,4,1,772,4,0,0,1,517
3173,4,1,773,1,0,0,1,634
3174,4,1,774,31,0,0,1,634
3175,4,1,775,1,1,1,1,606
3176,4,1,776,4,0,0,1,579
3177,4,1,777,1,1,1,1,513
3178,4,1,778,19,1,1,1,671
3179,4,1,779,9,0,0,1,391
3180,4,1,780,19,0,0,1,564
3181,4,1,781,9,1,1,0,496
3182,4,1,782,19,1,1,1,622
3183,4,1,783,9,0,0,1,749
3184,4,1,784,4,0,0,1,654
3185,4,1,785,9,1,1,1,706
3186,4,1,786,19,1,1,1,479
3187,4,1,787,9,1,1,0,895
3188,4,1,788,0,1,1,1,446
3189,4,1,789,19,0,0,1,674
3190,4,1,790,31,1,1,1,990
3191,4,1,791,9,0,0,1,1086
3192,4,1,792,9,1,1,1,1012
3193,4,1,793,31,1,1,1,1016
3194,4,1,794,19,1,1,0,414
3195,4,1,795,9,0,0,1,575
3196,4,1,796,1,0,0,1,1023
3197,4,1,797,9,1,1,1,660
3198,4,1,798,9,1,1,1,1341
3199,4,1,799,19,0,0,1,531
3200,4,1,800,19,1,1,1,878
3201,5,1,1,19,1,1,1,972
3202,5,1,2,4,0,0,1,601
3203,5,1,3,9,0,0,1,542
3204,5,1,4,19,0,0,1,528
3205,5,1,5,1,0,0,1,494
3206,5,1,6,9,1,1,1,584
3207,5,1,7,31,1,1,1,672
3208,5,1,8,1,0,0,1,716
3209,5,1,9,19,1,1,1,482
3210,5,1,10,9,0,0,1,549
3211,5,1,11,19,0,0,1,471
3212,5,1,12,0,1,1,1,636
3213,5,1,13,19,1,1,1,532
3214,5,1,14,31,1,1,1,535
3215,5,1,15,31,1,1,1,506
3216,5,1,16,1,0,0,1,617
3217,5,1,17,31,0,0,1,1762
3218,5,1,18,19,1,1,1,637
3219,5,1,19,19,1,1,1,635
3220,5,1,20,9,1,1,1,604
3221,5,1,21,31,1,1,1,558
3222,5,1,22,1,1,1,1,511
3223,5,1,23,9,1,1,1,538
3224,5,1,24,31,1,1,1,692
3225,5,1,25,1,1,1,1,614
3226,5,1,26,4,1,1,1,649
3227,5,1,27,4,0,0,1,667
3228,5,1,28,31,1,1,1,409
3229,5,1,29,9,0,0,1,466
3230,5,1,30,4,0,0,1,513
3231,5,1,31,31,0,0,1,624
3232,5,1,32,4,1,1,1,751
3233,5,1,33,31,1,1,1,656
3234,5,1,34,31,1,1,1,611
3235,5,1,35,31,0,0,1,549
3236,5,1,36,31,0,0,1,517
3237,5,1,37,31,0,0,1,637
3238,5,1,38,1,1,1,1,706
3239,5,1,39,9,0,0,1,544
3240,5,1,40,0,1,1,1,479
3241,5,1,41,31,1,1,1,745
3242,5,1,42,4,1,1,1,591
3243,5,1,43,19,0,0,1,688
3244,5,1,44,31,1,1,1,599
3245,5,1,45,31,0,0,1,584
3246,5,1,46,9,1,1,1,641
3247,5,1,47,4,1,1,1,598
3248,5,1,48,31,1,1,1,681
3249,5,1,49,4,0,0,1,534
3250,5,1,50,4,0,0,1,554
3251,5,1,51,9,0,0,1,633
3252,5,1,52,1,1,1,1,542
3253,5,1,53,19,1,1,1,536
3254,5,1,54,9,1,1,1,599
3255,5,1,55,31,1,1,1,442
3256,5,1,56,31,0,0,1,555
3257,5,1,57,19,0,0,1,613
3258,5,1,58,31,1,1,1,473
3259,5,1,59,4,1,1,1,452
3260,5,1,60,31,0,0,1,611
3261,5,1,61,19,0,0,1,710
3262,5,1,62,31,0,0,1,643
3263,5,1,63,4,0,0,1,558
3264,5,1,64,31,0,0,1,804
3265,5,1,65,31,1,1,1,535
3266,5,1,66,19,0,0,1,480
3267,5,1,67,31,0,0,1,1306
3268,5,1,68,9,0,0,1,597
3269,5,1,69,31,1,1,1,717
3270,5,1,70,31,0,0,1,533
3271,5,1,71,4,1,1,1,636
3272,5,1,72,1,0,0,1,558
3273,5,1,73,9,0,0,1,483
3274,5,1,74,4,1,1,1,551
3275,5,1,75,4,0,0,1,516
3276,5,1,76,9,1,1,1,673
3277,5,1,77,1,0,0,1,394
3278,5,1,78,19,0,0,1,493
3279,5,1,79,0,0,0,1,488
3280,5,1,80,9,1,1,1,430
3281,5,1,81,9,1,1,1,454
3282,5,1,82,9,1,1,1,518
3283,5,1,83,4,0,0,1,535
3284,5,1,84,0,0,0,1,459
3285,5,1,85,19,0,0,1,557
3286,5,1,86,1,0,0,1,590
3287,5,1,87,31,1,1,1,576
3288,5,1,88,1,0,0,1,542
3289,5,1,89,9,1,1,1,600
3290,5,1,90,4,0,0,1,483
3291,5,1,91,4,1,1,1,620
3292,5,1,92,9,0,0,1,706
3293,5,1,93,0,0,0,1,431
3294,5,1,94,4,1,1,1,541
3295,5,1,95,19,1,1,1,740
3296,5,1,96,4,1,1,1,464
3297,5,1,97,9,0,0,1,650
3298,5,1,98,19,0,0,1,545
3299,5,1,99,1,1,1,1,546
3300,5,1,100,1,1,1,1,512
3301,5,1,101,31,1,1,1,719
3302,5,1,102,19,0,0,1,627
3303,5,1,103,31,1,1,1,643
3304,5,1,104,19,0,0,1,512
3305,5,1,105,4,0,0,1,796
3306,5,1,106,1,1,1,1,438
3307,5,1,107,9,0,0,1,561
3308,5,1,108,1,1,1,1,476
3309,5,1,109,19,1,1,1,459
3310,5,1,110,4,1,1,1,423
3311,5,1,111,9,0,0,1,440
3312,5,1,112,31,1,1,1,623
3313,5,1,113,1,1,1,1,451
3314,5,1,114,4,1,1,1,457
3315,5,1,115,9,1,1,1,426
3316,5,1,116,0,1,1,1,393
3317,5,1,117,4,1,1,1,625
3318,5,1,118,1,1,1,1,686
3319,5,1,119,0,1,1,1,376
3320,5,1,120,1,1,1,1,399
3321,5,1,121,31,1,1,1,491
3322,5,1,122,19,1,1,1,550
3323,5,1,123,9,1,1,1,534
3324,5,1,124,9,0,0,1,617
3325,5,1,125,31,1,1,1,621
3326,5,1,126,19,0,0,1,603
3327,5,1,127,9,1,1,1,517
3328,5,1,128,19,0,0,1,518
3329,5,1,129,0,0,0,1,400
3330,5,1,130,1,0,0,1,485
3331,5,1,131,4,0,0,1,436
3332,5,1,132,19,1,1,1,662
3333,5,1,133,31,0,0,1,504
3334,5,1,134,9,0,0,1,457
3335,5,1,135,9,1,1,1,563
3336,5,1,136,31,0,0,1,540
3337,5,1,137,9,1,1,0,462
3338,5,1,138,19,1,1,1,584
3339,5,1,139,9,0,0,1,746
3340,5,1,140,4,0,0,1,709
3341,5,1,141,1,1,1,0,523
3342,5,1,142,31,0,0,1,761
3343,5,1,143,4,1,1,1,454
3344,5,1,144,19,0,0,1,577
3345,5,1,145,0,0,0,1,501
3346,5,1,146,19,0,0,1,547
3347,5,1,147,1,1,1,1,578
3348,5,1,148,19,0,0,1,542
3349,5,1,149,9,1,1,1,489
3350,5,1,150,31,1,1,1,774
3351,5,1,151,31,0,0,1,575
3352,5,1,152,19,0,0,1,678
3353,5,1,153,1,0,0,1,677
3354,5,1,154,31,0,0,1,687
3355,5,1,155,1,0,0,1,567
3356,5,1,156,4,0,0,1,845
3357,5,1,157,19,1,1,1,476
3358,5,1,158,1,0,0,1,634
3359,5,1,159,9,1,1,1,561
3360,5,1,160,4,0,0,1,510
3361,5,1,161,4,1,1,1,529
3362,5,1,162,1,1,1,1,760
3363,5,1,163,9,0,0,1,508
3364,5,1,164,31,1,1,1,664
3365,5,1,165,4,1,1,1,825
3366,5,1,166,1,1,1,1,665
3367,5,1,167,31,1,1,1,585
3368,5,1,168,1,0,0,1,817
3369,5,1,169,0,1,1,1,631
3370,5,1,170,4,1,1,1,570
3371,5,1,171,19,0,0,1,633
3372,5,1,172,19,1,1,1,562
3373,5,1,173,1,1,1,1,706
3374,5,1,174,4,0,0,1,598
3375,5,1,175,19,0,0,1,776
3376,5,1,176,9,0,0,1,581
3377,5,1,177,9,1,1,1,539
3378,5,1,178,1,1,1,1,597
3379,5,1,179,4,0,0,1,680
3380,5,1,180,4,0,0,1,481
3381,5,1,181,9,1,1,1,733
3382,5,1,182,1,1,1,1,658
3383,5,1,183,1,0,0,1,650
3384,5,1,184,4,1,1,1,501
3385,5,1,185,4,1,1,1,650
3386,5,1,186,4,1,1,1,564
3387,5,1,187,19,1,1,1,606
3388,5,1,188,9,1,1,1,442
3389,5,1,189,4,0,0,0,460
3390,5,1,190,4,0,0,1,610
3391,5,1,191,31,1,1,1,643
3392,5,1,192,31,0,0,1,700
3393,5,1,193,4,1,1,1,585
3394,5,1,194,1,0,0,1,591
3395,5,1,195,1,0,0,1,710
3396,5,1,196,1,0,0,1,678
3397,5,1,197,9,1,1,1,514
3398,5,1,198,19,1,1,1,694
3399,5,1,199,4,0,0,1,543
3400,5,1,200,4,0,0,1,548
3401,5,1,201,19,0,0,1,652
3402,5,1,202,9,1,1,1,509
3403,5,1,203,1,0,0,1,647
3404,5,1,204,31,1,1,1,636
3405,5,1,205,19,1,1,1,575
3406,5,1,206,0,0,0,1,854
3407,5,1,207,1,0,0,1,724
3408,5,1,208,31,0,0,1,733
3409,5,1,209,0,1,1,1,577
3410,5,1,210,19,1,1,1,620
3411,5,1,211,0,1,1,1,475
3412,5,1,212,1,1,1,1,521
3413,5,1,213,9,0,0,1,704
3414,5,1,214,31,1,1,1,588
3415,5,1,215,9,0,0,1,489
3416,5,1,216,31,1,1,1,827
3417,5,1,217,4,1,1,1,611
3418,5,1,218,1,1,1,1,531
3419,5,1,219,9,0,0,1,650
3420,5,1,220,9,0,0,1,627
3421,5,1,221,4,1,1,1,527
3422,5,1,222,9,1,1,1,841
3423,5,1,223,31,1,1,1,706
3424,5,1,224,31,0,0,1,786
3425,5,1,225,1,0,0,1,608
3426,5,1,226,31,1,1,1,539
3427,5,1,227,19,0,0,1,674
3428,5,1,228,9,1,1,1,627
3429,5,1,229,19,1,1,1,634
3430,5,1,230,31,0,0,1,558
3431,5,1,231,4,0,0,1,510
3432,5,1,232,19,1,1,1,636
3433,5,1,233,19,1,1,1,561
3434,5,1,234,19,0,0,1,739
3435,5,1,235,4,1,1,1,568
3436,5,1,236,31,1,1,1,552
3437,5,1,237,31,1,1,1,615
3438,5,1,238,31,1,1,1,476
3439,5,1,239,31,1,1,1,496
3440,5,1,240,19,1,1,1,601
3441,5,1,241,19,0,0,1,680
3442,5,1,242,9,0,0,1,506
3443,5,1,243,1,1,1,1,645
3444,5,1,244,1,0,0,1,727
3445,5,1,245,1,0,0,1,560
3446,5,1,246,9,1,1,1,594
3447,5,1,247,19,0,0,1,624
3448,5,1,248,31,0,0,1,841
3449,5,1,249,9,0,0,1,789
3450,5,1,250,19,1,1,1,600
3451,5,1,251,1,0,0,1,840
3452,5,1,252,31,1,1,1,633
3453,5,1,253,9,1,1,1,594
3454,5,1,254,31,0,0,1,611
3455,5,1,255,1,0,0,1,775
3456,5,1,256,19,0,0,1,523
3457,5,1,257,0,0,0,1,563
3458,5,1,258,9,1,1,1,693
3459,5,1,259,19,0,0,1,552
3460,5,1,260,31,0,0,1,706
3461,5,1,261,31,1,1,1,680
3462,5,1,262,9,1,1,1,624
3463,5,1,263,31,1,1,1,581
3464,5,1,264,9,1,1,1,730
3465,5,1,265,0,1,1,1,732
3466,5,1,266,1,1,1,1,496
3467,5,1,267,9,1,1,1,776
3468,5,1,268,0,0,0,1,1056
3469,5,1,269,9,1,1,1,709
3470,5,1,270,1,0,0,1,710
3471,5,1,271,1,1,1,1,679
3472,5,1,272,4,0,0,1,654
3473,5,1,273,4,1,1,1,601
3474,5,1,274,4,0,0,1,702
3475,5,1,275,9,1,1,1,739
3476,5,1,276,19,0,0,1,837
3477,5,1,277,9,1,1,1,789
3478,5,1,278,9,1,1,1,705
3479,5,1,279,19,0,0,0,535
3480,5,1,280,9,1,1,1,814
3481,5,1,281,19,0,0,1,771
3482,5,1,282,31,0,0,1,580
3483,5,1,283,9,0,0,1,654
3484,5,1,284,1,0,0,1,743
3485,5,1,285,0,0,0,1,518
3486,5,1,286,4,0,0,1,749
3487,5,1,287,19,0,0,1,516
3488,5,1,288,4,0,0,1,726
3489,5,1,289,19,0,0,1,824
3490,5,1,290,0,1,1,1,685
3491,5,1,291,9,0,0,1,836
3492,5,1,292,9,0,0,1,811
3493,5,1,293,1,1,1,1,777
3494,5,1,294,19,1,1,1,591
3495,5,1,295,4,1,1,1,478
3496,5,1,296,1,1,1,1,578
3497,5,1,297,1,0,0,1,541
3498,5,1,298,4,0,0,1,574
3499,5,1,299,1,1,1,1,546
3500,5,1,300,9,0,0,1,697
3501,5,1,301,0,1,1,1,603
3502,5,1,302,9,1,1,1,458
3503,5,1,303,19,0,0,1,565
3504,5,1,304,0,1,1,1,408
3505,5,1,305,4,1,1,1,550
3506,5,1,306,1,1,1,1,747
3507,5,1,307,1,0,0,1,469
3508,5,1,308,0,1,1,1,667
3509,5,1,309,9,0,0,1,502
3510,5,1,310,1,0,0,1,547
3511,5,1,311,4,1,1,1,737
3512,5,1,312,1,0,0,1,407
3513,5,1,313,19,0,0,1,489
3514,5,1,314,9,1,1,1,718
3515,5,1,315,1,1,1,1,477
3516,5,1,316,0,0,0,1,433
3517,5,1,317,1,0,0,1,533
3518,5,1,318,19,1,1,1,425
3519,5,1,319,31,0,0,1,458
3520,5,1,320,1,0,0,1,556
3521,5,1,321,1,0,0,1,675
3522,5,1,322,1,1,1,1,690
3523,5,1,323,31,1,1,1,571
3524,5,1,324,1,0,0,1,524
3525,5,1,325,1,1,1,1,625
3526,5,1,326,31,0,0,1,601
3527,5,1,327,1,1,1,1,583
3528,5,1,328,19,1,1,1,610
3529,5,1,329,19,1,1,1,626
3530,5,1,330,1,0,0,1,754
3531,5,1,331,4,1,1,1,698
3532,5,1,332,19,1,1,1,578
3533,5,1,333,4,0,0,1,724
3534,5,1,334,4,0,0,1,525
3535,5,1,335,4,0,0,1,901
3536,5,1,336,31,0,0,1,577
3537,5,1,337,9,1,1,1,599
3538,5,1,338,9,1,1,1,674
3539,5,1,339,4,1,1,1,454
3540,5,1,340,4,1,1,1,697
3541,5,1,341,1,0,0,1,792
3542,5,1,342,4,1,1,1,449
3543,5,1,343,19,0,0,1,570
3544,5,1,344,19,0,0,1,733
3545,5,1,345,4,0,0,1,621
3546,5,1,346,19,0,0,1,776
3547,5,1,347,9,0,0,1,625
3548,5,1,348,4,0,0,1,767
3549,5,1,349,19,0,0,1,588
3550,5,1,350,1,1,1,1,515
3551,5,1,351,31,0,0,1,640
3552,5,1,352,31,0,0,1,603
3553,5,1,353,9,0,0,1,438
3554,5,1,354,9,0,0,1,657
3555,5,1,355,31,1,1,1,864
3556,5,1,356,31,0,0,1,728
3557,5,1,357,4,0,0,1,768
3558,5,1,358,31,1,1,1,724
3559,5,1,359,31,1,1,1,736
3560,5,1,360,9,1,1,1,578
3561,5,1,361,19,0,0,1,741
3562,5,1,362,9,1,1,1,590
3563,5,1,363,31,0,0,1,704
3564,5,1,364,19,1,1,1,688
3565,5,1,365,1,0,0,1,623
3566,5,1,366,1,1,1,1,529
3567,5,1,367,1,1,1,1,500
3568,5,1,368,19,0,0,1,849
3569,5,1,369,1,0,0,1,530
3570,5,1,370,1,1,1,1,561
3571,5,1,371,4,1,1,1,691
3572,5,1,372,1,1,1,1,627
3573,5,1,373,31,1,1,1,655
3574,5,1,374,9,0,0,1,741
3575,5,1,375,19,1,1,1,772
3576,5,1,376,0,0,0,1,973
3577,5,1,377,19,1,1,1,732
3578,5,1,378,0,1,1,1,613
3579,5,1,379,4,1,1,1,484
3580,5,1,380,1,1,1,1,661
3581,5,1,381,4,0,0,1,365
3582,5,1,382,19,1,1,1,509
3583,5,1,383,19,0,0,1,747
3584,5,1,384,9,1,1,1,433
3585,5,1,385,31,0,0,1,762
3586,5,1,386,19,0,0,1,792
3587,5,1,387,9,0,0,1,676
3588,5,1,388,9,1,1,1,703
3589,5,1,389,4,1,1,1,851
3590,5,1,390,19,1,1,1,510
3591,5,1,391,0,0,0,1,650
3592,5,1,392,1,1,1,1,693
3593,5,1,393,31,0,0,1,515
3594,5,1,394,1,0,0,1,654
3595,5,1,395,19,1,1,1,698
3596,5,1,396,9,1,1,1,421
3597,5,1,397,4,1,1,1,577
3598,5,1,398,4,1,1,1,519
3599,5,1,399,19,1,1,1,667
3600,5,1,400,0,1,1,1,788
3601,5,1,401,31,0,0,1,591
3602,5,1,402,9,0,0,1,685
3603,5,1,403,31,1,1,1,633
3604,5,1,404,19,1,1,1,528
3605,5,1,405,1,0,0,1,550
3606,5,1,406,31,0,0,1,561
3607,5,1,407,0,1,1,1,424
3608,5,1,408,4,0,0,1,602
3609,5,1,409,4,1,1,1,822
3610,5,1,410,9,0,0,1,1008
3611,5,1,411,19,0,0,1,544
3612,5,1,412,31,1,1,1,477
3613,5,1,413,9,1,1,1,540
3614,5,1,414,1,1,1,1,489
3615,5,1,415,9,0,0,1,438
3616,5,1,416,4,0,0,1,542
3617,5,1,417,4,0,0,1,626
3618,5,1,418,31,0,0,1,601
3619,5,1,419,9,1,1,1,586
3620,5,1,420,31,0,0,1,696
3621,5,1,421,1,0,0,1,792
3622,5,1,422,4,1,1,1,546
3623,5,1,423,1,1,1,1,489
3624,5,1,424,0,0,0,1,774
3625,5,1,425,4,0,0,1,643
3626,5,1,426,9,0,0,1,574
3627,5,1,427,19,1,1,1,638
3628,5,1,428,0,1,1,1,506
3629,5,1,429,0,0,0,1,774
3630,5,1,430,19,0,0,1,718
3631,5,1,431,0,0,0,1,729
3632,5,1,432,9,1,1,1,621
3633,5,1,433,0,0,0,1,589
3634,5,1,434,19,1,1,1,497
3635,5,1,435,1,0,0,1,467
3636,5,1,436,19,0,0,1,721
3637,5,1,437,4,0,0,1,529
3638,5,1,438,19,1,1,1,498
3639,5,1,439,1,0,0,1,551
3640,5,1,440,4,0,0,1,531
3641,5,1,441,9,0,0,1,471
3642,5,1,442,1,1,1,1,427
3643,5,1,443,19,0,0,1,622
3644,5,1,444,31,0,0,1,623
3645,5,1,445,31,1,1,1,602
3646,5,1,446,4,1,1,1,541
3647,5,1,447,4,0,0,1,490
3648,5,1,448,1,0,0,1,486
3649,5,1,449,4,1,1,1,599
3650,5,1,450,9,1,1,1,531
3651,5,1,451,19,0,0,1,640
3652,5,1,452,9,1,1,1,468
3653,5,1,453,4,1,1,1,686
3654,5,1,454,4,1,1,1,820
3655,5,1,455,1,0,0,1,476
3656,5,1,456,4,1,1,1,405
3657,5,1,457,1,0,0,1,464
3658,5,1,458,19,1,1,1,635
3659,5,1,459,1,1,1,1,544
3660,5,1,460,31,1,1,1,715
3661,5,1,461,0,0,0,1,817
3662,5,1,462,1,1,1,1,765
3663,5,1,463,4,1,1,1,474
3664,5,1,464,31,1,1,1,489
3665,5,1,465,9,0,0,1,674
3666,5,1,466,31,1,1,1,481
3667,5,1,467,19,1,1,1,539
3668,5,1,468,4,1,1,1,424
3669,5,1,469,1,1,1,1,598
3670,5,1,470,19,1,1,1,634
3671,5,1,471,1,1,1,1,489
3672,5,1,472,4,0,0,1,540
3673,5,1,473,19,1,1,1,806
3674,5,1,474,1,1,1,1,529
3675,5,1,475,9,0,0,1,786
3676,5,1,476,19,1,1,1,605
3677,5,1,477,4,0,0,1,529
3678,5,1,478,1,1,1,1,514
3679,5,1,479,19,1,1,1,566
3680,5,1,480,19,0,0,1,659
3681,5,1,481,31,0,0,1,449
3682,5,1,482,1,1,1,1,416
3683,5,1,483,19,0,0,1,806
3684,5,1,484,4,1,1,1,745
3685,5,1,485,9,0,0,1,563
3686,5,1,486,9,0,0,1,606
3687,5,1,487,19,1,1,1,508
3688,5,1,488,4,0,0,1,628
3689,5,1,489,31,1,1,1,505
3690,5,1,490,9,0,0,1,577
3691,5,1,491,19,1,1,1,593
3692,5,1,492,19,0,0,1,563
3693,5,1,493,4,1,1,1,595
3694,5,1,494,4,0,0,1,549
3695,5,1,495,4,1,1,1,602
3696,5,1,496,31,0,0,1,921
3697,5,1,497,4,1,1,1,600
3698,5,1,498,31,1,1,1,519
3699,5,1,499,19,1,1,1,611
3700,5,1,500,9,0,0,1,604
3701,5,1,501,9,0,0,1,594
3702,5,1,502,1,1,1,1,504
3703,5,1,503,4,1,1,1,546
3704,5,1,504,31,0,0,1,497
3705,5,1,505,19,1,1,1,600
3706,5,1,506,19,0,0,1,676
3707,5,1,507,4,0,0,1,476
3708,5,1,508,0,0,0,1,380
3709,5,1,509,31,1,1,1,745
3710,5,1,510,31,1,1,1,655
3711,5,1,511,4,1,1,1,700
3712,5,1,512,4,0,0,1,779
3713,5,1,513,31,1,1,1,643
3714,5,1,514,1,0,0,1,619
3715,5,1,515,9,1,1,1,693
3716,5,1,516,4,0,0,1,357
3717,5,1,517,9,0,0,1,468
3718,5,1,518,31,0,0,1,636
3719,5,1,519,4,0,0,1,536
3720,5,1,520,19,0,0,1,534
3721,5,1,521,0,1,1,1,443
3722,5,1,522,0,0,0,1,408
3723,5,1,523,4,0,0,0,445
3724,5,1,524,19,0,0,1,597
3725,5,1,525,31,1,1,1,701
3726,5,1,526,31,1,1,1,554
3727,5,1,527,9,0,0,1,561
3728,5,1,528,31,1,1,1,500
3729,5,1,529,19,1,1,1,564
3730,5,1,530,4,1,1,1,579
3731,5,1,531,9,0,0,1,846
3732,5,1,532,9,0,0,1,650
3733,5,1,533,19,1,1,1,442
3734,5,1,534,31,0,0,1,570
3735,5,1,535,1,1,1,1,405
3736,5,1,536,1,0,0,1,455
3737,5,1,537,4,0,0,1,655
3738,5,1,538,9,1,1,1,517
3739,5,1,539,1,1,1,1,407
3740,5,1,540,9,0,0,1,576
3741,5,1,541,19,0,0,1,515
3742,5,1,542,19,0,0,1,959
3743,5,1,543,19,0,0,1,651
3744,5,1,544,31,0,0,1,917
3745,5,1,545,4,0,0,1,487
3746,5,1,546,31,0,0,1,559
3747,5,1,547,1,1,1,1,497
3748,5,1,548,19,0,0,1,578
3749,5,1,549,31,0,0,1,884
3750,5,1,550,19,1,1,1,540
3751,5,1,551,31,0,0,1,680
3752,5,1,552,1,0,0,1,437
3753,5,1,553,19,1,1,1,461
3754,5,1,554,4,1,1,1,559
3755,5,1,555,1,0,0,1,541
3756,5,1,556,31,1,1,1,528
3757,5,1,557,31,0,0,1,670
3758,5,1,558,31,1,1,1,693
3759,5,1,559,0,0,0,1,448
3760,5,1,560,31,0,0,1,676
3761,5,1,561,1,0,0,1,520
3762,5,1,562,19,0,0,1,802
3763,5,1,563,0,0,0,1,631
3764,5,1,564,1,0,0,1,421
3765,5,1,565,9,1,1,1,461
3766,5,1,566,0,0,0,1,502
3767,5,1,567,31,0,0,1,804
3768,5,1,568,9,0,0,1,539
3769,5,1,569,9,1,1,1,557
3770,5,1,570,1,0,0,1,746
3771,5,1,571,1,1,1,1,526
3772,5,1,572,1,1,1,1,415
3773,5,1,573,0,1,1,1,378
3774,5,1,574,1,1,1,1,416
3775,5,1,575,1,1,1,1,473
3776,5,1,576,1,1,1,1,496
3777,5,1,577,4,0,0,1,665
3778,5,1,578,9,0,0,1,725
3779,5,1,579,4,1,1,1,820
3780,5,1,580,1,0,0,1,520
3781,5,1,581,31,1,1,1,806
3782,5,1,582,4,0,0,1,669
3783,5,1,583,4,1,1,1,492
3784,5,1,584,9,0,0,1,559
3785,5,1,585,4,0,0,1,659
3786,5,1,586,1,1,1,1,575
3787,5,1,587,31,1,1,1,660
3788,5,1,588,1,0,0,1,577
3789,5,1,589,1,0,0,1,662
3790,5,1,590,4,1,1,1,462
3791,5,1,591,19,0,0,1,536
3792,5,1,592,4,0,0,0,462
3793,5,1,593,19,0,0,1,691
3794,5,1,594,19,1,1,1,603
3795,5,1,595,19,1,1,1,660
3796,5,1,596,4,1,1,1,548
3797,5,1,597,9,1,1,1,701
3798,5,1,598,1,1,1,1,459
3799,5,1,599,31,0,0,1,672
3800,5,1,600,1,1,1,1,613
3801,5,1,601,31,0,0,1,658
3802,5,1,602,1,0,0,1,432
3803,5,1,603,19,1,1,1,425
3804,5,1,604,9,0,0,1,443
3805,5,1,605,31,0,0,1,801
3806,5,1,606,4,0,0,1,465
3807,5,1,607,1,1,1,1,598
3808,5,1,608,31,1,1,1,680
3809,5,1,609,1,0,0,1,497
3810,5,1,610,1,0,0,1,444
3811,5,1,611,31,1,1,1,557
3812,5,1,612,9,1,1,1,586
3813,5,1,613,19,1,1,1,660
3814,5,1,614,4,1,1,1,629
3815,5,1,615,1,0,0,1,540
3816,5,1,616,31,1,1,1,593
3817,5,1,617,31,0,0,1,748
3818,5,1,618,9,1,1,1,637
3819,5,1,619,0,0,0,1,636
3820,5,1,620,1,1,1,1,596
3821,5,1,621,9,0,0,1,704
3822,5,1,622,4,1,1,1,892
3823,5,1,623,9,1,1,1,488
3824,5,1,624,9,0,0,1,442
3825,5,1,625,4,0,0,1,856
3826,5,1,626,4,1,1,1,839
3827,5,1,627,9,1,1,1,705
3828,5,1,628,1,1,1,1,589
3829,5,1,629,31,0,0,1,593
3830,5,1,630,19,1,1,1,662
3831,5,1,631,19,0,0,1,670
3832,5,1,632,4,0,0,1,534
3833,5,1,633,9,1,1,1,583
3834,5,1,634,9,0,0,1,604
3835,5,1,635,1,0,0,1,822
3836,5,1,636,19,1,1,1,668
3837,5,1,637,1,1,1,1,519
3838,5,1,638,1,0,0,1,600
3839,5,1,639,19,0,0,1,558
3840,5,1,640,1,1,1,1,518
3841,5,1,641,9,0,0,1,639
3842,5,1,642,9,0,0,1,745
3843,5,1,643,19,0,0,1,520
3844,5,1,644,4,1,1,1,600
3845,5,1,645,19,0,0,1,576
3846,5,1,646,31,1,1,1,588
3847,5,1,647,19,1,1,1,648
3848,5,1,648,4,1,1,1,649
3849,5,1,649,1,0,0,1,507
3850,5,1,650,31,1,1,1,462
3851,5,1,651,9,0,0,1,566
3852,5,1,652,31,0,0,1,657
3853,5,1,653,0,0,0,1,393
3854,5,1,654,4,1,1,1,554
3855,5,1,655,1,0,0,1,604
3856,5,1,656,1,0,0,1,480
3857,5,1,657,4,0,0,1,659
3858,5,1,658,4,1,1,1,518
3859,5,1,659,19,0,0,1,533
3860,5,1,660,9,0,0,1,616
3861,5,1,661,4,0,0,1,593
3862,5,1,662,31,0,0,1,755
3863,5,1,663,31,1,1,1,857
3864,5,1,664,19,1,1,1,587
3865,5,1,665,9,0,0,1,490
3866,5,1,666,4,1,1,1,555
3867,5,1,667,9,1,1,1,612
3868,5,1,668,1,0,0,1,543
3869,5,1,669,4,0,0,1,615
3870,5,1,670,4,0,0,1,693
3871,5,1,671,31,0,0,1,658
3872,5,1,672,0,1,1,1,845
3873,5,1,673,9,0,0,1,705
3874,5,1,674,31,0,0,1,619
3875,5,1,675,9,0,0,1,774
3876,5,1,676,4,0,0,1,694
3877,5,1,677,31,1,1,1,506
3878,5,1,678,0,1,1,1,468
3879,5,1,679,4,1,1,1,450
3880,5,1,680,1,0,0,1,876
3881,5,1,681,4,0,0,1,602
3882,5,1,682,9,0,0,1,765
3883,5,1,683,9,1,1,1,975
3884,5,1,684,1,0,0,1,622
3885,5,1,685,19,0,0,1,646
3886,5,1,686,1,0,0,1,319
3887,5,1,687,1,0,0,1,469
3888,5,1,688,31,0,0,1,606
3889,5,1,689,19,1,1,1,636
3890,5,1,690,31,1,1,1,552
3891,5,1,691,9,0,0,1,615
3892,5,1,692,1,0,0,1,575
3893,5,1,693,9,1,1,1,592
3894,5,1,694,9,1,1,1,587
3895,5,1,695,4,1,1,1,611
3896,5,1,696,19,0,0,1,471
3897,5,1,697,9,0,0,1,541
3898,5,1,698,1,1,1,1,574
3899,5,1,699,9,1,1,1,605
3900,5,1,700,9,1,1,1,657
3901,5,1,701,4,1,1,1,578
3902,5,1,702,31,0,0,1,418
3903,5,1,703,31,0,0,1,511
3904,5,1,704,1,0,0,1,432
3905,5,1,705,31,0,0,1,596
3906,5,1,706,0,1,1,1,439
3907,5,1,707,0,1,1,1,377
3908,5,1,708,19,1,1,1,492
3909,5,1,709,9,0,0,1,495
3910,5,1,710,0,1,1,1,407
3911,5,1,711,19,0,0,1,464
3912,5,1,712,1,0,0,1,473
3913,5,1,713,4,0,0,1,499
3914,5,1,714,1,0,0,1,417
3915,5,1,715,9,0,0,1,866
3916,5,1,716,31,0,0,1,684
3917,5,1,717,31,1,1,1,553
3918,5,1,718,9,0,0,1,651
3919,5,1,719,1,1,1,1,688
3920,5,1,720,19,1,1,1,595
3921,5,1,721,31,0,0,1,491
3922,5,1,722,4,0,0,1,575
3923,5,1,723,19,0,0,1,835
3924,5,1,724,1,1,1,1,458
3925,5,1,725,19,1,1,1,859
3926,5,1,726,31,0,0,1,487
3927,5,1,727,9,0,0,1,594
3928,5,1,728,9,0,0,1,455
3929,5,1,729,19,1,1,1,483
3930,5,1,730,31,0,0,1,591
3931,5,1,731,31,1,1,1,861
3932,5,1,732,9,1,1,1,550
3933,5,1,733,31,0,0,1,597
3934,5,1,734,19,0,0,1,622
3935,5,1,735,4,0,0,1,611
3936,5,1,736,31,1,1,1,744
3937,5,1,737,9,1,1,1,605
3938,5,1,738,9,1,1,1,435
3939,5,1,739,9,1,1,1,698
3940,5,1,740,19,1,1,1,625
3941,5,1,741,31,0,0,1,586
3942,5,1,742,31,1,1,1,559
3943,5,1,743,31,1,1,1,660
3944,5,1,744,19,1,1,1,775
3945,5,1,745,4,0,0,1,655
3946,5,1,746,31,0,0,1,752
3947,5,1,747,9,0,0,1,643
3948,5,1,748,0,0,0,1,417
3949,5,1,749,4,1,1,1,615
3950,5,1,750,9,1,1,1,712
3951,5,1,751,19,1,1,1,639
3952,5,1,752,19,0,0,1,594
3953,5,1,753,19,1,1,1,620
3954,5,1,754,9,1,1,1,603
3955,5,1,755,1,0,0,1,461
3956,5,1,756,31,1,1,1,624
3957,5,1,757,4,0,0,1,466
3958,5,1,758,4,1,1,1,549
3959,5,1,759,31,0,0,1,544
3960,5,1,760,4,0,0,1,483
3961,5,1,761,4,0,0,1,616
3962,5,1,762,1,1,1,1,501
3963,5,1,763,9,0,0,1,579
3964,5,1,764,31,0,0,1,403
3965,5,1,765,4,0,0,1,762
3966,5,1,766,19,1,1,1,572
3967,5,1,767,9,1,1,1,571
3968,5,1,768,0,1,1,1,523
3969,5,1,769,9,0,0,1,609
3970,5,1,770,19,1,1,1,504
3971,5,1,771,19,1,1,1,647
3972,5,1,772,9,0,0,1,518
3973,5,1,773,31,0,0,1,543
3974,5,1,774,19,0,0,1,446
3975,5,1,775,4,0,0,1,554
3976,5,1,776,1,1,1,1,437
3977,5,1,777,1,1,1,1,673
3978,5,1,778,4,1,1,1,679
3979,5,1,779,19,1,1,1,415
3980,5,1,780,19,0,0,1,700
3981,5,1,781,31,1,1,1,585
3982,5,1,782,1,1,1,1,473
3983,5,1,783,19,0,0,1,685
3984,5,1,784,4,0,0,1,493
3985,5,1,785,0,1,1,1,492
3986,5,1,786,1,1,1,1,402
3987,5,1,787,1,0,0,1,496
3988,5,1,788,9,1,1,1,679
3989,5,1,789,19,1,1,1,742
3990,5,1,790,9,1,1,1,658
3991,5,1,791,9,1,1,1,994
3992,5,1,792,19,1,1,1,454
3993,5,1,793,4,1,1,1,492
3994,5,1,794,4,1,1,1,518
3995,5,1,795,31,0,0,1,661
3996,5,1,796,4,1,1,1,923
3997,5,1,797,19,0,0,1,492
