trial_id,Subject,block_n,Trial,set_size,correctResponse,keyResponse,acc,RT
1,1,1,1,3,0,0,1,4101
2,1,1,2,9,1,3,0,4993
3,1,1,3,5,0,0,1,2322
4,1,1,4,11,1,1,1,1455
5,1,1,5,3,1,1,1,1512
6,1,1,6,11,0,0,1,1325
7,1,1,7,2,0,0,1,911
8,1,1,8,5,0,0,1,74
9,1,1,9,11,0,0,1,1309
10,1,1,10,7,0,0,1,915
11,1,1,11,9,0,0,1,1134
12,1,1,12,3,1,1,1,1213
13,1,1,13,3,1,1,1,1184
14,1,1,14,9,1,1,1,1224
15,1,1,15,2,0,0,1,755
16,1,1,16,5,1,1,1,1029
17,1,1,17,3,0,0,1,1236
18,1,1,18,3,0,0,1,575
19,1,1,19,7,1,1,1,913
20,1,1,20,7,1,1,1,705
21,1,1,21,2,1,1,1,886
22,1,1,22,3,1,1,1,793
23,1,1,23,11,0,0,1,1343
24,1,1,24,11,0,0,1,1134
25,1,1,25,11,0,0,1,1154
26,1,1,26,11,0,0,1,949
27,1,1,27,9,0,0,1,730
28,1,1,28,11,1,1,1,765
29,1,1,29,11,1,1,1,800
30,1,1,30,11,0,0,1,771
31,1,1,31,7,1,1,1,674
32,1,1,32,2,0,0,1,966
33,1,1,33,7,1,1,1,708
34,1,1,34,7,0,0,1,773
35,1,1,35,7,1,1,1,720
36,1,1,36,11,0,0,1,1094
37,1,1,37,2,1,1,1,584
38,1,1,38,3,0,0,1,1351
39,1,1,39,11,1,1,1,639
40,1,1,40,5,1,1,1,1183
41,1,1,41,2,1,1,1,528
42,1,1,42,7,1,1,1,577
43,1,1,43,9,1,1,1,661
44,1,1,44,9,0,0,1,925
45,1,1,45,7,0,0,1,1820
46,1,1,46,3,1,1,1,621
47,1,1,47,11,0,0,1,1393
48,1,1,48,5,1,1,1,724
49,1,1,49,3,0,0,1,538
50,1,1,50,2,0,0,1,1051
51,1,1,51,3,1,1,1,608
52,1,1,52,3,1,1,1,525
53,1,1,53,3,1,1,1,625
54,1,1,54,2,0,0,1,569
55,1,1,55,2,0,0,1,592
56,1,1,56,9,1,1,1,582
57,1,1,57,9,0,0,1,959
58,1,1,58,5,1,1,1,721
59,1,1,59,5,0,0,1,1037
60,1,1,60,2,0,0,1,533
61,1,1,61,2,0,0,1,538
62,1,1,62,3,0,0,1,630
63,1,1,63,3,1,1,1,578
64,1,1,64,3,0,0,1,555
65,1,1,65,3,0,0,1,443
66,1,1,66,9,0,0,1,621
67,1,1,67,9,0,0,1,582
68,1,1,68,2,1,1,1,612
69,1,1,69,2,1,1,1,419
70,1,1,70,3,0,0,1,884
71,1,1,71,3,1,1,1,618
72,1,1,72,3,0,0,1,524
73,1,1,73,2,0,0,1,507
74,1,1,74,3,1,1,1,597
75,1,1,75,3,1,1,1,776
76,1,1,76,3,1,1,1,493
77,1,1,77,9,1,1,1,1027
78,1,1,78,5,0,0,1,793
79,1,1,79,2,1,1,1,627
80,1,1,80,11,1,1,1,1372
81,1,1,81,9,0,0,1,1175
82,1,1,82,9,1,1,1,1064
83,1,1,83,3,0,0,1,583
84,1,1,84,3,1,1,1,496
85,1,1,85,5,1,1,1,645
86,1,1,86,5,0,0,1,612
87,1,1,87,11,0,0,1,887
88,1,1,88,3,1,1,1,662
89,1,1,89,9,0,0,1,1054
90,1,1,90,3,0,0,1,528
91,1,1,91,5,0,0,1,464
92,1,1,92,7,0,0,1,901
93,1,1,93,5,1,1,0,525
94,1,1,94,3,1,1,1,524
95,1,1,95,11,0,3,0,1104
96,1,1,96,3,0,0,1,564
97,1,1,97,2,1,1,1,649
98,1,1,98,5,0,0,1,630
99,1,1,99,3,0,0,1,582
100,1,1,100,5,0,0,1,530
101,1,1,101,5,0,0,1,572
102,1,1,102,9,0,0,1,1191
103,1,1,103,7,0,0,1,934
104,1,1,104,11,1,1,1,936
105,1,1,105,3,1,1,1,1551
106,1,1,106,5,0,0,1,709
107,1,1,107,3,0,0,1,552
108,1,1,108,5,0,0,1,849
109,1,1,109,3,0,0,1,560
110,1,1,110,3,1,1,1,613
111,1,1,111,3,0,0,1,565
112,1,1,112,3,0,0,1,528
113,1,1,113,9,0,0,1,683
114,1,1,114,9,1,1,1,1007
115,1,1,115,3,0,0,1,969
116,1,1,116,9,1,1,1,572
117,1,1,117,3,1,1,1,1270
118,1,1,118,7,1,1,1,1061
119,1,1,119,7,1,1,1,1381
120,1,1,120,3,0,0,1,608
121,1,1,121,2,1,1,1,602
122,1,1,122,9,0,0,1,1052
123,1,1,123,7,1,1,1,727
124,1,1,124,2,1,1,1,588
125,1,1,125,2,1,1,1,470
126,1,1,126,2,0,0,1,456
127,1,1,127,11,0,0,1,1667
128,1,1,128,11,0,0,1,1646
129,1,1,129,7,0,0,1,566
130,1,1,130,7,0,0,1,824
131,1,1,131,2,1,1,1,444
132,1,1,132,7,0,0,1,621
133,1,1,133,3,0,0,1,478
134,1,1,134,3,1,1,1,596
135,1,1,135,5,1,1,1,661
136,1,1,136,3,1,1,1,565
137,1,1,137,9,0,0,1,1129
138,1,1,138,2,1,1,1,737
139,1,1,139,3,1,1,1,1052
140,1,1,140,2,0,0,1,738
141,1,1,141,9,0,0,1,700
142,1,1,142,5,1,1,1,572
143,1,1,143,7,0,0,1,673
144,1,1,144,3,1,3,0,487
145,1,1,145,5,1,1,1,918
146,1,1,146,2,1,1,1,475
147,1,1,147,5,0,0,1,603
148,1,1,148,11,1,1,1,544
149,1,1,149,3,0,0,1,730
150,1,1,150,5,1,1,1,735
151,1,1,151,2,0,0,1,646
152,1,1,152,7,0,0,1,633
153,1,1,153,11,0,0,1,698
154,1,1,154,2,1,1,1,464
155,1,1,155,2,0,0,1,825
156,1,1,156,3,0,0,1,489
157,1,1,157,5,0,0,1,452
158,1,1,158,5,0,0,1,470
159,1,1,159,2,0,0,1,477
160,1,1,160,11,0,0,1,1461
161,1,1,161,2,0,0,1,569
162,1,1,162,2,1,1,1,704
163,1,1,163,3,1,1,1,787
164,1,1,164,11,0,0,1,1005
165,1,1,165,11,1,1,0,610
166,1,1,166,2,1,1,1,533
167,1,1,167,5,0,0,1,792
168,1,1,168,7,0,0,1,1347
169,1,1,169,3,1,1,1,694
170,1,1,170,5,0,0,1,592
171,1,1,171,7,1,1,1,690
172,1,1,172,11,0,0,1,590
173,1,1,173,3,0,0,1,834
174,1,1,174,11,0,0,1,687
175,1,1,175,3,0,0,1,460
176,1,1,176,9,0,0,1,1610
177,1,1,177,3,0,0,1,554
178,1,1,178,9,1,1,1,1496
179,1,1,179,2,0,0,1,972
180,1,1,180,2,0,0,1,1990
181,1,1,181,9,1,1,1,548
182,1,1,182,11,1,1,1,1480
183,1,1,183,2,1,1,1,527
184,1,1,184,9,0,0,1,1408
185,1,1,185,3,0,0,1,1178
186,1,1,186,2,1,1,1,757
187,1,1,187,7,1,1,1,741
188,1,1,188,11,1,1,1,1649
189,1,1,189,3,1,1,1,887
190,1,1,190,11,1,1,1,1989
191,1,1,191,7,1,1,1,653
192,1,1,192,5,1,1,1,508
193,1,1,193,5,1,1,1,625
194,1,1,194,11,1,1,1,816
195,1,1,195,2,0,0,1,1099
196,1,1,196,9,1,1,1,866
197,1,1,197,3,1,1,1,440
198,1,1,198,5,1,1,1,528
199,1,1,199,7,1,1,1,705
200,1,1,200,3,1,1,1,635
201,1,1,201,2,0,0,1,772
202,1,1,202,5,0,0,1,1399
203,1,1,203,7,0,0,1,1061
204,1,1,204,11,0,0,1,883
205,1,1,205,9,1,1,1,772
206,1,1,206,2,1,1,1,526
207,1,1,207,3,0,0,1,851
208,1,1,208,9,1,1,1,1111
209,1,1,209,9,0,0,1,1297
210,1,1,210,7,0,0,1,767
211,1,1,211,9,0,0,1,1179
212,1,1,212,3,0,0,1,819
213,1,1,213,5,0,0,1,744
214,1,1,214,3,1,1,1,718
215,1,1,215,5,0,0,1,521
216,1,1,216,3,0,0,1,1052
217,1,1,217,3,0,0,1,951
218,1,1,218,7,1,1,1,667
219,1,1,219,7,1,1,1,616
220,1,1,220,2,0,0,1,736
221,1,1,221,3,1,1,1,745
222,1,1,222,7,1,1,1,735
223,1,1,223,5,0,0,1,744
224,1,1,224,7,0,0,1,1304
225,1,1,225,7,0,0,1,656
226,1,1,226,2,1,1,1,490
227,1,1,227,3,1,1,1,837
228,1,1,228,5,1,1,1,736
229,1,1,229,3,1,1,1,710
230,1,1,230,9,0,0,1,801
231,1,1,231,7,1,1,1,597
232,1,1,232,7,0,0,1,1285
233,1,1,233,5,1,1,1,740
234,1,1,234,11,1,1,1,954
235,1,1,235,9,1,1,1,1186
236,1,1,236,9,1,1,1,768
237,1,1,237,11,0,0,1,1184
238,1,1,238,11,0,0,1,831
239,1,1,239,11,0,0,1,2387
240,1,1,240,3,0,0,1,725
241,1,1,241,3,1,1,1,901
242,1,1,242,2,1,1,1,673
243,1,1,243,5,0,0,1,789
244,1,1,244,9,0,0,1,1202
245,1,1,245,5,1,1,1,924
246,1,1,246,5,1,1,1,598
247,1,1,247,11,0,0,1,1020
248,1,1,248,2,0,0,1,1020
249,1,1,249,3,1,1,1,807
250,1,1,250,9,1,1,1,876
251,1,1,251,11,0,0,1,1210
252,1,1,252,11,1,1,0,707
253,1,1,253,11,1,1,1,2023
254,1,1,254,2,1,1,1,607
255,1,1,255,9,0,0,1,1297
256,1,1,256,3,0,0,1,1410
257,1,1,257,7,0,0,1,1091
258,1,1,258,9,0,0,1,1435
259,1,1,259,2,1,1,1,784
260,1,1,260,2,1,1,1,558
261,1,1,261,5,0,0,1,1219
262,1,1,262,11,1,1,1,1296
263,1,1,263,9,0,0,1,899
264,1,1,264,3,1,1,1,702
265,1,1,265,7,0,0,1,1407
266,1,1,266,7,1,1,1,655
267,1,1,267,5,1,1,1,773
268,1,1,268,11,1,1,1,713
269,1,1,269,7,0,0,1,705
270,1,1,270,2,1,1,1,513
271,1,1,271,11,1,1,1,917
272,1,1,272,3,1,1,1,895
273,1,1,273,7,0,0,1,1160
274,1,1,274,2,1,1,1,1142
275,1,1,275,3,1,1,1,453
276,1,1,276,11,0,0,1,1661
277,1,1,277,3,1,1,1,606
278,1,1,278,3,0,0,1,913
279,1,1,279,9,0,0,1,1102
280,1,1,280,9,1,1,1,669
281,1,1,281,9,0,0,1,1672
282,1,1,282,9,0,0,1,825
283,1,1,283,5,0,0,1,709
284,1,1,284,7,0,0,1,1039
285,1,1,285,5,1,1,1,592
286,1,1,286,2,0,0,1,645
287,1,1,287,7,0,0,1,1187
288,1,1,288,5,0,0,1,699
289,1,1,289,2,0,0,1,1821
290,1,1,290,2,1,1,1,1664
291,1,1,291,11,1,1,0,1185
292,1,1,292,5,1,1,1,1157
293,1,1,293,5,0,0,1,1243
294,1,1,294,5,1,1,1,721
295,1,1,295,11,0,0,1,1712
296,1,1,296,3,0,0,1,1294
297,1,1,297,2,1,1,1,492
298,1,1,298,9,0,0,1,1505
299,1,1,299,11,0,0,1,1324
300,1,1,300,3,0,0,1,921
301,1,1,301,9,1,1,1,759
302,1,1,302,5,0,0,1,591
303,1,1,303,9,1,1,1,972
304,1,1,304,11,1,1,1,607
305,1,1,305,3,1,1,1,933
306,1,1,306,9,0,0,1,1068
307,1,1,307,3,0,0,1,688
308,1,1,308,3,0,0,1,955
309,1,1,309,9,1,1,1,755
310,1,1,310,2,1,1,1,650
311,1,1,311,11,0,0,1,1499
312,1,1,312,9,1,1,1,1126
313,1,1,313,11,0,0,1,978
314,1,1,314,3,1,1,1,781
315,1,1,315,3,1,1,1,720
316,1,1,316,3,0,0,1,1358
317,1,1,317,3,1,1,1,527
318,1,1,318,2,0,0,1,892
319,1,1,319,3,1,1,1,521
320,1,1,320,5,0,0,1,931
321,1,1,321,5,0,0,1,1256
322,1,1,322,11,0,0,1,1045
323,1,1,323,5,1,1,1,710
324,1,1,324,7,1,1,1,910
325,1,1,325,3,0,0,1,1179
326,1,1,326,2,1,1,1,699
327,1,1,327,3,1,1,1,615
328,1,1,328,2,1,1,1,695
329,1,1,329,3,1,1,1,872
330,1,1,330,3,0,3,0,767
331,1,1,331,7,1,1,1,925
332,1,1,332,9,1,1,1,866
333,1,1,333,3,0,0,1,862
334,1,1,334,2,0,0,1,619
335,1,1,335,3,1,1,1,1028
336,1,1,336,11,1,1,1,649
337,1,1,337,3,1,1,1,1267
338,1,1,338,7,0,0,1,1082
339,1,1,339,2,0,0,1,667
340,1,1,340,3,0,0,1,840
341,1,1,341,11,0,0,1,627
342,1,1,342,9,0,0,1,1362
343,1,1,343,5,1,1,1,828
344,1,1,344,11,1,1,1,854
345,1,1,345,2,1,1,1,874
346,1,1,346,9,0,0,1,1091
347,1,1,347,3,0,0,1,630
348,1,1,348,5,1,1,1,581
349,1,1,349,3,1,1,1,603
350,1,1,350,7,1,1,1,1007
351,1,1,351,9,1,1,1,1134
352,1,1,352,11,1,1,1,1034
353,1,1,353,9,0,0,1,1479
354,1,1,354,2,0,0,1,1066
355,1,1,355,7,0,0,1,1414
356,1,1,356,7,1,1,1,907
357,1,1,357,7,1,1,1,817
358,1,1,358,11,0,0,1,1343
359,1,1,359,2,1,1,1,791
360,1,1,360,3,1,1,1,670
361,1,1,361,7,0,0,1,1356
362,1,1,362,9,1,1,1,1502
363,1,1,363,3,1,1,1,707
364,1,1,364,5,1,1,1,663
365,1,1,365,2,0,0,1,1695
366,1,1,366,3,0,0,1,859
367,1,1,367,5,1,1,1,534
368,1,1,368,2,1,1,1,472
369,1,1,369,3,1,1,1,497
370,1,1,370,9,0,0,1,2332
371,1,1,371,3,0,0,1,739
372,1,1,372,5,1,1,1,2289
373,1,1,373,3,1,1,1,667
374,1,1,374,9,0,0,1,1480
375,1,1,375,3,1,1,1,636
376,1,1,376,5,0,0,1,1863
377,1,1,377,11,0,0,1,995
378,1,1,378,11,0,0,1,1379
379,1,1,379,7,1,1,1,1489
380,1,1,380,2,1,1,1,1776
381,1,1,381,9,1,1,1,1852
382,1,1,382,7,1,1,1,1051
383,1,1,383,3,0,0,1,2542
384,1,1,388,5,0,0,1,933
385,1,1,389,9,1,1,1,899
386,1,1,393,5,1,1,1,917
387,1,1,394,5,0,0,1,820
388,1,1,396,11,0,0,1,1730
389,1,1,397,7,0,0,1,799
390,1,1,398,5,1,1,1,738
391,1,1,400,2,0,0,1,993
392,1,1,401,5,1,1,1,873
393,1,1,402,11,0,0,1,1517
394,1,1,405,2,0,0,1,745
395,1,1,406,5,0,0,1,921
396,1,1,407,7,0,0,1,664
397,1,1,408,11,1,1,1,1295
398,1,1,409,5,0,0,1,1569
399,1,1,410,9,0,0,1,2059
400,1,1,411,9,1,1,1,1050
401,1,1,412,5,0,0,1,958
402,1,1,413,9,0,0,1,1346
403,1,1,414,5,1,1,1,622
404,1,1,415,11,1,1,1,1560
405,1,1,417,9,0,0,1,1490
406,1,1,418,2,0,0,1,1306
407,1,1,419,7,0,0,1,1141
408,1,1,420,7,1,1,1,979
409,1,1,421,9,1,1,1,1484
410,1,1,423,9,1,1,1,1431
411,1,1,424,5,1,1,1,830
412,1,1,426,9,1,1,1,581
413,1,1,427,7,0,0,1,918
414,1,1,429,9,0,0,1,822
415,1,1,430,2,0,0,1,747
416,1,1,431,2,0,0,1,404
417,1,1,432,9,1,1,1,683
418,1,1,433,7,1,1,1,1134
419,1,1,434,7,1,1,1,827
420,1,1,435,9,0,0,1,1417
421,1,1,438,2,1,1,1,866
422,1,1,440,2,0,0,1,1050
423,1,1,442,5,1,1,1,725
424,1,1,443,7,0,0,1,1279
425,1,1,444,9,1,1,1,899
426,1,1,446,7,1,1,1,2235
427,1,1,447,7,1,1,1,496
428,1,1,448,9,0,0,1,1567
429,1,1,449,2,0,0,1,748
430,1,1,450,9,1,1,1,546
431,1,1,451,11,0,0,1,1279
432,1,1,452,11,1,1,1,1111
433,1,1,454,11,0,0,1,1654
434,1,1,455,11,0,0,1,1524
435,1,1,456,5,0,0,1,566
436,1,1,458,11,0,0,1,1460
437,1,1,459,5,0,0,1,1216
438,1,1,462,7,1,1,1,962
439,1,1,463,5,0,0,1,774
440,1,1,465,9,0,0,1,2196
441,1,1,466,2,0,0,1,1053
442,1,1,467,11,1,1,1,1331
443,1,1,468,9,1,1,1,800
444,1,1,469,11,0,0,1,2034
445,1,1,470,7,0,0,1,1354
446,1,1,471,2,0,0,1,2310
447,1,1,472,9,1,1,1,896
448,1,1,473,9,1,1,1,1583
449,1,1,474,2,1,1,1,733
450,1,1,475,11,0,0,1,821
451,1,1,476,11,1,1,1,759
452,1,1,478,5,1,1,1,723
453,1,1,479,7,1,1,1,816
454,1,1,481,11,0,0,1,774
455,1,1,482,7,0,0,1,1581
456,1,1,483,2,0,0,1,2038
457,1,1,484,5,0,0,1,2538
458,1,1,485,7,1,1,1,1035
459,1,1,486,7,0,0,1,1502
460,1,1,490,5,0,0,1,1463
461,1,1,493,11,0,0,1,2506
462,1,1,494,7,1,1,1,821
463,1,1,495,2,1,1,1,750
464,1,1,496,5,1,1,1,674
465,1,1,497,2,1,1,1,622
466,1,1,501,5,0,0,1,1159
467,1,1,502,7,0,0,1,1215
468,1,1,504,9,1,1,1,671
469,1,1,505,5,0,0,1,2775
470,1,1,506,11,0,0,1,1739
471,1,1,508,2,1,1,1,591
472,1,1,510,11,1,1,1,1221
473,1,1,512,11,0,0,1,919
474,1,1,513,2,0,0,1,735
475,1,1,514,7,1,1,0,654
476,1,1,516,5,0,0,1,929
477,1,1,517,2,0,0,1,778
478,1,1,518,9,0,0,1,1435
479,1,1,519,11,0,0,1,1401
480,1,1,522,9,1,1,1,1117
481,1,1,524,5,1,1,1,610
482,1,1,525,9,1,1,1,586
483,1,1,526,2,0,0,1,709
484,1,1,527,2,0,0,1,737
485,1,1,528,9,1,1,1,637
486,1,1,529,9,1,1,1,1271
487,1,1,530,7,0,0,1,581
488,1,1,531,5,1,1,1,974
489,1,1,532,7,0,0,1,1901
490,1,1,534,7,1,1,1,1113
491,1,1,535,7,0,0,1,1046
492,1,1,536,7,1,1,1,634
493,1,1,537,7,0,0,1,726
494,1,1,538,11,1,1,1,601
495,1,1,539,11,0,0,1,989
496,1,1,541,5,0,0,1,858
497,1,1,542,11,0,0,1,783
498,1,1,543,2,0,0,1,590
499,1,1,544,5,1,1,1,570
500,1,1,545,9,0,0,1,547
501,1,1,546,11,0,0,1,622
502,1,1,547,11,0,0,1,748
503,1,1,549,7,0,0,1,822
504,1,1,550,7,1,1,1,806
505,1,1,551,7,1,1,1,558
506,1,1,552,5,0,0,1,542
507,1,1,555,7,1,1,1,570
508,1,1,556,2,1,1,1,569
509,1,1,558,2,0,0,1,635
510,1,1,559,7,0,0,1,1116
511,1,1,562,11,1,1,1,476
512,1,1,563,5,1,1,1,699
513,1,1,567,9,1,1,1,933
514,1,1,568,9,0,0,1,770
515,1,1,569,5,1,1,1,758
516,1,1,570,11,0,0,1,1412
517,1,1,571,5,0,0,1,1229
518,1,1,572,11,1,1,1,1053
519,1,1,573,9,1,1,1,734
520,1,1,574,5,1,1,1,539
521,1,1,576,9,1,1,1,627
522,1,1,577,11,0,0,1,1345
523,1,1,578,9,0,0,1,1565
524,1,1,581,11,1,1,0,697
525,1,1,582,9,1,1,1,1710
526,1,1,583,2,1,1,1,475
527,1,1,584,7,0,0,1,1084
528,1,1,585,11,1,1,1,738
529,1,1,586,11,0,0,1,803
530,1,1,587,2,0,0,1,1808
531,1,1,589,2,1,1,1,948
532,1,1,591,7,1,1,1,884
533,1,1,592,11,0,0,1,1124
534,1,1,593,11,0,0,1,827
535,1,1,594,5,1,1,1,770
536,1,1,595,11,0,0,1,903
537,1,1,597,7,0,0,1,1306
538,1,1,598,9,0,0,1,743
539,1,1,600,7,1,1,1,1191
540,1,1,601,7,0,0,1,1337
541,1,1,602,5,0,0,1,1187
542,1,1,603,2,1,1,1,999
543,1,1,604,11,0,0,1,1160
544,1,1,607,5,0,0,1,658
545,1,1,608,9,0,0,1,812
546,1,1,610,11,1,1,1,1213
547,1,1,611,5,1,1,1,728
548,1,1,613,7,1,1,1,858
549,1,1,614,5,1,1,1,1128
550,1,1,616,9,0,0,1,1370
551,1,1,617,5,1,1,1,561
552,1,1,618,2,0,0,0,437
553,1,1,620,5,1,1,1,996
554,1,1,621,7,0,0,1,3220
555,1,1,622,7,0,0,1,2357
556,1,1,627,9,0,0,1,1267
557,1,1,628,7,1,1,1,713
558,1,1,629,11,1,1,1,492
559,1,1,630,9,1,1,1,1243
560,1,1,632,7,1,1,1,1171
561,1,1,633,9,1,1,1,869
562,1,1,634,7,0,0,1,768
563,1,1,637,11,1,1,1,897
564,1,1,642,7,1,1,1,843
565,1,1,643,5,1,1,1,1417
566,1,1,644,9,0,0,1,1025
567,1,1,645,5,1,1,1,725
568,1,1,646,7,1,1,1,851
569,1,1,647,2,1,1,1,2930
570,1,1,648,9,0,0,1,1514
571,1,1,651,7,1,1,1,430
572,1,1,652,11,1,1,1,1141
573,1,1,653,2,0,0,1,1346
574,1,1,654,2,1,1,1,1255
575,1,1,655,11,0,0,1,1212
576,1,1,656,11,1,1,1,1014
577,1,1,657,5,0,0,1,1623
578,1,1,658,7,0,0,1,1185
579,1,1,659,5,1,1,1,725
580,1,1,661,9,1,1,1,597
581,1,1,662,11,1,1,1,1235
582,1,1,663,2,1,1,1,578
583,1,1,664,2,1,1,1,503
584,1,1,665,2,1,1,1,1815
585,1,1,667,5,0,0,1,759
586,1,1,669,2,0,0,1,702
587,1,1,670,7,0,0,1,982
588,1,1,671,7,1,1,1,660
589,1,1,672,9,0,0,1,669
590,1,1,673,7,0,0,1,1456
591,1,1,674,7,1,1,1,1752
592,1,1,676,2,0,0,1,619
593,1,1,677,5,0,0,1,1155
594,1,1,678,2,0,0,1,578
595,1,1,679,9,1,1,1,1357
596,1,1,680,9,1,1,1,1394
597,1,1,681,2,1,1,1,491
598,1,1,683,5,1,1,1,1259
599,1,1,685,11,0,0,1,1638
600,1,1,690,7,0,0,1,677
601,3,1,1,3,1,1,1,965
602,3,1,2,2,1,1,1,481
603,3,1,3,3,1,1,1,674
604,3,1,4,2,1,1,1,655
605,3,1,5,7,0,0,1,1543
606,3,1,6,11,0,0,0,1152
607,3,1,7,2,1,1,0,842
608,3,1,8,11,1,1,1,1821
609,3,1,9,3,1,1,1,1002
610,3,1,10,3,1,1,1,893
611,3,1,11,5,1,1,1,1478
612,3,1,12,3,1,1,1,522
613,3,1,13,2,0,0,1,1553
614,3,1,14,5,0,0,1,1104
615,3,1,15,11,1,1,0,1710
616,3,1,16,7,1,1,1,1047
617,3,1,17,2,0,0,1,1514
618,3,1,18,9,1,1,1,1384
619,3,1,19,3,0,0,1,891
620,3,1,20,3,0,0,1,2541
621,3,1,21,11,1,1,1,891
622,3,1,22,3,1,1,1,660
623,3,1,23,11,0,0,1,744
624,3,1,24,11,1,1,1,1006
625,3,1,25,3,1,1,1,580
626,3,1,26,7,1,1,1,786
627,3,1,27,5,0,0,1,573
628,3,1,28,3,1,1,1,692
629,3,1,29,5,1,1,0,895
630,3,1,30,3,0,0,1,951
631,3,1,31,2,1,1,0,707
632,3,1,32,11,0,0,1,2397
633,3,1,33,3,0,0,1,499
634,3,1,34,3,0,0,1,541
635,3,1,35,3,1,1,1,699
636,3,1,36,3,1,1,1,774
637,3,1,37,2,0,0,1,714
638,3,1,38,3,1,1,1,1248
639,3,1,39,11,0,0,1,2008
640,3,1,40,2,1,1,1,617
641,3,1,41,7,1,1,1,820
642,3,1,42,3,1,1,0,891
643,3,1,43,3,1,1,1,1380
644,3,1,44,5,0,0,1,2159
645,3,1,45,3,1,1,1,968
646,3,1,46,11,1,1,0,3527
647,3,1,47,3,0,0,1,900
648,3,1,48,2,0,0,1,560
649,3,1,49,2,1,1,1,767
650,3,1,50,3,0,0,1,720
651,3,1,51,2,0,0,1,515
652,3,1,52,3,0,0,1,874
653,3,1,53,3,0,0,1,559
654,3,1,54,9,1,1,1,861
655,3,1,55,9,1,1,0,888
656,3,1,56,2,0,0,1,1004
657,3,1,57,11,0,0,0,553
658,3,1,58,3,1,1,1,949
659,3,1,59,7,0,0,1,1298
660,3,1,60,2,1,1,1,544
661,3,1,61,2,1,1,1,462
662,3,1,62,2,0,0,1,620
663,3,1,63,3,0,0,1,833
664,3,1,64,11,0,0,0,737
665,3,1,65,2,0,0,1,508
666,3,1,66,7,1,1,1,603
667,3,1,67,2,0,0,1,1472
668,3,1,68,9,1,1,1,1216
669,3,1,69,7,0,0,1,1406
670,3,1,70,11,1,1,1,666
671,3,1,71,2,0,0,0,588
672,3,1,72,3,1,1,1,431
673,3,1,73,11,1,1,1,658
674,3,1,74,11,0,0,1,2969
675,3,1,75,5,0,0,1,1033
676,3,1,76,3,1,1,1,797
677,3,1,77,5,1,1,1,1538
678,3,1,78,9,1,1,1,1659
679,3,1,79,5,0,0,1,1179
680,3,1,80,5,1,1,1,1210
681,3,1,81,9,0,0,1,1785
682,3,1,82,2,0,0,1,875
683,3,1,83,5,1,1,1,2040
684,3,1,84,5,1,1,1,755
685,3,1,85,5,1,1,1,1171
686,3,1,86,3,1,1,1,528
687,3,1,87,11,1,1,1,628
688,3,1,88,3,1,1,1,439
689,3,1,89,2,1,1,0,327
690,3,1,90,3,1,1,1,567
691,3,1,91,9,0,0,1,1772
692,3,1,92,3,1,1,1,572
693,3,1,93,9,1,1,1,424
694,3,1,94,11,0,0,1,2618
695,3,1,95,5,1,1,1,1019
696,3,1,96,2,1,1,1,619
697,3,1,97,11,0,0,1,1502
698,3,1,98,3,0,0,1,897
699,3,1,99,2,0,0,1,702
700,3,1,100,3,0,0,1,596
701,3,1,101,11,0,0,1,1276
702,3,1,102,9,0,0,1,1473
703,3,1,103,7,0,0,1,897
704,3,1,104,3,0,0,1,787
705,3,1,105,9,0,0,1,1583
706,3,1,106,9,1,1,0,1403
707,3,1,107,2,1,1,1,796
708,3,1,108,9,0,0,1,2257
709,3,1,109,11,0,0,1,2940
710,3,1,110,5,0,0,1,700
711,3,1,111,2,0,0,1,467
712,3,1,112,5,0,0,1,732
713,3,1,113,3,0,0,1,421
714,3,1,114,7,1,1,0,807
715,3,1,115,11,0,0,1,1516
716,3,1,116,5,0,0,1,839
717,3,1,117,9,0,0,1,1414
718,3,1,118,7,1,1,1,1104
719,3,1,119,9,0,0,1,1617
720,3,1,120,11,1,1,1,1677
721,3,1,121,7,0,0,1,1038
722,3,1,122,11,0,0,1,1280
723,3,1,123,5,1,1,0,545
724,3,1,124,9,1,1,1,1403
725,3,1,125,2,0,0,1,1321
726,3,1,126,3,1,1,1,754
727,3,1,127,9,0,0,1,2677
728,3,1,128,11,0,0,1,2739
729,3,1,129,5,0,0,1,557
730,3,1,130,3,1,1,1,557
731,3,1,131,9,0,0,1,1791
732,3,1,132,11,1,1,1,1817
733,3,1,133,11,1,1,1,1396
734,3,1,134,5,0,0,1,1699
735,3,1,135,7,0,0,1,1045
736,3,1,136,2,1,1,1,690
737,3,1,137,9,0,0,1,1700
738,3,1,138,7,0,0,1,651
739,3,1,139,5,1,1,1,1103
740,3,1,140,11,0,0,1,1390
741,3,1,141,7,1,1,0,523
742,3,1,142,5,0,0,1,1192
743,3,1,143,7,0,0,1,939
744,3,1,144,9,1,1,0,1265
745,3,1,145,2,0,0,0,816
746,3,1,146,9,1,1,1,1108
747,3,1,147,3,1,1,1,657
748,3,1,148,9,0,0,1,2502
749,3,1,149,2,1,1,1,1513
750,3,1,150,7,0,0,1,1480
751,3,1,151,3,1,1,1,825
752,3,1,152,2,0,0,1,774
753,3,1,153,3,0,0,1,1557
754,3,1,154,9,0,0,1,1926
755,3,1,155,3,0,0,1,508
756,3,1,156,11,0,0,1,2846
757,3,1,157,5,1,1,1,742
758,3,1,158,3,1,1,1,1181
759,3,1,159,7,1,1,1,838
760,3,1,160,3,0,0,1,1060
761,3,1,161,3,0,0,1,1091
762,3,1,162,9,1,1,1,702
763,3,1,163,5,1,1,1,730
764,3,1,164,2,0,0,1,847
765,3,1,165,3,1,1,1,529
766,3,1,166,9,1,1,1,2452
767,3,1,167,11,0,0,1,1985
768,3,1,168,5,0,0,1,1086
769,3,1,169,11,1,1,1,1353
770,3,1,170,5,0,0,1,917
771,3,1,171,11,1,1,1,1317
772,3,1,172,3,1,1,1,513
773,3,1,173,5,1,1,1,547
774,3,1,174,9,0,0,1,2499
775,3,1,175,3,0,0,1,1091
776,3,1,176,9,1,1,1,906
777,3,1,177,3,1,1,1,421
778,3,1,178,11,1,1,1,513
779,3,1,179,2,1,1,1,377
780,3,1,180,3,0,0,1,600
781,3,1,181,11,0,0,0,661
782,3,1,182,11,1,1,1,1425
783,3,1,183,2,1,1,1,431
784,3,1,184,11,0,0,1,1946
785,3,1,185,5,1,1,0,469
786,3,1,186,3,0,0,1,1326
787,3,1,187,2,0,0,1,1021
788,3,1,188,7,0,0,1,1394
789,3,1,189,5,0,0,1,635
790,3,1,190,2,1,1,0,536
791,3,1,191,3,1,1,1,515
792,3,1,192,9,1,1,1,1233
793,3,1,193,7,1,1,1,851
794,3,1,194,3,1,1,1,430
795,3,1,195,9,0,0,1,1193
796,3,1,196,3,1,1,0,678
797,3,1,197,3,1,1,1,534
798,3,1,198,11,0,0,1,1733
799,3,1,199,11,1,1,1,1873
800,3,1,200,3,0,0,1,1048
801,3,1,201,9,0,0,1,777
802,3,1,202,3,0,0,1,638
803,3,1,203,11,1,1,1,1468
804,3,1,204,7,0,0,1,1160
805,3,1,205,5,0,0,1,1113
806,3,1,206,7,0,0,1,564
807,3,1,207,9,1,1,1,1142
808,3,1,208,11,0,0,1,1347
809,3,1,209,9,0,0,1,2268
810,3,1,210,2,0,0,1,778
811,3,1,211,3,0,0,1,875
812,3,1,212,2,0,0,1,617
813,3,1,213,9,1,1,1,1357
814,3,1,214,2,1,1,1,628
815,3,1,215,3,0,0,1,1150
816,3,1,216,3,0,0,1,915
817,3,1,217,3,1,1,1,654
818,3,1,218,2,1,1,1,498
819,3,1,219,3,1,1,1,1002
820,3,1,220,2,0,0,1,642
821,3,1,221,7,1,1,1,812
822,3,1,222,9,0,0,1,1631
823,3,1,223,9,1,1,1,513
824,3,1,224,7,0,0,1,1056
825,3,1,225,11,1,1,0,944
826,3,1,226,3,0,0,1,869
827,3,1,227,9,1,1,1,858
828,3,1,228,11,1,1,0,1375
829,3,1,229,2,0,0,1,837
830,3,1,230,9,1,1,1,944
831,3,1,231,7,1,1,1,608
832,3,1,232,5,0,0,1,988
833,3,1,233,7,1,1,1,869
834,3,1,234,7,0,0,1,1725
835,3,1,235,11,0,0,1,1111
836,3,1,236,11,1,1,1,1703
837,3,1,237,2,0,0,1,575
838,3,1,238,3,1,1,1,704
839,3,1,239,2,0,0,0,508
840,3,1,240,7,1,1,1,1038
841,3,1,241,3,1,1,1,1304
842,3,1,242,2,0,0,1,593
843,3,1,243,7,1,1,1,2085
844,3,1,244,2,1,1,1,462
845,3,1,245,9,0,0,1,1467
846,3,1,246,3,0,0,1,839
847,3,1,247,11,0,0,1,955
848,3,1,248,3,1,1,1,724
849,3,1,249,2,0,0,1,494
850,3,1,250,7,1,1,1,758
851,3,1,251,9,1,1,1,1868
852,3,1,252,9,1,1,1,549
853,3,1,253,9,0,0,1,1022
854,3,1,254,2,0,0,0,634
855,3,1,255,7,0,0,1,1384
856,3,1,256,9,1,1,0,1262
857,3,1,257,11,0,0,1,890
858,3,1,258,7,0,0,1,1074
859,3,1,259,3,1,1,1,469
860,3,1,260,3,0,0,1,634
861,3,1,261,2,1,1,0,422
862,3,1,262,5,0,0,1,852
863,3,1,263,2,1,1,1,478
864,3,1,264,11,1,1,1,763
865,3,1,265,9,0,0,1,1925
866,3,1,266,2,1,1,1,783
867,3,1,267,2,0,0,1,644
868,3,1,268,7,0,0,1,1289
869,3,1,269,3,1,1,1,615
870,3,1,270,9,1,1,0,984
871,3,1,271,3,1,1,1,627
872,3,1,272,9,1,1,1,1381
873,3,1,273,3,1,1,1,616
874,3,1,274,9,1,1,1,846
875,3,1,275,9,1,1,1,948
876,3,1,276,3,1,1,1,480
877,3,1,277,7,0,0,1,1420
878,3,1,278,7,1,1,0,823
879,3,1,279,9,1,1,1,921
880,3,1,280,11,0,0,1,1427
881,3,1,281,7,1,1,1,1051
882,3,1,282,3,0,0,1,765
883,3,1,283,3,0,0,1,574
884,3,1,284,3,0,0,1,828
885,3,1,285,3,0,0,1,566
886,3,1,286,7,1,1,1,1621
887,3,1,287,9,0,0,1,1243
888,3,1,288,3,0,0,1,1425
889,3,1,289,7,0,0,1,666
890,3,1,290,5,0,0,1,815
891,3,1,291,3,1,1,0,586
892,3,1,292,11,0,0,1,1960
893,3,1,293,5,1,1,1,781
894,3,1,294,7,0,0,1,1230
895,3,1,295,7,0,0,1,679
896,3,1,296,7,1,1,1,563
897,3,1,297,9,0,0,1,956
898,3,1,298,5,0,0,1,1092
899,3,1,299,3,1,1,0,510
900,3,1,300,3,0,0,1,679
901,3,1,301,11,0,0,1,1579
902,3,1,302,9,0,0,1,623
903,3,1,303,5,0,0,1,483
904,3,1,304,2,1,1,0,424
905,3,1,305,5,1,1,1,596
906,3,1,306,11,1,1,1,1334
907,3,1,307,3,1,1,1,684
908,3,1,308,11,0,0,1,1046
909,3,1,309,2,0,0,1,759
910,3,1,310,7,0,0,1,611
911,3,1,311,2,1,1,1,478
912,3,1,312,5,1,1,1,1190
913,3,1,313,7,1,1,1,532
914,3,1,314,9,0,0,1,1532
915,3,1,315,2,1,1,1,575
916,3,1,316,7,0,0,1,708
917,3,1,317,2,1,1,1,711
918,3,1,318,7,0,0,1,1711
919,3,1,319,9,1,1,1,1495
920,3,1,320,11,1,1,0,935
921,3,1,321,2,0,0,1,572
922,3,1,322,3,1,1,0,486
923,3,1,323,9,0,0,1,1697
924,3,1,324,7,0,0,1,1000
925,3,1,325,5,0,0,1,502
926,3,1,326,9,0,0,1,1172
927,3,1,327,11,0,0,1,550
928,3,1,328,7,0,0,1,489
929,3,1,329,7,1,1,0,579
930,3,1,330,2,1,1,1,656
931,3,1,331,3,0,0,1,901
932,3,1,332,9,0,0,1,1118
933,3,1,333,2,1,1,1,589
934,3,1,334,9,0,0,1,1677
935,3,1,335,3,0,0,1,623
936,3,1,336,9,1,1,0,541
937,3,1,337,11,1,1,1,1200
938,3,1,338,5,0,0,1,772
939,3,1,339,3,1,1,1,588
940,3,1,340,5,0,0,1,945
941,3,1,341,11,1,1,1,1056
942,3,1,342,9,0,0,1,673
943,3,1,343,5,1,1,1,729
944,3,1,344,3,1,1,1,563
945,3,1,345,11,1,1,1,650
946,3,1,346,11,0,0,1,1162
947,3,1,347,9,1,1,1,750
948,3,1,348,2,1,1,1,400
949,3,1,349,3,0,0,1,629
950,3,1,350,9,1,1,1,1854
951,3,1,351,7,0,0,1,998
952,3,1,352,9,0,0,1,2299
953,3,1,353,9,0,0,1,618
954,3,1,354,2,1,1,0,447
955,3,1,355,2,1,1,1,617
956,3,1,356,3,0,0,1,579
957,3,1,357,3,1,1,1,597
958,3,1,358,5,1,1,1,425
959,3,1,359,3,0,0,1,958
960,3,1,360,3,0,0,1,1314
961,3,1,361,3,1,1,1,604
962,3,1,362,3,1,1,1,525
963,3,1,363,11,1,1,1,1145
964,3,1,364,5,0,0,1,680
965,3,1,365,3,0,0,1,584
966,3,1,366,11,0,0,0,917
967,3,1,367,3,1,1,1,639
968,3,1,368,5,0,0,1,891
969,3,1,369,3,0,0,1,561
970,3,1,370,3,0,0,1,604
971,3,1,371,9,1,1,0,845
972,3,1,372,7,0,0,1,845
973,3,1,373,5,1,1,1,909
974,3,1,374,9,1,1,0,1128
975,3,1,375,2,0,0,1,995
976,3,1,376,3,0,0,1,521
977,3,1,377,9,0,0,1,1604
978,3,1,378,9,0,0,1,915
979,3,1,379,7,1,1,1,1035
980,3,1,380,3,1,1,1,494
981,3,1,381,2,0,0,1,554
982,3,1,382,2,1,1,1,1888
983,3,1,383,11,1,1,1,772
984,3,1,384,3,0,0,1,722
985,3,1,385,7,0,0,1,1661
986,3,1,388,11,1,1,1,631
987,3,1,389,5,1,1,1,419
988,3,1,390,5,1,1,0,789
989,3,1,391,11,1,1,1,755
990,3,1,393,2,1,1,1,496
991,3,1,394,5,1,1,1,750
992,3,1,395,5,0,0,0,553
993,3,1,396,11,0,0,1,1729
994,3,1,397,5,1,1,1,765
995,3,1,398,5,0,0,1,803
996,3,1,399,5,0,0,1,806
997,3,1,401,7,0,0,1,871
998,3,1,402,11,0,0,1,1090
999,3,1,403,5,0,0,1,517
1000,3,1,406,7,0,0,1,789
1001,3,1,408,5,0,0,1,661
1002,3,1,409,2,1,1,1,947
1003,3,1,410,11,0,0,1,1976
1004,3,1,411,9,0,0,1,947
1005,3,1,412,9,1,1,1,717
1006,3,1,415,9,1,1,1,1039
1007,3,1,416,7,0,0,1,1638
1008,3,1,418,11,0,0,1,1002
1009,3,1,420,5,1,1,1,514
1010,3,1,421,9,0,0,1,1437
1011,3,1,422,11,0,0,1,750
1012,3,1,423,7,0,0,1,391
1013,3,1,426,5,1,1,1,516
1014,3,1,427,2,0,0,1,828
1015,3,1,431,5,1,1,1,865
1016,3,1,434,5,1,1,1,564
1017,3,1,435,11,0,0,1,859
1018,3,1,437,7,1,1,0,897
1019,3,1,438,9,0,0,1,1038
1020,3,1,439,2,0,0,1,668
1021,3,1,441,2,0,0,1,543
1022,3,1,442,5,1,1,1,455
1023,3,1,443,11,1,1,1,1041
1024,3,1,444,11,0,0,1,830
1025,3,1,445,7,1,1,0,857
1026,3,1,446,7,1,1,1,1048
1027,3,1,448,7,1,1,0,1104
1028,3,1,449,7,1,1,1,1474
1029,3,1,450,5,0,0,1,1164
1030,3,1,451,9,1,1,1,685
1031,3,1,452,2,0,0,1,919
1032,3,1,453,11,1,1,1,597
1033,3,1,456,2,1,1,0,402
1034,3,1,458,7,1,1,1,631
1035,3,1,459,5,1,1,1,490
1036,3,1,460,11,1,1,1,1232
1037,3,1,461,11,0,0,1,915
1038,3,1,464,5,1,1,1,1131
1039,3,1,465,9,0,0,1,924
1040,3,1,466,7,0,0,1,861
1041,3,1,469,7,1,1,0,1061
1042,3,1,470,7,1,1,1,645
1043,3,1,471,5,0,0,0,480
1044,3,1,472,7,0,0,1,1381
1045,3,1,473,2,1,1,1,641
1046,3,1,475,7,1,1,1,662
1047,3,1,476,7,1,1,1,1489
1048,3,1,477,9,1,1,1,1236
1049,3,1,480,11,0,0,1,1351
1050,3,1,481,7,1,1,1,518
1051,3,1,482,5,0,0,1,1641
1052,3,1,483,7,1,1,1,497
1053,3,1,484,5,1,1,1,1452
1054,3,1,485,5,1,1,1,460
1055,3,1,486,2,0,0,1,639
1056,3,1,487,11,1,1,1,853
1057,3,1,488,11,0,0,1,1043
1058,3,1,489,2,0,0,1,812
1059,3,1,492,9,0,0,1,465
1060,3,1,493,9,0,0,1,550
1061,3,1,495,11,0,0,1,1403
1062,3,1,496,5,1,1,1,617
1063,3,1,497,5,1,1,1,668
1064,3,1,498,2,0,0,1,1270
1065,3,1,499,5,1,1,1,605
1066,3,1,501,7,0,0,1,1618
1067,3,1,502,9,1,1,0,539
1068,3,1,506,7,1,1,1,1007
1069,3,1,507,7,0,0,1,1107
1070,3,1,508,5,1,1,0,1219
1071,3,1,510,11,0,0,1,2543
1072,3,1,511,5,1,1,1,789
1073,3,1,513,2,1,1,0,547
1074,3,1,514,11,0,0,1,1001
1075,3,1,515,7,0,0,1,679
1076,3,1,516,9,1,1,1,446
1077,3,1,519,2,1,1,1,513
1078,3,1,521,7,0,0,1,992
1079,3,1,522,2,0,0,1,601
1080,3,1,523,7,1,1,1,691
1081,3,1,524,2,0,0,1,1057
1082,3,1,525,11,0,0,1,972
1083,3,1,526,5,0,0,1,890
1084,3,1,527,5,1,1,1,679
1085,3,1,528,7,1,1,1,1448
1086,3,1,530,5,0,0,1,680
1087,3,1,531,2,1,1,1,446
1088,3,1,532,2,0,0,1,468
1089,3,1,533,7,1,1,1,702
1090,3,1,534,7,0,0,1,789
1091,3,1,535,9,0,0,1,687
1092,3,1,536,7,0,0,1,833
1093,3,1,538,7,0,0,1,887
1094,3,1,539,9,0,0,1,1316
1095,3,1,540,2,0,0,1,347
1096,3,1,541,2,0,0,1,402
1097,3,1,543,2,1,1,1,643
1098,3,1,546,7,0,0,1,976
1099,3,1,547,9,0,0,1,1408
1100,3,1,548,7,0,0,1,726
1101,3,1,551,7,1,1,1,481
1102,3,1,552,7,1,1,1,430
1103,3,1,553,7,1,1,1,613
1104,3,1,554,7,1,1,1,849
1105,3,1,555,2,0,0,1,546
1106,3,1,557,5,1,1,1,1360
1107,3,1,558,9,1,1,1,1043
1108,3,1,560,5,1,1,1,466
1109,3,1,561,11,0,0,1,1826
1110,3,1,564,2,1,1,1,510
1111,3,1,565,11,1,1,1,492
1112,3,1,566,11,0,0,1,2429
1113,3,1,567,2,1,1,1,697
1114,3,1,568,11,0,0,1,1635
1115,3,1,569,9,1,1,1,731
1116,3,1,570,9,1,1,1,943
1117,3,1,574,5,1,1,0,940
1118,3,1,575,11,0,0,1,1673
1119,3,1,576,7,1,1,1,582
1120,3,1,578,9,1,1,1,696
1121,3,1,579,9,1,1,1,861
1122,3,1,581,11,0,0,1,1909
1123,3,1,582,7,0,0,1,892
1124,3,1,583,5,0,0,1,984
1125,3,1,584,2,0,0,1,605
1126,3,1,585,5,0,0,1,674
1127,3,1,586,2,1,1,1,798
1128,3,1,588,11,0,0,1,686
1129,3,1,590,2,1,1,1,401
1130,3,1,591,2,0,0,1,594
1131,3,1,592,11,0,0,1,1247
1132,3,1,594,2,1,1,0,409
1133,3,1,595,11,0,0,1,1859
1134,3,1,596,9,0,0,1,762
1135,3,1,597,9,0,0,1,1314
1136,3,1,598,7,1,1,1,1056
1137,3,1,600,2,1,1,1,476
1138,3,1,601,5,0,0,1,1140
1139,3,1,602,5,0,0,1,1289
1140,3,1,604,5,1,1,1,750
1141,3,1,605,5,1,1,1,560
1142,3,1,606,5,0,0,1,1564
1143,3,1,607,7,1,1,0,633
1144,3,1,608,2,1,1,1,382
1145,3,1,610,9,1,1,1,779
1146,3,1,611,7,0,0,1,1394
1147,3,1,612,2,0,0,1,661
1148,3,1,614,11,1,1,1,839
1149,3,1,615,5,0,0,1,676
1150,3,1,616,2,0,0,1,568
1151,3,1,619,5,1,1,1,643
1152,3,1,620,2,1,1,1,1188
1153,3,1,621,5,1,1,1,419
1154,3,1,623,9,1,1,1,617
1155,3,1,624,9,1,1,1,483
1156,3,1,625,5,0,0,1,691
1157,3,1,626,5,0,0,1,790
1158,3,1,630,11,1,1,1,577
1159,3,1,632,9,0,0,0,359
1160,3,1,633,11,0,0,0,548
1161,3,1,634,5,0,0,1,401
1162,3,1,635,7,0,0,1,813
1163,3,1,636,2,1,1,1,495
1164,3,1,637,11,0,0,1,850
1165,3,1,638,5,1,1,1,610
1166,3,1,639,5,0,0,1,838
1167,3,1,640,9,0,0,1,950
1168,3,1,641,2,0,0,1,1080
1169,3,1,642,5,0,0,1,490
1170,3,1,644,5,1,1,1,775
1171,3,1,646,5,0,0,1,686
1172,3,1,648,7,1,1,1,565
1173,3,1,650,9,1,1,1,480
1174,3,1,651,9,0,0,0,425
1175,3,1,653,9,0,0,1,1560
1176,3,1,654,5,0,0,1,482
1177,3,1,655,11,0,0,1,420
1178,3,1,656,9,1,1,0,503
1179,3,1,657,7,1,1,0,637
1180,3,1,658,11,1,1,0,926
1181,3,1,663,7,1,1,1,553
1182,3,1,664,9,0,0,1,886
1183,3,1,666,7,0,0,1,836
1184,3,1,667,7,0,0,1,998
1185,3,1,669,11,0,0,1,356
1186,3,1,670,9,1,1,0,874
1187,3,1,671,9,0,0,1,853
1188,3,1,672,7,1,1,1,1443
1189,3,1,673,7,0,0,1,1043
1190,3,1,674,2,1,1,1,455
1191,3,1,675,11,0,0,1,1106
1192,3,1,676,5,1,1,0,400
1193,3,1,679,7,1,1,1,709
1194,3,1,682,11,1,1,1,611
1195,3,1,683,5,1,1,1,436
1196,3,1,685,5,0,0,1,811
1197,3,1,686,11,1,1,1,1136
1198,3,1,687,11,0,0,1,1378
1199,3,1,688,11,0,0,1,1567
1200,3,1,689,5,0,0,1,750
1201,5,1,1,11,0,0,1,1972
1202,5,1,2,11,1,1,1,1831
1203,5,1,3,11,1,1,1,1034
1204,5,1,4,9,0,0,1,1279
1205,5,1,5,3,0,0,1,674
1206,5,1,6,9,0,0,1,1276
1207,5,1,7,7,0,0,1,867
1208,5,1,8,7,0,0,1,966
1209,5,1,9,2,0,0,1,640
1210,5,1,10,5,1,1,1,942
1211,5,1,11,5,0,0,1,824
1212,5,1,12,7,0,0,1,1001
1213,5,1,13,3,0,0,1,828
1214,5,1,14,5,1,1,1,857
1215,5,1,15,2,0,0,1,460
1216,5,1,16,3,0,0,1,574
1217,5,1,17,5,0,0,1,962
1218,5,1,18,3,0,0,1,456
1219,5,1,19,9,1,1,1,768
1220,5,1,20,9,0,0,1,1568
1221,5,1,21,11,0,0,1,2384
1222,5,1,22,3,0,0,1,523
1223,5,1,23,11,0,0,1,1746
1224,5,1,24,2,0,0,1,476
1225,5,1,25,9,1,1,1,579
1226,5,1,26,2,0,0,1,429
1227,5,1,27,3,0,0,1,532
1228,5,1,28,9,1,1,1,1091
1229,5,1,29,2,0,0,1,437
1230,5,1,30,3,0,0,1,423
1231,5,1,31,7,0,0,1,1059
1232,5,1,32,9,0,0,1,1544
1233,5,1,33,3,1,1,1,614
1234,5,1,34,11,0,0,1,1739
1235,5,1,35,2,1,1,1,616
1236,5,1,36,5,1,1,1,738
1237,5,1,37,3,1,1,1,804
1238,5,1,38,5,1,1,1,565
1239,5,1,39,7,1,1,1,463
1240,5,1,40,2,1,1,1,462
1241,5,1,41,3,1,1,1,712
1242,5,1,42,3,1,1,1,478
1243,5,1,43,11,0,0,1,2060
1244,5,1,44,3,0,0,1,904
1245,5,1,45,3,1,1,1,529
1246,5,1,46,5,0,0,1,847
1247,5,1,47,7,0,0,1,1090
1248,5,1,48,2,0,0,1,383
1249,5,1,49,3,0,0,1,419
1250,5,1,50,7,1,1,1,745
1251,5,1,51,5,0,0,1,735
1252,5,1,52,2,1,1,0,404
1253,5,1,53,2,0,0,1,689
1254,5,1,54,7,1,1,1,633
1255,5,1,55,7,0,0,1,999
1256,5,1,56,9,1,1,1,1029
1257,5,1,57,11,1,1,1,1077
1258,5,1,58,11,1,1,1,558
1259,5,1,59,3,1,1,1,627
1260,5,1,60,2,1,1,1,369
1261,5,1,61,9,1,1,1,989
1262,5,1,62,7,0,0,1,1110
1263,5,1,63,9,1,1,1,568
1264,5,1,64,11,0,0,1,1214
1265,5,1,65,9,1,1,1,513
1266,5,1,66,7,0,0,1,1057
1267,5,1,67,5,0,0,1,906
1268,5,1,68,2,1,1,1,513
1269,5,1,69,3,0,0,1,640
1270,5,1,70,7,0,0,1,784
1271,5,1,71,3,1,1,1,554
1272,5,1,72,9,0,0,1,1129
1273,5,1,73,5,0,0,1,637
1274,5,1,74,5,1,1,1,611
1275,5,1,75,3,0,0,1,558
1276,5,1,76,11,0,0,1,1335
1277,5,1,77,5,1,1,0,977
1278,5,1,78,11,1,1,1,1222
1279,5,1,79,5,0,0,1,817
1280,5,1,80,11,1,1,1,612
1281,5,1,81,7,1,1,1,873
1282,5,1,82,3,1,1,1,602
1283,5,1,83,7,1,1,1,592
1284,5,1,84,7,1,1,1,912
1285,5,1,85,2,0,0,1,632
1286,5,1,86,3,0,0,1,753
1287,5,1,87,5,1,1,1,545
1288,5,1,88,2,0,0,1,548
1289,5,1,89,3,0,0,1,561
1290,5,1,90,2,1,1,1,449
1291,5,1,91,5,0,0,1,826
1292,5,1,92,3,1,1,1,561
1293,5,1,93,3,1,1,1,616
1294,5,1,94,3,0,0,1,705
1295,5,1,95,11,0,0,1,1890
1296,5,1,96,7,1,1,1,670
1297,5,1,97,2,1,1,1,517
1298,5,1,98,3,1,1,1,461
1299,5,1,99,9,1,1,1,1029
1300,5,1,100,9,1,1,1,1062
1301,5,1,101,2,0,0,1,469
1302,5,1,102,2,1,1,1,437
1303,5,1,103,9,0,0,1,1246
1304,5,1,104,3,0,0,1,531
1305,5,1,105,3,0,0,1,467
1306,5,1,106,3,1,1,1,593
1307,5,1,107,3,1,1,1,667
1308,5,1,108,5,0,0,1,823
1309,5,1,109,11,1,1,1,550
1310,5,1,110,5,0,0,1,943
1311,5,1,111,3,0,0,1,434
1312,5,1,112,11,1,1,1,472
1313,5,1,113,7,1,1,1,522
1314,5,1,114,5,1,1,1,963
1315,5,1,115,11,0,0,1,1370
1316,5,1,116,3,1,1,1,877
1317,5,1,117,2,0,0,1,489
1318,5,1,118,5,0,0,0,640
1319,5,1,119,11,0,0,1,1408
1320,5,1,120,2,0,0,1,559
1321,5,1,121,2,0,0,1,441
1322,5,1,122,7,0,0,1,1352
1323,5,1,123,3,0,0,1,399
1324,5,1,124,5,1,1,1,870
1325,5,1,125,7,0,0,1,815
1326,5,1,126,5,1,1,1,683
1327,5,1,127,3,0,0,1,551
1328,5,1,128,7,1,1,1,1192
1329,5,1,129,9,1,1,1,907
1330,5,1,130,2,0,0,1,467
1331,5,1,131,5,1,1,1,601
1332,5,1,132,3,1,1,1,462
1333,5,1,133,2,1,1,1,473
1334,5,1,134,5,1,1,1,511
1335,5,1,135,2,0,0,1,450
1336,5,1,136,7,1,1,1,1013
1337,5,1,137,7,1,1,1,536
1338,5,1,138,2,1,1,1,427
1339,5,1,139,11,1,1,1,877
1340,5,1,140,3,0,0,1,539
1341,5,1,141,7,1,1,1,844
1342,5,1,142,3,1,1,1,395
1343,5,1,143,7,0,0,1,1332
1344,5,1,144,9,1,1,1,931
1345,5,1,145,2,0,0,1,436
1346,5,1,146,2,1,1,1,325
1347,5,1,147,3,0,0,1,478
1348,5,1,148,11,1,1,1,565
1349,5,1,149,7,0,0,1,752
1350,5,1,150,3,1,1,1,634
1351,5,1,151,11,0,0,1,1250
1352,5,1,152,3,0,0,1,468
1353,5,1,153,5,1,1,1,586
1354,5,1,154,5,1,1,1,443
1355,5,1,155,7,1,1,1,429
1356,5,1,156,3,1,1,1,384
1357,5,1,157,7,0,0,1,944
1358,5,1,158,9,1,1,1,794
1359,5,1,159,7,0,0,1,967
1360,5,1,160,3,0,0,1,541
1361,5,1,161,11,0,0,1,1646
1362,5,1,162,3,0,0,1,520
1363,5,1,163,2,0,0,1,432
1364,5,1,164,3,1,1,1,536
1365,5,1,165,11,0,0,1,1711
1366,5,1,166,9,0,0,1,1158
1367,5,1,167,11,0,0,1,1619
1368,5,1,168,7,1,1,1,1099
1369,5,1,169,9,1,1,1,1169
1370,5,1,170,7,1,1,1,669
1371,5,1,171,7,1,1,1,1079
1372,5,1,172,7,0,0,1,1127
1373,5,1,173,3,1,1,1,497
1374,5,1,174,9,0,0,1,1182
1375,5,1,175,2,1,1,1,425
1376,5,1,176,9,0,0,1,1843
1377,5,1,177,3,1,1,1,540
1378,5,1,178,9,0,0,1,1495
1379,5,1,179,11,0,0,1,1793
1380,5,1,180,11,1,1,1,759
1381,5,1,181,2,1,1,1,381
1382,5,1,182,5,0,0,1,644
1383,5,1,183,7,0,0,1,667
1384,5,1,184,3,1,1,1,496
1385,5,1,185,11,0,0,1,1428
1386,5,1,186,7,1,1,1,567
1387,5,1,187,11,1,1,1,1367
1388,5,1,188,7,1,1,1,608
1389,5,1,189,2,0,0,1,495
1390,5,1,190,2,0,0,0,389
1391,5,1,191,3,1,1,1,560
1392,5,1,192,3,0,0,1,667
1393,5,1,193,5,1,1,1,1109
1394,5,1,194,2,0,0,1,436
1395,5,1,195,9,0,0,1,1824
1396,5,1,196,9,1,1,1,1831
1397,5,1,197,2,1,1,1,558
1398,5,1,198,5,0,0,1,710
1399,5,1,199,3,1,1,1,604
1400,5,1,200,2,0,0,1,441
1401,5,1,201,3,0,0,1,634
1402,5,1,202,3,1,1,1,519
1403,5,1,203,11,0,0,1,1572
1404,5,1,204,11,0,0,1,1266
1405,5,1,205,11,1,1,1,1667
1406,5,1,206,5,0,0,1,1180
1407,5,1,207,9,1,1,1,906
1408,5,1,208,11,1,1,1,2024
1409,5,1,209,5,0,0,1,707
1410,5,1,210,9,1,1,1,640
1411,5,1,211,5,1,1,1,819
1412,5,1,212,3,1,1,1,620
1413,5,1,213,9,0,0,1,1562
1414,5,1,214,2,1,1,1,492
1415,5,1,215,7,1,1,1,580
1416,5,1,216,11,1,1,1,561
1417,5,1,217,5,1,1,1,635
1418,5,1,218,5,0,0,1,918
1419,5,1,219,3,1,1,1,478
1420,5,1,220,11,1,1,1,1014
1421,5,1,221,3,1,1,1,487
1422,5,1,222,3,1,1,1,438
1423,5,1,223,7,1,1,1,687
1424,5,1,224,9,0,0,1,1905
1425,5,1,225,3,1,1,1,579
1426,5,1,226,3,1,1,1,581
1427,5,1,227,9,1,1,1,1382
1428,5,1,228,11,0,0,1,1468
1429,5,1,229,11,1,1,1,1385
1430,5,1,230,5,0,0,1,882
1431,5,1,231,9,0,0,1,2289
1432,5,1,232,5,1,1,1,512
1433,5,1,233,11,0,0,1,1251
1434,5,1,234,3,1,1,1,552
1435,5,1,235,2,0,0,1,538
1436,5,1,236,3,0,0,1,528
1437,5,1,237,11,0,0,1,1260
1438,5,1,238,9,1,1,1,781
1439,5,1,239,3,1,1,1,432
1440,5,1,240,9,1,1,1,838
1441,5,1,241,5,0,0,1,843
1442,5,1,242,7,1,1,1,1288
1443,5,1,243,11,1,1,1,544
1444,5,1,244,9,1,1,1,482
1445,5,1,245,2,0,0,1,682
1446,5,1,246,9,0,0,1,2052
1447,5,1,247,3,0,0,1,522
1448,5,1,248,5,0,0,1,984
1449,5,1,249,11,0,0,1,1339
1450,5,1,250,3,0,0,1,528
1451,5,1,251,3,1,1,1,588
1452,5,1,252,3,1,1,1,449
1453,5,1,253,11,1,1,1,1398
1454,5,1,254,2,0,0,1,656
1455,5,1,255,7,0,0,1,980
1456,5,1,256,5,0,0,1,908
1457,5,1,257,5,0,0,1,1378
1458,5,1,258,7,0,0,1,1051
1459,5,1,259,2,1,1,1,642
1460,5,1,260,3,1,1,1,758
1461,5,1,261,5,0,0,1,955
1462,5,1,262,3,0,0,1,566
1463,5,1,263,3,0,0,1,753
1464,5,1,264,2,1,1,1,509
1465,5,1,265,11,1,1,1,852
1466,5,1,266,3,1,1,1,527
1467,5,1,267,9,1,1,1,604
1468,5,1,268,3,0,0,1,670
1469,5,1,269,9,1,1,1,728
1470,5,1,270,3,1,1,1,561
1471,5,1,271,3,1,1,1,780
1472,5,1,272,3,1,1,1,471
1473,5,1,273,3,0,0,1,766
1474,5,1,274,2,1,1,1,476
1475,5,1,275,3,1,1,1,393
1476,5,1,276,3,1,1,1,637
1477,5,1,277,3,0,0,1,843
1478,5,1,278,7,0,0,1,1664
1479,5,1,279,9,0,0,1,1392
1480,5,1,280,11,0,0,1,1211
1481,5,1,281,3,0,0,1,408
1482,5,1,282,3,1,1,0,515
1483,5,1,283,9,0,0,1,1275
1484,5,1,284,11,0,0,1,1081
1485,5,1,285,3,0,0,1,1055
1486,5,1,286,2,0,0,1,489
1487,5,1,287,11,1,1,1,1412
1488,5,1,288,3,1,1,1,579
1489,5,1,289,2,1,1,1,414
1490,5,1,290,3,0,0,0,406
1491,5,1,291,11,1,1,1,877
1492,5,1,292,5,0,0,1,1185
1493,5,1,293,2,1,1,1,625
1494,5,1,294,3,0,0,1,596
1495,5,1,295,3,1,1,1,578
1496,5,1,296,9,1,1,1,526
1497,5,1,297,9,1,1,1,630
1498,5,1,298,3,1,1,1,631
1499,5,1,299,9,0,0,1,987
1500,5,1,300,9,0,0,1,1354
1501,5,1,301,11,1,1,1,1004
1502,5,1,302,3,1,1,1,608
1503,5,1,303,11,1,1,1,1069
1504,5,1,304,5,1,1,1,595
1505,5,1,305,3,1,1,1,756
1506,5,1,306,5,1,1,1,1036
1507,5,1,307,7,0,0,1,1674
1508,5,1,308,9,0,0,1,1457
1509,5,1,309,3,1,1,1,763
1510,5,1,310,7,0,0,1,1018
1511,5,1,311,2,1,1,1,597
1512,5,1,312,3,0,0,1,643
1513,5,1,313,7,1,1,1,1206
1514,5,1,314,7,1,1,1,501
1515,5,1,315,11,0,0,1,1398
1516,5,1,316,9,0,0,1,1127
1517,5,1,317,7,0,0,1,952
1518,5,1,318,2,1,1,1,647
1519,5,1,319,2,0,0,1,710
1520,5,1,320,7,1,1,1,1036
1521,5,1,321,11,0,0,1,1563
1522,5,1,322,11,1,1,1,967
1523,5,1,323,9,1,1,1,774
1524,5,1,324,3,1,1,1,741
1525,5,1,325,9,1,1,1,1951
1526,5,1,326,11,0,0,1,1792
1527,5,1,327,11,0,0,1,3694
1528,5,1,328,9,0,0,1,1447
1529,5,1,329,7,0,0,1,1387
1530,5,1,330,3,0,0,1,487
1531,5,1,331,9,1,1,1,908
1532,5,1,332,9,0,0,1,1167
1533,5,1,333,3,1,1,1,616
1534,5,1,334,9,0,0,1,1203
1535,5,1,335,2,0,0,1,493
1536,5,1,336,5,0,0,1,719
1537,5,1,337,3,0,0,1,483
1538,5,1,338,3,1,1,1,773
1539,5,1,339,7,1,1,1,765
1540,5,1,340,11,0,0,1,1245
1541,5,1,341,9,0,0,1,1202
1542,5,1,342,9,0,0,1,1511
1543,5,1,343,7,1,1,1,790
1544,5,1,344,3,0,0,1,572
1545,5,1,345,3,0,0,1,1290
1546,5,1,346,3,0,0,1,557
1547,5,1,347,9,0,0,1,1083
1548,5,1,348,3,0,0,1,464
1549,5,1,349,3,0,0,1,372
1550,5,1,350,5,1,1,0,1003
1551,5,1,351,2,0,0,1,496
1552,5,1,352,7,1,1,1,520
1553,5,1,353,2,1,1,1,385
1554,5,1,354,11,0,0,1,836
1555,5,1,355,9,1,1,1,623
1556,5,1,356,11,0,0,1,1382
1557,5,1,357,7,1,1,1,715
1558,5,1,358,7,1,1,1,547
1559,5,1,359,11,0,0,1,1681
1560,5,1,360,5,0,0,1,948
1561,5,1,361,7,0,0,1,865
1562,5,1,362,3,0,0,1,901
1563,5,1,363,3,0,0,1,580
1564,5,1,367,5,0,0,1,827
1565,5,1,368,5,1,1,1,1151
1566,5,1,369,5,1,1,1,552
1567,5,1,371,5,1,1,1,521
1568,5,1,372,11,1,1,1,749
1569,5,1,373,7,0,0,1,1328
1570,5,1,375,7,1,1,1,864
1571,5,1,376,7,0,0,1,951
1572,5,1,377,7,0,0,1,1339
1573,5,1,378,2,0,0,1,754
1574,5,1,379,9,1,1,1,1385
1575,5,1,380,2,1,1,1,515
1576,5,1,381,5,1,1,0,576
1577,5,1,382,2,1,1,1,549
1578,5,1,384,9,0,0,1,1723
1579,5,1,386,7,1,1,1,807
1580,5,1,387,7,1,1,1,676
1581,5,1,388,9,1,1,1,623
1582,5,1,389,9,1,1,1,938
1583,5,1,392,11,1,1,1,918
1584,5,1,393,11,1,1,1,983
1585,5,1,394,9,0,0,1,910
1586,5,1,396,7,0,0,1,1022
1587,5,1,398,5,0,0,1,599
1588,5,1,403,11,0,0,1,1619
1589,5,1,404,2,0,0,1,960
1590,5,1,405,9,0,0,1,1476
1591,5,1,407,7,1,1,1,930
1592,5,1,409,2,0,0,1,454
1593,5,1,410,7,0,0,1,1177
1594,5,1,411,7,1,1,1,859
1595,5,1,412,11,0,0,1,1675
1596,5,1,414,11,0,0,1,1634
1597,5,1,415,2,0,0,1,908
1598,5,1,416,7,0,0,1,1149
1599,5,1,417,11,0,0,1,1137
1600,5,1,418,2,0,0,1,410
1601,5,1,419,7,0,0,1,678
1602,5,1,420,5,0,0,1,707
1603,5,1,422,2,1,1,1,519
1604,5,1,423,2,1,1,1,425
1605,5,1,424,2,0,0,1,520
1606,5,1,425,7,1,1,1,903
1607,5,1,426,7,1,1,1,981
1608,5,1,427,5,1,1,1,499
1609,5,1,428,11,0,0,1,1478
1610,5,1,429,9,1,1,1,930
1611,5,1,430,2,0,0,1,398
1612,5,1,433,2,1,1,1,525
1613,5,1,437,11,0,0,1,839
1614,5,1,438,9,1,1,1,769
1615,5,1,439,5,1,1,1,605
1616,5,1,440,7,0,0,1,638
1617,5,1,444,5,1,1,1,1255
1618,5,1,445,11,1,1,1,802
1619,5,1,446,5,0,0,1,566
1620,5,1,448,11,0,0,1,761
1621,5,1,449,9,1,1,1,857
1622,5,1,450,2,0,0,1,495
1623,5,1,451,5,1,1,1,527
1624,5,1,452,9,0,0,1,1093
1625,5,1,453,5,0,0,1,650
1626,5,1,454,5,0,0,1,923
1627,5,1,455,9,1,1,1,1125
1628,5,1,458,7,1,1,1,1025
1629,5,1,460,9,0,0,1,1135
1630,5,1,461,7,1,1,1,607
1631,5,1,462,7,1,1,1,649
1632,5,1,463,11,0,0,1,1462
1633,5,1,464,7,0,0,1,1345
1634,5,1,465,2,1,1,1,590
1635,5,1,466,9,0,0,1,1259
1636,5,1,467,5,1,1,1,611
1637,5,1,468,7,0,0,1,1278
1638,5,1,469,7,1,1,1,579
1639,5,1,470,9,1,1,1,1263
1640,5,1,472,11,1,1,1,1393
1641,5,1,473,5,0,0,1,690
1642,5,1,475,9,1,1,1,658
1643,5,1,477,9,0,0,1,1045
1644,5,1,478,7,0,0,1,918
1645,5,1,481,5,1,1,1,628
1646,5,1,482,2,1,1,1,587
1647,5,1,483,9,1,1,1,853
1648,5,1,484,11,1,1,1,995
1649,5,1,485,5,0,0,1,1295
1650,5,1,486,9,0,0,1,1318
1651,5,1,487,11,0,0,1,1380
1652,5,1,488,9,1,1,1,860
1653,5,1,489,7,0,0,1,814
1654,5,1,490,11,0,0,1,1075
1655,5,1,491,11,0,0,1,1146
1656,5,1,492,11,1,1,1,1379
1657,5,1,493,2,1,1,1,567
1658,5,1,494,2,0,0,1,699
1659,5,1,495,9,0,0,1,1240
1660,5,1,496,2,1,1,1,515
1661,5,1,497,5,1,1,1,526
1662,5,1,499,5,1,1,1,464
1663,5,1,502,11,1,1,1,450
1664,5,1,503,11,0,0,1,1276
1665,5,1,505,2,1,1,1,455
1666,5,1,506,7,0,0,1,989
1667,5,1,507,2,1,1,1,765
1668,5,1,509,11,1,1,1,680
1669,5,1,510,2,0,0,1,485
1670,5,1,511,5,0,0,1,781
1671,5,1,515,5,0,0,1,870
1672,5,1,516,9,0,0,1,1401
1673,5,1,517,2,1,1,1,1496
1674,5,1,519,5,0,0,1,1078
1675,5,1,520,7,0,0,1,1055
1676,5,1,521,5,1,1,1,713
1677,5,1,522,11,0,0,1,1215
1678,5,1,523,11,0,0,1,1284
1679,5,1,524,7,0,0,1,1534
1680,5,1,525,9,1,1,1,775
1681,5,1,526,5,0,0,1,929
1682,5,1,530,11,0,0,1,1627
1683,5,1,531,7,0,0,1,1559
1684,5,1,534,9,0,0,1,1919
1685,5,1,535,5,1,1,1,478
1686,5,1,537,5,1,1,1,565
1687,5,1,538,9,1,1,1,521
1688,5,1,539,11,1,1,1,526
1689,5,1,540,9,0,0,1,1781
1690,5,1,542,11,0,0,1,2229
1691,5,1,544,2,0,0,1,397
1692,5,1,545,9,0,0,1,1181
1693,5,1,546,5,0,0,1,760
1694,5,1,547,2,1,1,1,662
1695,5,1,552,11,1,1,1,963
1696,5,1,553,9,1,1,1,854
1697,5,1,555,2,1,1,1,469
1698,5,1,556,5,0,0,1,1021
1699,5,1,557,9,1,1,1,462
1700,5,1,559,11,1,1,1,491
1701,5,1,560,5,1,1,1,553
1702,5,1,561,11,0,0,1,1280
1703,5,1,562,11,0,0,1,1028
1704,5,1,565,9,1,1,1,582
1705,5,1,567,7,0,0,1,1223
1706,5,1,568,2,1,1,1,484
1707,5,1,570,9,0,0,1,1229
1708,5,1,571,2,1,1,1,1229
1709,5,1,572,5,1,1,1,1220
1710,5,1,573,2,1,1,1,1056
1711,5,1,574,2,0,0,1,681
1712,5,1,575,9,0,0,1,1246
1713,5,1,576,11,1,1,1,885
1714,5,1,577,5,0,0,1,716
1715,5,1,579,5,1,1,1,583
1716,5,1,580,9,0,0,1,1332
1717,5,1,581,5,1,1,1,522
1718,5,1,582,9,1,1,1,937
1719,5,1,583,5,1,1,1,753
1720,5,1,584,7,1,1,1,538
1721,5,1,586,5,1,1,1,819
1722,5,1,587,9,0,0,1,1197
1723,5,1,588,2,1,1,1,1027
1724,5,1,589,5,0,0,1,938
1725,5,1,591,7,1,1,1,706
1726,5,1,592,5,0,0,1,566
1727,5,1,593,5,0,0,1,1182
1728,5,1,594,2,0,0,1,524
1729,5,1,595,5,1,1,1,674
1730,5,1,597,7,1,1,1,863
1731,5,1,598,11,0,0,1,2418
1732,5,1,601,2,0,0,1,1615
1733,5,1,602,9,1,1,1,763
1734,5,1,603,2,1,1,1,582
1735,5,1,604,2,1,1,1,510
1736,5,1,605,11,1,1,1,934
1737,5,1,606,7,0,0,1,1496
1738,5,1,607,7,0,0,1,1180
1739,5,1,608,2,0,0,1,511
1740,5,1,609,7,0,0,1,622
1741,5,1,610,7,0,0,1,1012
1742,5,1,611,7,1,1,1,831
1743,5,1,616,7,0,0,1,1685
1744,5,1,618,5,0,0,1,780
1745,5,1,622,5,1,1,1,748
1746,5,1,623,2,1,1,1,424
1747,5,1,624,2,1,1,1,426
1748,5,1,625,11,0,0,1,1598
1749,5,1,626,5,1,1,1,942
1750,5,1,627,2,0,0,1,681
1751,5,1,629,5,0,0,1,637
1752,5,1,630,2,0,0,1,432
1753,5,1,631,7,1,3,0,1249
1754,5,1,632,7,0,0,1,1122
1755,5,1,633,2,0,0,1,588
1756,5,1,634,5,1,1,1,717
1757,5,1,636,9,0,0,1,1040
1758,5,1,637,7,1,1,1,551
1759,5,1,638,2,0,0,1,414
1760,5,1,639,5,0,0,1,610
1761,5,1,641,9,0,0,1,1415
1762,5,1,643,9,0,0,1,1185
1763,5,1,644,9,1,1,1,1984
1764,5,1,645,11,1,1,1,1269
1765,5,1,646,9,1,1,1,2085
1766,5,1,647,11,0,0,1,3437
1767,5,1,649,9,0,0,1,1586
1768,5,1,650,5,0,0,1,431
1769,5,1,651,2,1,1,1,543
1770,5,1,652,7,1,1,1,656
1771,5,1,654,9,0,0,1,1687
1772,5,1,656,5,0,0,1,620
1773,5,1,658,11,0,0,1,1141
1774,5,1,659,7,0,0,1,689
1775,5,1,660,5,1,1,1,601
1776,5,1,661,5,1,1,1,610
1777,5,1,662,11,0,0,1,1164
1778,5,1,663,9,1,1,1,893
1779,5,1,664,2,1,1,1,448
1780,5,1,665,9,1,1,1,2008
1781,5,1,666,5,1,1,1,611
1782,5,1,667,5,1,1,1,397
1783,5,1,668,2,1,1,1,429
1784,5,1,669,2,1,1,1,430
1785,5,1,670,2,0,0,1,1066
1786,5,1,671,7,1,1,1,436
1787,5,1,672,5,0,0,1,789
1788,5,1,673,7,1,1,1,503
1789,5,1,674,2,1,1,1,408
1790,5,1,675,9,0,0,1,1427
1791,5,1,678,2,0,0,1,601
1792,5,1,680,11,0,0,1,1577
1793,5,1,681,11,0,0,1,1206
1794,5,1,682,7,1,1,1,1217
1795,5,1,683,2,0,0,1,616
1796,5,1,684,7,0,0,1,906
1797,5,1,685,5,0,0,1,801
1798,5,1,688,11,0,0,1,1309
1799,5,1,689,11,0,0,1,1094
1800,5,1,690,11,0,0,1,1041
1801,7,1,1,2,0,0,1,3352
1802,7,1,2,7,0,3,0,4992
1803,7,1,3,2,0,0,1,2395
1804,7,1,4,7,0,0,1,2643
1805,7,1,5,7,0,0,1,3095
1806,7,1,6,11,0,0,1,3154
1807,7,1,7,3,0,3,0,4991
1808,7,1,8,7,1,1,0,3345
1809,7,1,9,9,0,0,1,2779
1810,7,1,10,11,1,1,0,4684
1811,7,1,11,7,1,1,1,3572
1812,7,1,12,5,0,0,1,1171
1813,7,1,13,3,1,1,1,974
1814,7,1,14,9,0,0,1,1637
1815,7,1,15,5,0,0,1,1551
1816,7,1,16,2,1,1,1,1051
1817,7,1,17,5,0,0,1,1100
1818,7,1,18,3,1,1,1,806
1819,7,1,19,3,1,1,1,774
1820,7,1,20,3,0,0,1,822
1821,7,1,21,3,0,0,1,1071
1822,7,1,22,9,1,1,1,1148
1823,7,1,23,11,0,0,1,1733
1824,7,1,24,3,0,0,1,839
1825,7,1,25,2,0,0,1,667
1826,7,1,26,11,1,1,1,1368
1827,7,1,27,3,1,1,1,747
1828,7,1,28,7,1,1,1,1640
1829,7,1,29,3,0,0,1,1574
1830,7,1,30,9,1,1,1,933
1831,7,1,31,2,0,0,1,916
1832,7,1,32,3,1,1,1,775
1833,7,1,33,2,0,0,1,811
1834,7,1,34,11,0,0,1,2102
1835,7,1,35,7,1,1,1,1024
1836,7,1,36,3,1,1,1,860
1837,7,1,37,7,0,0,1,1069
1838,7,1,38,9,0,0,1,1506
1839,7,1,39,2,0,0,1,870
1840,7,1,40,3,1,1,1,863
1841,7,1,41,7,1,1,1,1739
1842,7,1,42,5,0,0,1,1110
1843,7,1,43,7,1,1,1,937
1844,7,1,44,5,1,1,1,904
1845,7,1,45,11,1,1,1,839
1846,7,1,46,9,1,1,1,885
1847,7,1,47,3,1,1,1,987
1848,7,1,48,2,0,0,1,997
1849,7,1,49,7,0,0,1,1156
1850,7,1,50,2,1,1,1,782
1851,7,1,51,11,0,0,1,2300
1852,7,1,52,3,0,0,1,907
1853,7,1,53,3,0,0,1,1377
1854,7,1,54,7,0,0,1,849
1855,7,1,55,9,1,1,1,1291
1856,7,1,56,5,0,0,1,688
1857,7,1,57,2,0,0,1,582
1858,7,1,58,2,1,1,1,584
1859,7,1,59,9,1,1,1,790
1860,7,1,60,7,0,0,1,977
1861,7,1,61,11,0,0,1,2083
1862,7,1,62,3,0,0,1,2077
1863,7,1,63,3,0,0,1,672
1864,7,1,64,5,1,1,1,786
1865,7,1,65,11,0,0,1,1464
1866,7,1,66,5,1,1,1,738
1867,7,1,67,7,1,1,1,649
1868,7,1,68,3,1,1,1,760
1869,7,1,69,5,1,1,1,772
1870,7,1,70,11,0,0,1,1920
1871,7,1,71,11,0,0,1,2134
1872,7,1,72,11,0,0,1,1414
1873,7,1,73,7,0,0,1,757
1874,7,1,74,5,0,0,1,813
1875,7,1,75,3,0,0,1,525
1876,7,1,76,2,1,1,1,634
1877,7,1,77,5,1,1,1,923
1878,7,1,78,2,0,0,1,647
1879,7,1,79,2,1,1,1,623
1880,7,1,80,5,1,1,1,653
1881,7,1,81,3,0,0,1,599
1882,7,1,82,9,0,0,1,1292
1883,7,1,83,9,1,1,1,1057
1884,7,1,84,3,1,1,1,780
1885,7,1,85,3,0,0,1,519
1886,7,1,86,5,1,1,1,774
1887,7,1,87,9,1,1,1,1394
1888,7,1,88,3,1,1,1,684
1889,7,1,89,11,0,0,1,1437
1890,7,1,90,5,0,0,1,1272
1891,7,1,91,5,1,1,1,783
1892,7,1,92,3,0,0,1,797
1893,7,1,93,9,0,0,1,1751
1894,7,1,94,3,1,1,1,839
1895,7,1,95,5,0,0,1,1144
1896,7,1,96,5,0,0,1,851
1897,7,1,97,9,1,1,1,810
1898,7,1,98,11,1,1,1,1688
1899,7,1,99,11,1,1,1,1266
1900,7,1,100,9,0,0,1,997
1901,7,1,101,11,1,1,1,1216
1902,7,1,102,9,0,0,1,1214
1903,7,1,103,2,1,1,1,702
1904,7,1,104,11,0,0,1,2090
1905,7,1,105,3,0,0,1,1116
1906,7,1,106,11,0,0,1,1656
1907,7,1,107,2,0,0,1,651
1908,7,1,108,3,1,1,1,660
1909,7,1,109,9,0,0,1,1944
1910,7,1,110,11,1,1,1,895
1911,7,1,111,7,1,1,1,784
1912,7,1,112,3,0,0,1,918
1913,7,1,113,7,0,0,1,1219
1914,7,1,114,2,0,0,1,738
1915,7,1,115,7,0,0,1,1263
1916,7,1,116,5,1,1,1,902
1917,7,1,117,5,1,1,1,926
1918,7,1,118,2,0,0,1,821
1919,7,1,119,11,1,1,1,1998
1920,7,1,120,2,1,1,1,748
1921,7,1,121,11,1,1,1,835
1922,7,1,122,11,1,1,1,637
1923,7,1,123,3,1,1,1,707
1924,7,1,124,11,1,1,1,1167
1925,7,1,125,2,1,1,1,462
1926,7,1,126,7,1,1,1,694
1927,7,1,127,9,1,1,1,921
1928,7,1,128,7,1,1,1,762
1929,7,1,129,7,1,1,1,645
1930,7,1,130,7,0,0,1,845
1931,7,1,131,9,0,0,1,1146
1932,7,1,132,5,0,0,1,980
1933,7,1,133,2,1,1,1,541
1934,7,1,134,3,1,1,1,695
1935,7,1,135,5,1,1,1,633
1936,7,1,136,7,1,1,0,1211
1937,7,1,137,5,1,1,1,2074
1938,7,1,138,11,0,0,1,2252
1939,7,1,139,3,1,1,1,988
1940,7,1,140,11,0,0,1,1152
1941,7,1,141,5,0,0,1,871
1942,7,1,142,2,0,0,1,694
1943,7,1,143,11,1,1,1,695
1944,7,1,144,5,0,0,1,616
1945,7,1,145,2,0,0,1,597
1946,7,1,146,5,0,0,1,1061
1947,7,1,147,3,1,1,1,910
1948,7,1,148,3,0,0,1,646
1949,7,1,149,11,0,0,1,2476
1950,7,1,150,2,1,1,1,1741
1951,7,1,151,3,0,0,1,643
1952,7,1,152,2,1,1,1,667
1953,7,1,153,3,0,0,1,874
1954,7,1,154,11,1,1,1,698
1955,7,1,155,2,0,0,1,577
1956,7,1,156,5,1,1,1,993
1957,7,1,157,9,1,1,1,680
1958,7,1,158,11,0,0,1,1033
1959,7,1,159,3,0,0,1,721
1960,7,1,160,9,0,0,1,1498
1961,7,1,161,2,0,0,1,1068
1962,7,1,162,11,1,1,1,894
1963,7,1,163,3,0,0,1,816
1964,7,1,164,9,1,1,1,651
1965,7,1,165,2,0,0,1,602
1966,7,1,166,2,0,0,1,474
1967,7,1,167,9,1,1,1,504
1968,7,1,168,11,0,0,1,1026
1969,7,1,169,11,0,0,1,1177
1970,7,1,170,5,0,0,1,764
1971,7,1,171,11,0,0,1,1258
1972,7,1,172,5,0,0,1,685
1973,7,1,173,3,1,1,1,572
1974,7,1,174,3,0,0,1,862
1975,7,1,175,3,1,1,1,740
1976,7,1,176,3,0,0,1,575
1977,7,1,177,5,1,1,1,924
1978,7,1,178,3,0,0,1,592
1979,7,1,179,9,1,1,1,819
1980,7,1,180,5,0,0,1,1057
1981,7,1,181,9,0,0,1,1409
1982,7,1,182,3,0,0,1,761
1983,7,1,183,9,1,1,1,1487
1984,7,1,184,9,0,0,1,1475
1985,7,1,185,7,1,1,1,1049
1986,7,1,186,11,1,1,1,1038
1987,7,1,187,11,0,0,1,1331
1988,7,1,188,9,1,1,1,739
1989,7,1,189,9,1,1,0,1377
1990,7,1,190,7,0,0,1,1601
1991,7,1,191,3,1,1,1,649
1992,7,1,192,3,0,0,1,1240
1993,7,1,193,9,0,0,1,1498
1994,7,1,194,7,0,0,1,971
1995,7,1,195,2,0,0,1,599
1996,7,1,196,3,0,0,1,475
1997,7,1,197,2,1,1,1,665
1998,7,1,198,2,0,0,1,503
1999,7,1,199,3,1,1,1,574
2000,7,1,200,5,1,1,1,631
2001,7,1,201,2,0,0,1,537
2002,7,1,202,7,1,1,1,1116
2003,7,1,203,3,1,1,1,690
2004,7,1,204,5,0,0,1,1344
2005,7,1,205,9,1,1,1,762
2006,7,1,206,7,1,1,1,635
2007,7,1,207,11,0,0,1,1141
2008,7,1,208,11,0,0,1,1220
2009,7,1,209,2,1,1,1,492
2010,7,1,210,9,0,0,1,986
2011,7,1,211,2,1,1,1,518
2012,7,1,212,2,0,0,1,517
2013,7,1,213,2,0,0,1,447
2014,7,1,214,2,1,1,1,593
2015,7,1,215,5,1,1,1,478
2016,7,1,216,11,0,0,1,996
2017,7,1,217,7,0,0,1,930
2018,7,1,218,2,1,1,1,528
2019,7,1,219,7,1,1,1,605
2020,7,1,220,7,1,1,1,644
2021,7,1,221,7,0,0,1,1311
2022,7,1,222,11,0,0,1,1133
2023,7,1,223,11,1,1,1,435
2024,7,1,224,5,1,1,0,829
2025,7,1,225,3,1,1,1,629
2026,7,1,226,3,0,0,1,854
2027,7,1,227,9,0,0,1,1025
2028,7,1,228,7,1,1,1,838
2029,7,1,229,3,0,0,1,581
2030,7,1,230,3,0,0,1,856
2031,7,1,231,9,0,0,1,1708
2032,7,1,232,9,1,1,1,607
2033,7,1,233,3,1,1,1,715
2034,7,1,234,2,1,1,1,446
2035,7,1,235,3,1,1,1,555
2036,7,1,236,7,0,0,1,1456
2037,7,1,237,2,1,1,1,551
2038,7,1,238,3,0,0,1,962
2039,7,1,239,5,1,1,1,708
2040,7,1,240,3,0,0,1,596
2041,7,1,241,11,0,0,1,1248
2042,7,1,242,5,0,0,1,616
2043,7,1,243,3,1,1,1,546
2044,7,1,244,3,0,0,1,1090
2045,7,1,245,7,1,1,1,918
2046,7,1,246,5,1,1,1,758
2047,7,1,247,9,0,0,1,1128
2048,7,1,248,9,1,1,1,908
2049,7,1,249,5,1,1,1,599
2050,7,1,250,2,1,1,1,597
2051,7,1,251,5,0,0,1,563
2052,7,1,252,2,1,1,1,562
2053,7,1,253,5,0,0,1,1012
2054,7,1,254,2,1,1,1,716
2055,7,1,255,11,0,0,1,1004
2056,7,1,256,9,0,0,1,1694
2057,7,1,257,7,0,0,1,946
2058,7,1,258,11,0,0,1,1252
2059,7,1,259,2,1,1,1,664
2060,7,1,260,9,1,1,1,854
2061,7,1,261,3,1,1,1,676
2062,7,1,262,11,1,1,1,1830
2063,7,1,263,9,0,0,1,983
2064,7,1,264,2,1,1,1,678
2065,7,1,265,3,1,1,1,576
2066,7,1,266,5,1,1,1,841
2067,7,1,267,11,1,1,1,1605
2068,7,1,268,5,0,0,1,976
2069,7,1,269,2,1,1,1,590
2070,7,1,270,3,0,0,1,1125
2071,7,1,271,11,0,0,1,1163
2072,7,1,272,7,1,1,1,558
2073,7,1,273,9,0,0,1,908
2074,7,1,274,2,1,1,1,587
2075,7,1,275,7,1,1,1,809
2076,7,1,276,3,0,0,1,532
2077,7,1,277,3,0,0,1,844
2078,7,1,278,3,1,1,1,528
2079,7,1,279,2,1,1,1,595
2080,7,1,280,3,0,0,1,625
2081,7,1,281,5,0,0,1,582
2082,7,1,282,9,1,1,1,1360
2083,7,1,283,11,1,1,1,884
2084,7,1,284,5,0,0,1,1154
2085,7,1,285,5,0,0,1,1297
2086,7,1,286,3,0,0,1,555
2087,7,1,287,3,0,0,1,786
2088,7,1,288,3,0,0,1,595
2089,7,1,289,3,0,0,1,703
2090,7,1,290,7,0,0,1,1013
2091,7,1,291,9,1,1,1,1718
2092,7,1,292,3,0,0,1,735
2093,7,1,293,11,1,1,1,1806
2094,7,1,294,3,0,0,1,1092
2095,7,1,295,2,1,1,1,678
2096,7,1,296,7,1,1,1,1361
2097,7,1,297,2,0,0,1,622
2098,7,1,298,3,0,0,1,1630
2099,7,1,299,5,1,1,1,572
2100,7,1,300,3,1,1,1,648
2101,7,1,301,3,0,0,1,454
2102,7,1,302,11,0,0,1,988
2103,7,1,303,3,0,0,1,460
2104,7,1,304,7,1,1,1,647
2105,7,1,305,9,1,1,1,1268
2106,7,1,306,11,1,1,1,1413
2107,7,1,307,2,1,1,1,567
2108,7,1,308,3,1,1,1,723
2109,7,1,309,3,0,0,1,737
2110,7,1,310,2,1,1,1,659
2111,7,1,311,3,1,1,1,587
2112,7,1,312,3,0,0,1,618
2113,7,1,313,9,1,1,1,1159
2114,7,1,314,3,1,1,1,511
2115,7,1,315,3,1,1,1,821
2116,7,1,316,3,1,1,1,589
2117,7,1,317,9,1,1,1,1035
2118,7,1,318,2,0,0,1,676
2119,7,1,319,7,1,1,1,1986
2120,7,1,320,7,0,0,1,801
2121,7,1,321,7,0,0,1,718
2122,7,1,322,9,1,1,1,758
2123,7,1,323,11,0,0,1,1199
2124,7,1,324,3,1,1,1,506
2125,7,1,325,9,0,0,1,614
2126,7,1,326,3,0,0,1,505
2127,7,1,327,3,0,0,1,508
2128,7,1,328,7,1,1,1,729
2129,7,1,329,3,1,1,1,755
2130,7,1,330,2,0,0,1,589
2131,7,1,331,7,0,0,1,984
2132,7,1,332,7,1,1,1,622
2133,7,1,333,2,1,1,1,534
2134,7,1,334,3,1,1,1,565
2135,7,1,335,11,0,0,1,1083
2136,7,1,336,3,0,0,1,1000
2137,7,1,337,5,0,0,1,1154
2138,7,1,338,2,1,1,1,515
2139,7,1,339,11,1,1,1,1271
2140,7,1,340,9,0,0,1,994
2141,7,1,341,2,1,1,1,503
2142,7,1,342,2,1,1,1,587
2143,7,1,343,3,1,1,1,469
2144,7,1,344,7,1,1,1,1350
2145,7,1,345,3,0,0,1,661
2146,7,1,346,3,1,1,1,1055
2147,7,1,347,3,1,1,1,788
2148,7,1,348,2,0,0,1,578
2149,7,1,349,11,0,0,1,1523
2150,7,1,350,3,1,1,1,493
2151,7,1,351,11,0,0,1,1782
2152,7,1,352,3,1,1,1,798
2153,7,1,353,7,1,1,1,738
2154,7,1,354,3,1,1,1,526
2155,7,1,355,9,0,0,1,1517
2156,7,1,356,7,0,0,1,1124
2157,7,1,357,2,0,0,1,527
2158,7,1,358,5,1,1,1,600
2159,7,1,359,9,0,0,1,772
2160,7,1,360,3,0,0,1,1943
2161,7,1,361,9,1,1,1,1622
2162,7,1,362,2,1,1,1,524
2163,7,1,363,3,0,0,1,847
2164,7,1,364,3,1,1,1,589
2165,7,1,365,5,1,1,1,948
2166,7,1,366,5,1,1,1,725
2167,7,1,367,5,0,0,1,905
2168,7,1,368,9,1,1,1,796
2169,7,1,369,5,0,0,1,1001
2170,7,1,370,5,1,1,1,1099
2171,7,1,371,2,0,0,1,674
2172,7,1,372,9,0,0,1,2130
2173,7,1,373,2,0,0,1,606
2174,7,1,374,9,1,1,1,938
2175,7,1,375,11,0,0,1,1916
2176,7,1,376,11,0,0,1,2197
2177,7,1,377,3,0,0,1,792
2178,7,1,378,2,0,0,1,685
2179,7,1,379,2,0,0,1,478
2180,7,1,380,7,1,1,1,1543
2181,7,1,381,9,0,0,1,1264
2182,7,1,382,7,0,0,1,714
2183,7,1,383,7,0,0,1,614
2184,7,1,384,3,1,1,1,434
2185,7,1,385,5,1,1,1,436
2186,7,1,387,11,0,0,1,1258
2187,7,1,388,9,1,1,1,711
2188,7,1,389,2,0,0,1,670
2189,7,1,390,5,1,1,1,806
2190,7,1,391,2,0,0,1,576
2191,7,1,392,5,0,0,1,941
2192,7,1,393,11,1,1,1,756
2193,7,1,394,7,0,0,1,1081
2194,7,1,395,9,0,0,1,1134
2195,7,1,398,9,0,0,1,2115
2196,7,1,399,7,0,0,1,884
2197,7,1,401,9,0,0,1,820
2198,7,1,403,5,1,1,1,1191
2199,7,1,404,11,0,0,1,1772
2200,7,1,405,5,1,1,1,811
2201,7,1,406,11,0,0,1,1033
2202,7,1,407,5,0,0,1,840
2203,7,1,408,11,1,1,1,1267
2204,7,1,409,5,1,1,1,754
2205,7,1,410,11,0,0,1,1403
2206,7,1,412,2,1,1,1,561
2207,7,1,413,5,0,0,1,818
2208,7,1,414,7,1,1,1,868
2209,7,1,415,7,0,0,1,1899
2210,7,1,417,11,0,0,1,1071
2211,7,1,418,11,1,1,1,722
2212,7,1,419,2,1,1,1,473
2213,7,1,420,9,0,0,1,1094
2214,7,1,421,2,0,0,1,490
2215,7,1,424,2,1,1,1,582
2216,7,1,425,7,1,1,1,826
2217,7,1,426,7,0,0,1,879
2218,7,1,427,7,0,0,1,1146
2219,7,1,428,2,1,1,1,871
2220,7,1,429,5,0,0,1,928
2221,7,1,430,5,1,1,1,652
2222,7,1,434,11,1,1,1,537
2223,7,1,435,5,0,0,1,558
2224,7,1,436,7,0,0,1,795
2225,7,1,437,11,0,0,1,1053
2226,7,1,438,5,0,0,1,520
2227,7,1,439,9,0,0,1,1007
2228,7,1,440,5,1,1,1,658
2229,7,1,442,9,0,0,1,662
2230,7,1,443,7,1,1,1,1112
2231,7,1,445,2,0,0,1,554
2232,7,1,446,2,1,1,1,608
2233,7,1,447,2,0,0,1,996
2234,7,1,448,11,0,0,1,840
2235,7,1,449,2,0,0,1,909
2236,7,1,453,7,0,0,1,1402
2237,7,1,455,9,0,0,1,1160
2238,7,1,456,9,1,1,1,1264
2239,7,1,458,2,0,0,1,1229
2240,7,1,460,9,1,1,1,749
2241,7,1,462,2,1,1,1,524
2242,7,1,463,7,0,0,1,951
2243,7,1,465,11,0,0,1,783
2244,7,1,466,5,1,1,1,620
2245,7,1,467,7,0,0,1,1660
2246,7,1,468,5,1,1,1,714
2247,7,1,469,2,0,0,1,511
2248,7,1,470,5,0,0,0,789
2249,7,1,473,9,1,1,1,1007
2250,7,1,474,7,1,1,1,512
2251,7,1,479,2,1,1,1,756
2252,7,1,480,2,0,0,1,609
2253,7,1,481,11,0,0,1,2145
2254,7,1,482,11,0,0,1,1198
2255,7,1,484,2,1,1,1,1037
2256,7,1,487,9,1,1,1,658
2257,7,1,488,9,0,0,1,721
2258,7,1,489,9,0,0,1,1356
2259,7,1,491,7,0,0,1,860
2260,7,1,492,9,1,1,1,751
2261,7,1,493,11,1,1,1,1186
2262,7,1,494,5,1,1,1,560
2263,7,1,495,5,1,1,1,450
2264,7,1,496,5,1,1,1,577
2265,7,1,497,11,1,1,1,581
2266,7,1,498,7,1,1,1,623
2267,7,1,499,11,1,1,1,774
2268,7,1,500,11,0,0,1,1159
2269,7,1,505,11,0,0,1,2380
2270,7,1,506,2,1,1,1,664
2271,7,1,507,7,1,1,1,739
2272,7,1,511,11,0,0,1,2122
2273,7,1,512,7,0,0,1,815
2274,7,1,513,9,1,1,0,1152
2275,7,1,514,9,1,1,1,815
2276,7,1,515,7,0,0,1,667
2277,7,1,517,11,1,1,1,849
2278,7,1,518,11,0,0,1,1559
2279,7,1,519,7,0,0,1,1468
2280,7,1,520,5,0,0,1,642
2281,7,1,521,11,1,1,1,1013
2282,7,1,522,5,0,0,1,1752
2283,7,1,523,7,1,1,1,1108
2284,7,1,524,7,0,0,1,1542
2285,7,1,525,9,1,1,1,623
2286,7,1,526,9,0,0,1,1900
2287,7,1,527,5,1,1,1,877
2288,7,1,530,5,0,0,1,527
2289,7,1,531,7,1,1,1,1835
2290,7,1,532,7,0,0,1,631
2291,7,1,534,11,0,0,1,1336
2292,7,1,536,9,0,0,1,1554
2293,7,1,537,9,0,0,1,751
2294,7,1,538,7,0,0,1,797
2295,7,1,540,9,0,0,1,1251
2296,7,1,541,11,0,0,1,888
2297,7,1,542,11,1,1,1,897
2298,7,1,543,2,1,1,1,432
2299,7,1,544,2,0,0,1,501
2300,7,1,545,9,0,0,1,1113
2301,7,1,546,7,0,0,1,549
2302,7,1,547,9,0,0,1,1127
2303,7,1,548,2,0,0,1,681
2304,7,1,550,11,0,0,1,2039
2305,7,1,553,11,1,1,1,1941
2306,7,1,554,5,0,0,1,859
2307,7,1,555,7,1,1,1,885
2308,7,1,556,7,1,1,1,725
2309,7,1,558,9,0,0,1,966
2310,7,1,560,5,1,1,1,989
2311,7,1,561,2,1,1,1,868
2312,7,1,562,2,0,0,1,560
2313,7,1,564,11,0,0,1,1362
2314,7,1,565,7,1,1,1,872
2315,7,1,566,7,0,0,1,1089
2316,7,1,567,9,1,1,1,1331
2317,7,1,570,9,1,1,1,846
2318,7,1,571,11,0,0,1,1196
2319,7,1,574,7,1,1,1,933
2320,7,1,575,2,0,0,1,546
2321,7,1,576,5,0,0,1,888
2322,7,1,577,7,1,1,1,673
2323,7,1,578,5,1,1,1,661
2324,7,1,580,2,1,1,1,648
2325,7,1,582,9,1,1,1,1574
2326,7,1,583,7,0,0,1,987
2327,7,1,584,9,1,1,1,633
2328,7,1,585,5,1,1,1,822
2329,7,1,587,9,0,0,1,583
2330,7,1,588,9,1,1,1,751
2331,7,1,589,5,0,0,1,536
2332,7,1,590,9,0,0,1,818
2333,7,1,593,7,0,0,1,1326
2334,7,1,594,7,1,1,1,522
2335,7,1,595,11,0,0,1,1402
2336,7,1,596,5,0,0,1,1184
2337,7,1,597,7,1,1,1,1557
2338,7,1,598,9,0,0,1,1003
2339,7,1,599,5,1,1,1,461
2340,7,1,601,5,1,1,1,692
2341,7,1,602,5,1,1,1,437
2342,7,1,604,5,0,0,1,768
2343,7,1,605,2,1,1,1,430
2344,7,1,606,11,1,1,1,856
2345,7,1,610,7,0,0,1,1269
2346,7,1,613,9,0,0,1,1136
2347,7,1,614,2,0,0,1,676
2348,7,1,615,9,1,1,1,1231
2349,7,1,616,2,0,0,1,429
2350,7,1,617,9,0,0,1,1299
2351,7,1,618,2,1,1,1,669
2352,7,1,619,9,0,0,1,1069
2353,7,1,620,11,1,1,1,774
2354,7,1,621,5,0,0,1,2021
2355,7,1,622,7,1,1,1,1238
2356,7,1,624,5,0,0,1,776
2357,7,1,625,11,1,1,0,906
2358,7,1,626,7,0,0,1,1348
2359,7,1,628,9,0,0,1,1278
2360,7,1,631,11,1,1,0,680
2361,7,1,633,9,1,1,1,808
2362,7,1,634,7,0,0,1,663
2363,7,1,636,5,0,0,1,503
2364,7,1,637,11,1,1,1,1052
2365,7,1,638,7,1,1,1,803
2366,7,1,639,5,1,1,1,481
2367,7,1,640,5,1,1,1,628
2368,7,1,642,5,1,1,1,1056
2369,7,1,645,9,1,1,1,466
2370,7,1,646,2,1,1,1,423
2371,7,1,647,11,0,0,0,944
2372,7,1,649,11,1,1,1,824
2373,7,1,650,2,0,0,1,541
2374,7,1,651,2,1,1,1,719
2375,7,1,652,5,0,0,1,699
2376,7,1,653,5,1,1,1,705
2377,7,1,655,11,0,0,1,2295
2378,7,1,656,5,0,0,1,875
2379,7,1,658,9,0,0,1,1163
2380,7,1,659,9,1,1,1,631
2381,7,1,663,9,1,1,1,715
2382,7,1,664,7,1,1,1,794
2383,7,1,665,9,1,1,1,719
2384,7,1,667,5,0,0,1,948
2385,7,1,668,11,0,0,1,1923
2386,7,1,669,5,1,1,1,822
2387,7,1,671,11,1,1,1,2273
2388,7,1,672,2,0,0,1,699
2389,7,1,673,7,1,1,1,1218
2390,7,1,674,7,0,0,1,817
2391,7,1,676,11,0,0,1,1941
2392,7,1,677,7,1,1,1,1264
2393,7,1,678,5,0,0,1,1568
2394,7,1,679,9,1,1,1,762
2395,7,1,683,2,0,0,1,449
2396,7,1,684,11,0,0,1,1498
2397,7,1,687,7,0,0,1,660
2398,7,1,688,7,0,0,1,782
2399,7,1,689,7,1,1,1,1314
2400,7,1,690,5,0,0,1,1286
2401,8,1,1,7,0,0,1,2678
2402,8,1,2,9,1,1,0,712
2403,8,1,3,3,1,1,1,865
2404,8,1,4,3,1,1,1,887
2405,8,1,5,2,0,0,1,656
2406,8,1,6,3,1,1,1,592
2407,8,1,7,3,1,1,1,777
2408,8,1,8,9,1,1,1,716
2409,8,1,9,7,1,1,1,640
2410,8,1,10,3,0,0,1,694
2411,8,1,11,9,0,0,1,1036
2412,8,1,12,2,1,1,1,560
2413,8,1,13,2,0,0,1,466
2414,8,1,14,7,1,1,1,695
2415,8,1,15,7,0,0,1,1175
2416,8,1,16,9,1,1,0,871
2417,8,1,17,9,0,0,1,1357
2418,8,1,18,3,0,0,0,546
2419,8,1,19,5,1,1,1,715
2420,8,1,20,3,0,0,1,572
2421,8,1,21,3,1,1,0,415
2422,8,1,22,7,1,1,1,1127
2423,8,1,23,9,0,0,1,1572
2424,8,1,24,2,0,0,1,572
2425,8,1,25,7,1,1,1,1048
2426,8,1,26,3,1,1,1,788
2427,8,1,27,11,0,0,1,1420
2428,8,1,28,3,0,0,1,876
2429,8,1,29,3,0,0,1,556
2430,8,1,30,7,0,0,1,1172
2431,8,1,31,5,0,0,1,1080
2432,8,1,32,11,1,1,1,1574
2433,8,1,33,11,1,1,0,1543
2434,8,1,34,7,1,1,1,1010
2435,8,1,35,11,0,0,1,1478
2436,8,1,36,5,0,0,1,1148
2437,8,1,37,2,0,0,1,548
2438,8,1,38,5,0,0,1,833
2439,8,1,39,7,0,0,1,1375
2440,8,1,40,11,0,0,1,1842
2441,8,1,41,7,0,0,1,920
2442,8,1,42,3,1,1,0,469
2443,8,1,43,9,0,0,1,1244
2444,8,1,44,2,0,0,1,422
2445,8,1,45,5,0,0,1,886
2446,8,1,46,11,1,1,1,1375
2447,8,1,47,5,1,1,0,577
2448,8,1,48,3,1,1,1,656
2449,8,1,49,5,1,1,1,598
2450,8,1,50,2,1,1,1,619
2451,8,1,51,2,0,0,1,490
2452,8,1,52,3,1,1,1,520
2453,8,1,53,3,0,0,1,555
2454,8,1,54,7,1,1,1,906
2455,8,1,55,3,0,0,1,506
2456,8,1,56,5,1,1,1,695
2457,8,1,57,3,0,0,1,489
2458,8,1,58,3,1,1,1,679
2459,8,1,59,5,1,1,1,1073
2460,8,1,60,11,0,0,1,1510
2461,8,1,61,2,1,1,1,539
2462,8,1,62,2,1,1,1,533
2463,8,1,63,5,0,0,1,844
2464,8,1,64,5,0,0,1,756
2465,8,1,65,7,0,0,1,956
2466,8,1,66,5,1,1,0,756
2467,8,1,67,11,0,0,1,1494
2468,8,1,68,7,0,0,1,1183
2469,8,1,69,7,1,1,1,1117
2470,8,1,70,3,1,1,1,762
2471,8,1,71,3,1,1,1,561
2472,8,1,72,9,0,0,1,1260
2473,8,1,73,7,1,1,1,698
2474,8,1,74,2,1,1,0,543
2475,8,1,75,9,1,1,1,1059
2476,8,1,76,5,1,1,1,616
2477,8,1,77,5,0,0,1,592
2478,8,1,78,11,0,0,1,1268
2479,8,1,79,9,1,1,1,595
2480,8,1,80,7,0,0,1,925
2481,8,1,81,5,1,1,1,534
2482,8,1,82,3,0,0,1,524
2483,8,1,83,9,1,1,0,1174
2484,8,1,84,2,1,1,1,526
2485,8,1,85,2,1,1,1,419
2486,8,1,86,5,1,1,1,474
2487,8,1,87,5,0,0,1,727
2488,8,1,88,2,1,1,1,520
2489,8,1,89,11,1,1,0,1324
2490,8,1,90,11,0,0,1,1560
2491,8,1,91,7,0,0,1,877
2492,8,1,92,11,1,1,1,1067
2493,8,1,93,3,0,0,1,633
2494,8,1,94,3,1,1,1,493
2495,8,1,95,2,0,0,1,579
2496,8,1,96,9,1,1,1,901
2497,8,1,97,3,1,1,1,585
2498,8,1,98,9,1,1,0,1542
2499,8,1,99,9,0,0,1,1251
2500,8,1,100,2,0,0,1,487
2501,8,1,101,7,0,0,1,969
2502,8,1,102,5,0,0,1,805
2503,8,1,103,7,0,0,1,1038
2504,8,1,104,3,0,0,1,610
2505,8,1,105,11,0,0,1,1220
2506,8,1,106,9,1,1,1,859
2507,8,1,107,9,0,0,1,902
2508,8,1,108,11,0,0,1,1255
2509,8,1,109,5,1,1,1,880
2510,8,1,110,3,0,0,1,540
2511,8,1,111,5,0,0,1,1282
2512,8,1,112,3,1,1,0,507
2513,8,1,113,2,0,0,1,684
2514,8,1,114,9,0,0,1,1303
2515,8,1,115,2,1,1,1,520
2516,8,1,116,5,0,0,1,881
2517,8,1,117,11,0,0,1,1978
2518,8,1,118,11,1,1,1,1658
2519,8,1,119,7,1,1,1,926
2520,8,1,120,3,1,1,1,499
2521,8,1,121,11,1,1,1,1055
2522,8,1,122,9,1,1,1,1284
2523,8,1,123,3,1,1,1,658
2524,8,1,124,7,1,1,1,922
2525,8,1,125,7,1,1,1,702
2526,8,1,126,3,1,1,1,546
2527,8,1,127,5,0,0,1,1621
2528,8,1,128,3,0,0,1,572
2529,8,1,129,11,1,1,1,1275
2530,8,1,130,9,0,0,1,2021
2531,8,1,131,5,0,0,1,919
2532,8,1,132,5,1,1,0,577
2533,8,1,133,5,0,0,1,898
2534,8,1,134,3,1,1,1,531
2535,8,1,135,2,0,0,1,552
2536,8,1,136,7,0,0,1,1316
2537,8,1,137,3,1,1,1,534
2538,8,1,138,11,0,0,1,2345
2539,8,1,139,9,1,1,1,659
2540,8,1,140,2,0,0,1,527
2541,8,1,141,9,1,1,1,761
2542,8,1,142,11,0,0,1,1129
2543,8,1,143,9,1,1,0,1160
2544,8,1,144,2,1,1,1,565
2545,8,1,145,7,1,1,1,845
2546,8,1,146,9,0,0,1,1435
2547,8,1,147,7,0,0,1,1143
2548,8,1,148,3,0,0,1,665
2549,8,1,149,7,0,0,1,916
2550,8,1,150,3,1,1,0,503
2551,8,1,151,11,0,0,1,1828
2552,8,1,152,7,0,0,1,873
2553,8,1,153,7,0,0,1,849
2554,8,1,154,5,1,1,1,526
2555,8,1,155,2,1,1,0,430
2556,8,1,156,3,0,0,1,564
2557,8,1,157,9,1,1,1,930
2558,8,1,158,3,0,0,1,642
2559,8,1,159,11,0,0,1,937
2560,8,1,160,11,0,0,1,1707
2561,8,1,161,11,0,0,1,1144
2562,8,1,162,3,1,1,1,539
2563,8,1,163,2,0,0,1,597
2564,8,1,164,3,0,0,1,658
2565,8,1,165,2,1,1,1,563
2566,8,1,166,11,0,0,1,1121
2567,8,1,167,3,0,0,1,528
2568,8,1,168,3,0,0,1,761
2569,8,1,169,2,1,1,1,561
2570,8,1,170,3,0,0,1,886
2571,8,1,171,3,0,0,1,613
2572,8,1,172,5,1,1,1,1144
2573,8,1,173,7,1,1,1,857
2574,8,1,174,3,0,0,1,551
2575,8,1,175,2,0,0,1,538
2576,8,1,176,2,0,0,1,435
2577,8,1,177,7,0,0,1,1319
2578,8,1,178,3,0,0,1,613
2579,8,1,179,2,1,1,1,531
2580,8,1,180,9,1,1,0,1106
2581,8,1,181,3,1,1,1,608
2582,8,1,182,3,0,0,1,799
2583,8,1,183,9,1,1,1,974
2584,8,1,184,9,0,0,1,1273
2585,8,1,185,5,1,1,1,509
2586,8,1,186,11,0,0,1,1590
2587,8,1,187,9,1,1,1,623
2588,8,1,188,9,1,1,1,1573
2589,8,1,189,3,0,0,1,526
2590,8,1,190,11,0,0,1,1677
2591,8,1,191,2,1,1,1,650
2592,8,1,192,11,0,0,1,2267
2593,8,1,193,11,1,1,1,1037
2594,8,1,194,7,0,0,1,1771
2595,8,1,195,11,0,0,1,1919
2596,8,1,196,7,0,0,1,1377
2597,8,1,197,2,0,0,1,913
2598,8,1,198,9,1,1,1,1152
2599,8,1,199,11,0,0,1,1750
2600,8,1,200,3,0,0,1,692
2601,8,1,201,2,1,1,1,544
2602,8,1,202,3,1,1,1,705
2603,8,1,203,2,1,1,1,562
2604,8,1,204,9,0,0,1,1703
2605,8,1,205,3,0,0,1,605
2606,8,1,206,11,0,0,1,1465
2607,8,1,207,9,0,0,1,1307
2608,8,1,208,11,0,0,1,1070
2609,8,1,209,5,0,0,1,656
2610,8,1,210,3,0,0,1,453
2611,8,1,211,9,0,0,1,636
2612,8,1,212,7,1,1,0,605
2613,8,1,213,9,1,1,0,1025
2614,8,1,214,2,0,0,0,533
2615,8,1,215,11,1,1,1,1257
2616,8,1,216,3,1,1,1,789
2617,8,1,217,2,1,1,1,698
2618,8,1,218,11,0,0,1,2087
2619,8,1,219,2,0,0,1,638
2620,8,1,220,2,1,1,1,853
2621,8,1,221,7,0,0,1,1200
2622,8,1,222,2,1,1,1,708
2623,8,1,223,7,0,0,1,1177
2624,8,1,224,3,1,1,1,635
2625,8,1,225,5,0,0,1,1073
2626,8,1,226,9,1,1,1,1283
2627,8,1,227,3,1,1,1,905
2628,8,1,228,11,1,1,1,1045
2629,8,1,229,3,0,0,1,963
2630,8,1,230,3,0,0,1,558
2631,8,1,231,2,0,0,1,548
2632,8,1,232,2,1,1,1,539
2633,8,1,233,7,1,1,1,1019
2634,8,1,234,3,0,0,1,701
2635,8,1,235,3,0,0,1,649
2636,8,1,236,5,0,0,1,1133
2637,8,1,237,5,0,0,1,976
2638,8,1,238,7,0,0,1,1361
2639,8,1,239,9,1,1,1,772
2640,8,1,240,3,1,1,1,873
2641,8,1,241,3,0,0,1,981
2642,8,1,242,3,0,0,1,808
2643,8,1,243,7,0,0,1,1316
2644,8,1,244,7,0,0,1,1037
2645,8,1,245,9,1,1,1,617
2646,8,1,246,3,1,1,1,799
2647,8,1,247,11,0,0,1,2116
2648,8,1,248,3,1,1,1,520
2649,8,1,249,3,1,1,1,486
2650,8,1,250,3,0,0,1,648
2651,8,1,251,3,0,0,1,608
2652,8,1,252,3,0,0,1,489
2653,8,1,253,3,0,0,1,636
2654,8,1,254,2,0,0,1,481
2655,8,1,255,2,1,1,1,565
2656,8,1,256,9,1,1,1,604
2657,8,1,257,3,1,1,1,845
2658,8,1,258,11,0,0,1,1280
2659,8,1,259,9,1,1,1,710
2660,8,1,260,9,1,1,1,1092
2661,8,1,261,3,0,0,1,681
2662,8,1,262,5,1,1,1,606
2663,8,1,263,9,0,0,1,1425
2664,8,1,264,9,1,1,1,1282
2665,8,1,265,5,0,0,1,1441
2666,8,1,266,3,0,0,1,537
2667,8,1,267,9,1,1,1,1017
2668,8,1,268,11,1,1,1,870
2669,8,1,269,11,0,0,1,1596
2670,8,1,270,3,1,1,1,561
2671,8,1,271,2,0,0,1,464
2672,8,1,272,11,0,0,1,1703
2673,8,1,273,7,1,1,1,907
2674,8,1,274,3,0,0,1,586
2675,8,1,275,2,0,0,1,723
2676,8,1,276,2,1,1,1,479
2677,8,1,277,3,1,1,1,747
2678,8,1,278,3,0,0,1,568
2679,8,1,279,3,1,1,1,504
2680,8,1,280,3,0,0,1,617
2681,8,1,281,9,0,0,1,1040
2682,8,1,282,2,0,0,1,562
2683,8,1,283,5,0,0,1,884
2684,8,1,284,3,0,0,1,521
2685,8,1,285,5,1,1,1,588
2686,8,1,286,9,0,0,1,1112
2687,8,1,287,2,0,0,1,511
2688,8,1,288,3,0,0,1,612
2689,8,1,289,3,0,0,1,687
2690,8,1,290,5,1,1,1,919
2691,8,1,291,9,1,1,1,1065
2692,8,1,292,2,0,0,1,820
2693,8,1,293,3,1,1,1,739
2694,8,1,294,2,0,0,1,539
2695,8,1,295,9,1,1,1,1216
2696,8,1,296,7,0,0,1,1293
2697,8,1,297,3,0,0,1,662
2698,8,1,298,3,0,0,1,663
2699,8,1,299,9,1,1,1,656
2700,8,1,300,11,1,1,1,1665
2701,8,1,301,3,1,1,1,571
2702,8,1,302,3,0,0,1,816
2703,8,1,303,7,1,1,1,1924
2704,8,1,304,2,1,1,1,512
2705,8,1,305,3,1,1,1,682
2706,8,1,306,11,0,0,1,2711
2707,8,1,307,7,0,0,0,1372
2708,8,1,308,5,1,1,1,1062
2709,8,1,309,3,0,0,1,641
2710,8,1,310,5,0,0,1,1199
2711,8,1,311,7,1,1,1,618
2712,8,1,312,9,0,0,1,1361
2713,8,1,313,11,0,0,1,1429
2714,8,1,314,9,1,1,1,554
2715,8,1,315,3,1,1,1,665
2716,8,1,316,2,0,0,0,549
2717,8,1,317,7,1,1,1,644
2718,8,1,318,3,0,0,1,523
2719,8,1,319,3,0,0,1,616
2720,8,1,320,2,0,0,1,478
2721,8,1,321,7,0,0,1,1007
2722,8,1,322,2,1,1,1,561
2723,8,1,323,3,1,1,1,800
2724,8,1,324,9,0,0,1,1305
2725,8,1,325,11,0,0,1,1404
2726,8,1,326,3,0,0,1,522
2727,8,1,327,9,0,0,1,2463
2728,8,1,328,5,1,1,1,919
2729,8,1,329,2,1,1,1,679
2730,8,1,330,5,0,0,1,921
2731,8,1,331,3,0,0,1,1038
2732,8,1,332,11,0,0,1,1587
2733,8,1,333,5,0,0,1,747
2734,8,1,334,3,1,1,1,541
2735,8,1,335,5,1,1,1,762
2736,8,1,336,5,1,1,1,516
2737,8,1,337,11,1,1,0,1454
2738,8,1,338,5,1,1,1,621
2739,8,1,339,3,1,1,1,732
2740,8,1,340,7,0,0,1,1528
2741,8,1,341,11,1,1,1,545
2742,8,1,342,3,1,1,1,557
2743,8,1,343,5,1,1,1,671
2744,8,1,344,2,1,1,1,489
2745,8,1,345,9,1,1,1,981
2746,8,1,346,2,1,1,1,760
2747,8,1,347,11,1,1,1,925
2748,8,1,348,9,0,0,1,1380
2749,8,1,349,3,0,0,1,750
2750,8,1,350,3,1,1,1,462
2751,8,1,351,5,1,1,1,839
2752,8,1,352,7,1,1,1,529
2753,8,1,353,11,1,1,1,1407
2754,8,1,354,11,1,1,1,541
2755,8,1,355,11,1,1,1,547
2756,8,1,356,9,1,1,1,903
2757,8,1,357,3,0,0,1,557
2758,8,1,359,2,0,0,1,480
2759,8,1,360,9,0,0,1,795
2760,8,1,361,5,1,1,0,591
2761,8,1,362,2,1,1,1,890
2762,8,1,364,9,1,1,1,809
2763,8,1,365,9,1,1,1,953
2764,8,1,368,9,0,0,1,1436
2765,8,1,369,5,1,1,1,581
2766,8,1,370,11,0,0,1,1364
2767,8,1,371,11,1,1,1,942
2768,8,1,372,5,0,0,1,936
2769,8,1,373,5,0,0,1,837
2770,8,1,375,7,1,1,1,1721
2771,8,1,377,2,0,0,1,582
2772,8,1,378,5,1,1,1,552
2773,8,1,379,7,0,0,1,1607
2774,8,1,380,9,0,0,1,1560
2775,8,1,382,7,1,1,1,1415
2776,8,1,383,2,0,0,1,557
2777,8,1,384,2,0,0,1,508
2778,8,1,385,5,1,1,1,891
2779,8,1,386,2,0,0,1,446
2780,8,1,387,5,1,1,1,594
2781,8,1,388,11,1,1,1,1862
2782,8,1,389,11,1,1,1,796
2783,8,1,390,5,0,0,1,1243
2784,8,1,392,11,1,1,1,627
2785,8,1,394,2,0,0,1,524
2786,8,1,397,7,1,1,1,1471
2787,8,1,398,7,0,0,1,1231
2788,8,1,399,7,1,1,1,666
2789,8,1,401,9,0,0,1,1237
2790,8,1,402,9,1,1,0,1568
2791,8,1,403,2,0,0,1,524
2792,8,1,404,5,0,0,1,1160
2793,8,1,405,11,1,1,1,654
2794,8,1,406,9,1,1,1,1570
2795,8,1,407,2,1,1,1,706
2796,8,1,408,9,1,1,1,2103
2797,8,1,409,5,1,1,1,1097
2798,8,1,415,9,0,0,1,805
2799,8,1,416,7,1,1,1,645
2800,8,1,417,11,1,1,1,886
2801,8,1,418,5,1,1,1,892
2802,8,1,419,11,0,0,1,1255
2803,8,1,420,7,1,1,1,593
2804,8,1,421,11,0,0,1,1217
2805,8,1,422,7,1,1,1,956
2806,8,1,425,5,0,0,1,984
2807,8,1,427,9,0,0,1,899
2808,8,1,428,2,1,1,1,525
2809,8,1,429,5,1,1,1,620
2810,8,1,431,2,0,0,1,611
2811,8,1,432,11,0,0,1,1568
2812,8,1,434,9,0,0,1,1100
2813,8,1,435,11,1,1,1,1158
2814,8,1,436,11,0,0,1,1148
2815,8,1,437,11,1,1,1,1049
2816,8,1,438,9,1,1,1,664
2817,8,1,440,7,0,0,1,1306
2818,8,1,441,9,0,0,1,1575
2819,8,1,443,11,0,0,1,1652
2820,8,1,444,5,1,1,1,1057
2821,8,1,447,11,1,1,1,1536
2822,8,1,448,7,1,1,1,1494
2823,8,1,449,7,0,0,1,1285
2824,8,1,450,2,0,0,1,473
2825,8,1,451,11,1,1,1,1031
2826,8,1,452,7,1,1,1,529
2827,8,1,453,7,1,1,1,693
2828,8,1,454,9,1,1,1,566
2829,8,1,455,7,1,1,1,612
2830,8,1,460,7,0,0,1,1534
2831,8,1,461,2,0,0,1,530
2832,8,1,462,9,0,0,1,1283
2833,8,1,463,9,0,0,1,1535
2834,8,1,464,9,0,0,1,1979
2835,8,1,465,9,0,0,1,1430
2836,8,1,466,11,1,1,1,1202
2837,8,1,468,5,1,1,1,607
2838,8,1,469,7,0,0,1,1286
2839,8,1,470,11,0,0,1,1688
2840,8,1,471,7,1,1,1,800
2841,8,1,472,7,1,1,1,1130
2842,8,1,473,11,1,1,0,1327
2843,8,1,474,7,0,0,1,1176
2844,8,1,475,5,1,1,1,538
2845,8,1,476,2,1,1,1,666
2846,8,1,477,5,0,0,1,899
2847,8,1,478,5,0,0,1,1034
2848,8,1,479,5,0,0,1,779
2849,8,1,480,7,1,1,1,1488
2850,8,1,481,5,1,1,1,859
2851,8,1,482,5,0,0,1,634
2852,8,1,484,5,0,0,1,575
2853,8,1,486,11,0,0,1,1657
2854,8,1,487,7,0,0,1,983
2855,8,1,489,9,0,0,1,1204
2856,8,1,490,5,0,0,1,765
2857,8,1,493,9,1,1,1,1231
2858,8,1,494,9,0,0,1,1175
2859,8,1,495,7,0,0,1,999
2860,8,1,497,11,0,0,1,1490
2861,8,1,498,9,0,0,1,1105
2862,8,1,500,11,0,0,1,1310
2863,8,1,501,11,0,0,1,894
2864,8,1,502,2,0,0,1,480
2865,8,1,503,5,0,0,1,829
2866,8,1,504,7,1,1,1,592
2867,8,1,505,11,0,0,1,1794
2868,8,1,508,5,1,1,1,575
2869,8,1,509,2,0,0,1,498
2870,8,1,510,11,0,0,1,1350
2871,8,1,512,9,0,0,1,1331
2872,8,1,514,11,1,1,1,1492
2873,8,1,515,7,0,0,1,981
2874,8,1,516,7,0,0,1,1028
2875,8,1,517,5,1,1,1,842
2876,8,1,518,2,1,1,1,417
2877,8,1,519,9,0,0,1,1278
2878,8,1,521,7,0,0,1,968
2879,8,1,522,7,0,0,1,1082
2880,8,1,523,2,1,1,1,597
2881,8,1,526,7,0,0,1,823
2882,8,1,527,2,0,0,1,486
2883,8,1,528,11,0,0,1,1152
2884,8,1,530,5,0,0,1,1072
2885,8,1,531,11,1,1,1,1537
2886,8,1,532,9,0,0,1,2114
2887,8,1,533,5,1,1,1,870
2888,8,1,534,5,1,1,1,838
2889,8,1,535,2,0,0,1,528
2890,8,1,536,7,1,1,1,590
2891,8,1,537,5,1,1,1,817
2892,8,1,538,5,0,0,1,1186
2893,8,1,540,11,0,0,1,1553
2894,8,1,541,7,0,0,1,1445
2895,8,1,542,2,0,0,1,499
2896,8,1,543,2,1,1,1,749
2897,8,1,544,11,0,0,1,1449
2898,8,1,545,5,1,1,1,839
2899,8,1,546,9,1,1,1,1423
2900,8,1,547,2,1,1,1,543
2901,8,1,548,5,0,0,1,571
2902,8,1,549,7,1,1,1,704
2903,8,1,551,11,0,0,1,1359
2904,8,1,552,7,0,0,1,949
2905,8,1,554,11,1,1,1,892
2906,8,1,557,9,0,0,1,1061
2907,8,1,558,5,1,1,1,978
2908,8,1,559,11,1,1,1,967
2909,8,1,560,11,1,1,1,892
2910,8,1,562,7,1,1,1,732
2911,8,1,563,2,1,1,1,572
2912,8,1,564,5,0,0,1,946
2913,8,1,566,9,0,0,1,1692
2914,8,1,568,5,0,0,1,865
2915,8,1,569,2,0,0,1,557
2916,8,1,570,7,1,1,1,677
2917,8,1,571,5,0,0,1,925
2918,8,1,572,11,0,0,1,1428
2919,8,1,574,2,0,0,1,509
2920,8,1,576,5,0,0,1,847
2921,8,1,577,9,1,1,1,884
2922,8,1,579,5,0,0,1,1653
2923,8,1,580,7,0,0,1,615
2924,8,1,581,2,0,0,1,570
2925,8,1,583,11,0,0,1,1375
2926,8,1,587,2,1,1,1,582
2927,8,1,590,2,0,0,1,573
2928,8,1,592,11,1,1,1,1184
2929,8,1,593,7,1,1,1,948
2930,8,1,595,5,1,1,1,770
2931,8,1,596,2,1,1,1,437
2932,8,1,597,7,1,1,1,1122
2933,8,1,598,5,1,1,1,996
2934,8,1,599,2,1,1,1,540
2935,8,1,601,7,1,1,1,749
2936,8,1,602,2,1,1,1,530
2937,8,1,604,5,0,0,1,715
2938,8,1,605,9,0,0,1,1307
2939,8,1,607,5,1,1,1,1391
2940,8,1,608,9,0,0,1,2118
2941,8,1,609,7,0,0,1,1180
2942,8,1,610,11,0,0,1,1573
2943,8,1,612,2,0,0,1,529
2944,8,1,614,9,1,1,1,1845
2945,8,1,615,2,1,1,1,535
2946,8,1,616,7,1,1,1,643
2947,8,1,617,11,1,1,1,954
2948,8,1,618,2,1,1,1,422
2949,8,1,620,11,0,0,1,1324
2950,8,1,621,5,0,0,1,665
2951,8,1,623,9,0,0,1,1190
2952,8,1,626,9,0,0,1,1050
2953,8,1,627,5,0,0,1,672
2954,8,1,628,2,1,1,1,545
2955,8,1,629,7,0,0,1,1043
2956,8,1,632,7,1,1,1,666
2957,8,1,633,11,0,0,1,1787
2958,8,1,635,2,1,1,1,434
2959,8,1,637,5,0,0,1,967
2960,8,1,638,7,1,1,1,1223
2961,8,1,640,2,1,1,1,1192
2962,8,1,641,2,0,0,0,508
2963,8,1,643,5,1,1,1,852
2964,8,1,644,11,1,1,0,2057
2965,8,1,645,7,0,0,1,941
2966,8,1,646,2,0,0,1,516
2967,8,1,647,7,0,0,1,1603
2968,8,1,648,9,1,1,1,2881
2969,8,1,649,7,1,1,1,1959
2970,8,1,650,7,1,1,1,1201
2971,8,1,652,5,1,1,1,510
2972,8,1,653,9,1,1,0,1505
2973,8,1,654,5,1,1,1,1008
2974,8,1,655,2,1,1,1,766
2975,8,1,656,9,0,0,1,2016
2976,8,1,657,9,1,1,0,2794
2977,8,1,658,2,0,0,1,936
2978,8,1,659,9,0,0,0,2382
2979,8,1,661,2,1,1,1,573
2980,8,1,662,7,1,1,1,577
2981,8,1,664,11,0,0,1,1518
2982,8,1,666,9,0,0,1,1636
2983,8,1,667,9,1,1,1,1279
2984,8,1,668,5,0,0,1,1228
2985,8,1,669,2,1,1,1,543
2986,8,1,670,5,0,0,1,1072
2987,8,1,671,7,0,0,1,1065
2988,8,1,672,11,0,0,0,1678
2989,8,1,673,7,1,1,1,1000
2990,8,1,674,2,1,1,1,602
2991,8,1,676,7,1,1,1,767
2992,8,1,677,11,0,0,1,2001
2993,8,1,679,9,0,0,1,1675
2994,8,1,680,11,0,0,1,2197
2995,8,1,682,5,1,1,1,2000
2996,8,1,683,9,1,1,0,2497
2997,8,1,684,5,0,0,1,998
2998,8,1,685,11,1,1,1,1252
2999,8,1,686,11,0,0,1,1730
3000,8,1,687,9,0,0,1,1420
3001,9,1,1,7,1,1,1,2448
3002,9,1,2,3,1,1,1,3072
3003,9,1,3,3,0,3,0,4994
3004,9,1,4,3,0,0,1,742
3005,9,1,5,2,0,0,1,713
3006,9,1,6,9,0,0,1,2367
3007,9,1,7,3,0,0,1,634
3008,9,1,8,11,1,1,1,1183
3009,9,1,9,3,1,1,1,706
3010,9,1,10,7,0,0,1,1352
3011,9,1,11,3,0,0,1,1121
3012,9,1,12,11,0,0,1,2201
3013,9,1,13,2,1,1,1,740
3014,9,1,14,7,0,0,1,1109
3015,9,1,15,7,0,0,1,1050
3016,9,1,16,3,0,0,1,1607
3017,9,1,17,3,0,0,1,637
3018,9,1,18,7,1,1,1,839
3019,9,1,19,7,1,1,1,827
3020,9,1,20,11,1,1,1,860
3021,9,1,21,11,0,0,1,1446
3022,9,1,22,5,1,1,1,1039
3023,9,1,23,5,1,1,1,660
3024,9,1,24,5,0,0,1,999
3025,9,1,25,5,1,1,1,963
3026,9,1,26,11,1,1,1,1149
3027,9,1,27,5,1,1,1,816
3028,9,1,28,7,0,0,1,1715
3029,9,1,29,2,1,1,1,573
3030,9,1,30,3,1,1,1,702
3031,9,1,31,5,0,0,1,695
3032,9,1,32,3,0,0,1,660
3033,9,1,33,5,0,0,1,833
3034,9,1,34,3,1,1,1,779
3035,9,1,35,2,1,1,1,625
3036,9,1,36,2,1,1,1,562
3037,9,1,37,3,0,0,1,769
3038,9,1,38,9,0,0,1,1806
3039,9,1,39,9,0,0,1,1014
3040,9,1,40,7,1,1,1,895
3041,9,1,41,7,0,0,1,1030
3042,9,1,42,5,1,1,1,1001
3043,9,1,43,2,1,1,1,708
3044,9,1,44,11,0,0,1,1539
3045,9,1,45,9,0,0,1,1740
3046,9,1,46,2,0,0,1,1665
3047,9,1,47,3,0,0,1,617
3048,9,1,48,5,0,0,1,1074
3049,9,1,49,7,0,0,1,1065
3050,9,1,50,2,1,1,1,658
3051,9,1,51,7,0,0,1,756
3052,9,1,52,3,1,1,1,678
3053,9,1,53,5,0,0,1,631
3054,9,1,54,7,1,1,1,689
3055,9,1,55,3,1,1,1,613
3056,9,1,56,9,1,1,1,1284
3057,9,1,57,11,0,0,1,1500
3058,9,1,58,7,0,0,1,782
3059,9,1,59,5,1,1,1,532
3060,9,1,60,2,0,0,1,531
3061,9,1,61,7,1,1,1,783
3062,9,1,62,5,1,1,1,559
3063,9,1,63,9,1,1,1,1229
3064,9,1,64,11,0,0,1,1540
3065,9,1,65,2,1,1,1,549
3066,9,1,66,2,0,0,1,611
3067,9,1,67,9,1,1,1,745
3068,9,1,68,7,0,0,1,1309
3069,9,1,69,3,1,1,1,829
3070,9,1,70,5,0,0,1,970
3071,9,1,71,3,1,1,1,618
3072,9,1,72,3,0,0,1,567
3073,9,1,73,2,0,0,1,421
3074,9,1,74,9,0,0,1,1093
3075,9,1,75,3,1,1,1,589
3076,9,1,76,7,1,1,1,789
3077,9,1,77,2,1,1,1,633
3078,9,1,78,5,1,1,1,706
3079,9,1,79,3,1,1,1,540
3080,9,1,80,3,0,0,1,549
3081,9,1,81,3,1,1,1,455
3082,9,1,82,3,0,0,1,614
3083,9,1,83,11,0,0,1,2051
3084,9,1,84,9,0,0,1,1319
3085,9,1,85,2,0,0,1,816
3086,9,1,86,2,0,0,1,705
3087,9,1,87,11,0,0,1,1207
3088,9,1,88,11,1,1,1,595
3089,9,1,89,9,1,1,1,685
3090,9,1,90,3,0,0,1,759
3091,9,1,91,7,1,1,1,815
3092,9,1,92,5,1,1,1,720
3093,9,1,93,3,1,1,1,572
3094,9,1,94,11,0,0,1,2184
3095,9,1,95,3,0,0,1,2044
3096,9,1,96,11,1,1,1,708
3097,9,1,97,3,1,1,1,594
3098,9,1,98,5,1,1,1,749
3099,9,1,99,11,0,0,1,1795
3100,9,1,100,11,0,0,1,957
3101,9,1,101,11,0,0,1,843
3102,9,1,102,5,0,0,1,699
3103,9,1,103,9,0,0,1,1179
3104,9,1,104,2,0,0,1,670
3105,9,1,105,2,1,1,1,724
3106,9,1,106,7,0,0,1,750
3107,9,1,107,2,0,0,1,518
3108,9,1,108,5,0,0,1,920
3109,9,1,109,3,0,0,1,659
3110,9,1,110,5,0,0,1,816
3111,9,1,111,3,0,0,1,526
3112,9,1,112,9,0,0,1,1686
3113,9,1,113,2,1,1,1,616
3114,9,1,114,3,1,1,1,510
3115,9,1,115,9,0,0,1,611
3116,9,1,116,2,1,1,1,479
3117,9,1,117,3,1,1,1,498
3118,9,1,118,7,0,0,1,760
3119,9,1,119,3,0,0,1,561
3120,9,1,120,9,1,1,1,644
3121,9,1,121,3,0,0,1,607
3122,9,1,122,11,1,1,1,884
3123,9,1,123,3,0,0,1,648
3124,9,1,124,7,0,0,1,553
3125,9,1,125,7,1,1,1,684
3126,9,1,126,3,1,1,1,509
3127,9,1,127,7,1,1,0,514
3128,9,1,128,3,0,0,1,695
3129,9,1,129,11,0,0,1,2023
3130,9,1,130,2,0,0,1,641
3131,9,1,131,11,1,1,1,579
3132,9,1,132,3,0,0,1,538
3133,9,1,133,11,1,1,1,556
3134,9,1,134,3,0,0,1,520
3135,9,1,135,3,0,0,1,735
3136,9,1,136,11,1,1,1,664
3137,9,1,137,2,1,1,1,491
3138,9,1,138,7,1,1,1,979
3139,9,1,139,3,1,1,1,721
3140,9,1,140,9,0,0,1,1019
3141,9,1,141,2,0,0,1,558
3142,9,1,142,2,1,1,1,319
3143,9,1,143,3,1,1,1,489
3144,9,1,144,2,0,0,1,458
3145,9,1,145,11,0,0,1,1906
3146,9,1,146,5,0,0,1,1052
3147,9,1,147,11,0,0,1,1741
3148,9,1,148,7,0,0,1,1153
3149,9,1,149,11,1,1,1,1306
3150,9,1,150,3,0,0,1,514
3151,9,1,151,3,0,0,1,584
3152,9,1,152,5,0,0,1,596
3153,9,1,153,3,0,0,1,559
3154,9,1,154,9,0,0,1,1899
3155,9,1,155,5,1,1,1,715
3156,9,1,156,11,1,1,1,1627
3157,9,1,157,7,1,1,1,907
3158,9,1,158,9,1,1,1,866
3159,9,1,159,3,0,0,1,785
3160,9,1,160,11,0,0,1,2000
3161,9,1,161,5,0,0,1,1401
3162,9,1,162,2,0,0,1,959
3163,9,1,163,7,1,1,1,538
3164,9,1,164,7,0,0,1,1373
3165,9,1,165,3,0,0,1,1178
3166,9,1,166,11,1,1,1,532
3167,9,1,167,11,1,1,1,1018
3168,9,1,168,3,1,1,1,602
3169,9,1,169,2,1,1,1,577
3170,9,1,170,3,0,0,1,735
3171,9,1,171,9,1,1,1,1063
3172,9,1,172,3,1,1,1,778
3173,9,1,173,9,1,1,1,1308
3174,9,1,174,3,0,0,1,776
3175,9,1,175,7,0,0,1,1446
3176,9,1,176,11,0,0,1,1397
3177,9,1,177,11,0,0,1,835
3178,9,1,178,11,1,1,1,689
3179,9,1,179,3,0,0,1,513
3180,9,1,180,11,0,0,1,885
3181,9,1,181,5,1,1,1,653
3182,9,1,182,7,1,1,1,622
3183,9,1,183,3,0,0,1,1352
3184,9,1,184,9,1,1,1,594
3185,9,1,185,3,1,1,1,636
3186,9,1,186,3,1,1,1,448
3187,9,1,187,2,1,1,1,426
3188,9,1,188,3,0,0,1,625
3189,9,1,189,5,1,1,1,576
3190,9,1,190,3,1,1,1,457
3191,9,1,191,5,0,0,1,1088
3192,9,1,192,3,1,1,1,555
3193,9,1,193,7,0,0,1,1072
3194,9,1,194,5,0,0,1,595
3195,9,1,195,3,0,0,1,536
3196,9,1,196,9,0,0,1,1049
3197,9,1,197,3,1,1,1,491
3198,9,1,198,9,1,1,0,1195
3199,9,1,199,7,0,0,1,933
3200,9,1,200,3,0,0,1,557
3201,9,1,201,3,0,0,1,693
3202,9,1,202,7,1,1,1,607
3203,9,1,203,7,1,1,1,587
3204,9,1,204,3,1,1,1,449
3205,9,1,205,3,1,1,1,448
3206,9,1,206,3,0,0,1,704
3207,9,1,207,3,0,0,1,900
3208,9,1,208,3,1,1,1,565
3209,9,1,209,7,0,0,1,981
3210,9,1,210,3,1,1,1,588
3211,9,1,211,7,0,0,1,929
3212,9,1,212,11,0,0,1,1116
3213,9,1,213,11,1,1,1,1171
3214,9,1,214,3,1,1,1,741
3215,9,1,215,3,0,0,1,591
3216,9,1,216,11,1,1,1,888
3217,9,1,217,2,0,0,1,878
3218,9,1,218,2,1,1,1,1385
3219,9,1,219,3,1,1,1,1713
3220,9,1,220,2,1,1,1,546
3221,9,1,221,3,0,0,1,703
3222,9,1,222,3,0,0,1,888
3223,9,1,223,2,1,1,1,1225
3224,9,1,224,3,0,0,1,652
3225,9,1,225,7,1,1,1,624
3226,9,1,226,3,0,0,1,650
3227,9,1,227,7,1,1,1,704
3228,9,1,228,11,0,0,1,1086
3229,9,1,229,3,0,0,1,640
3230,9,1,230,5,0,0,1,717
3231,9,1,231,2,0,0,1,820
3232,9,1,232,5,1,1,0,1076
3233,9,1,233,5,0,0,1,1158
3234,9,1,234,2,1,1,1,580
3235,9,1,235,3,1,1,1,731
3236,9,1,236,7,0,0,1,1782
3237,9,1,237,3,1,1,1,511
3238,9,1,238,2,1,1,1,1048
3239,9,1,239,3,1,1,1,670
3240,9,1,240,3,1,1,1,422
3241,9,1,241,5,1,1,1,622
3242,9,1,242,3,0,0,1,886
3243,9,1,243,3,1,1,1,632
3244,9,1,244,3,1,1,1,654
3245,9,1,245,7,0,0,1,1114
3246,9,1,246,3,1,1,1,584
3247,9,1,247,3,1,1,1,488
3248,9,1,248,2,1,1,1,651
3249,9,1,249,11,0,0,1,1236
3250,9,1,250,11,0,0,1,1636
3251,9,1,251,3,1,1,1,531
3252,9,1,252,3,0,0,1,521
3253,9,1,253,7,0,0,1,1010
3254,9,1,254,2,0,0,1,601
3255,9,1,255,11,1,1,1,895
3256,9,1,256,9,0,0,1,1052
3257,9,1,257,11,1,1,1,1333
3258,9,1,258,3,0,0,1,808
3259,9,1,259,9,1,1,1,901
3260,9,1,260,11,0,0,1,1297
3261,9,1,261,2,1,1,1,618
3262,9,1,262,7,0,0,1,977
3263,9,1,263,3,0,0,1,566
3264,9,1,264,11,0,0,1,1450
3265,9,1,265,7,1,1,1,959
3266,9,1,266,3,1,1,1,593
3267,9,1,267,3,0,0,1,699
3268,9,1,268,11,0,0,1,1437
3269,9,1,269,3,0,0,1,908
3270,9,1,270,2,1,1,1,739
3271,9,1,271,3,0,0,1,1346
3272,9,1,272,3,1,1,1,586
3273,9,1,273,7,1,1,1,957
3274,9,1,274,7,0,0,1,1033
3275,9,1,275,7,0,0,1,1147
3276,9,1,276,11,0,0,1,2213
3277,9,1,277,2,0,0,1,667
3278,9,1,278,3,0,0,1,613
3279,9,1,279,7,0,0,1,752
3280,9,1,280,9,1,1,1,836
3281,9,1,281,7,0,0,1,1103
3282,9,1,282,9,0,0,1,1258
3283,9,1,283,2,0,0,1,827
3284,9,1,284,3,1,1,1,640
3285,9,1,285,3,0,0,1,707
3286,9,1,286,9,1,1,1,766
3287,9,1,287,2,1,1,1,478
3288,9,1,288,9,1,1,1,842
3289,9,1,289,5,1,1,1,703
3290,9,1,290,9,1,1,1,515
3291,9,1,291,9,1,1,1,741
3292,9,1,292,2,0,0,1,647
3293,9,1,293,11,0,0,1,1720
3294,9,1,294,2,0,0,1,709
3295,9,1,295,9,0,0,1,1608
3296,9,1,296,9,1,1,1,609
3297,9,1,297,7,1,1,1,708
3298,9,1,298,11,0,0,1,949
3299,9,1,299,3,0,0,1,669
3300,9,1,300,9,1,1,1,1149
3301,9,1,301,3,1,1,1,820
3302,9,1,302,3,0,0,1,558
3303,9,1,303,11,1,1,1,877
3304,9,1,304,3,0,0,1,593
3305,9,1,306,9,1,1,0,1230
3306,9,1,307,7,0,0,1,1503
3307,9,1,309,7,1,1,1,679
3308,9,1,311,2,0,0,1,617
3309,9,1,312,11,0,0,1,2226
3310,9,1,313,9,1,1,1,842
3311,9,1,314,5,1,1,1,803
3312,9,1,315,5,0,0,1,1145
3313,9,1,316,7,1,1,1,535
3314,9,1,317,9,1,1,1,777
3315,9,1,318,11,0,0,0,674
3316,9,1,319,5,0,0,1,1000
3317,9,1,320,2,1,1,1,509
3318,9,1,321,2,1,1,1,562
3319,9,1,322,7,1,1,1,552
3320,9,1,323,5,0,0,1,619
3321,9,1,324,9,1,1,1,560
3322,9,1,326,9,0,0,1,1430
3323,9,1,327,5,0,0,1,688
3324,9,1,328,11,1,1,1,620
3325,9,1,331,9,0,0,1,875
3326,9,1,332,5,0,0,1,629
3327,9,1,333,9,0,0,1,1543
3328,9,1,334,9,1,1,1,1128
3329,9,1,335,9,1,1,1,646
3330,9,1,336,5,1,1,1,961
3331,9,1,338,9,0,0,1,1139
3332,9,1,339,7,0,0,1,1586
3333,9,1,340,11,1,1,1,838
3334,9,1,341,9,0,0,1,746
3335,9,1,342,5,0,0,1,1097
3336,9,1,344,11,0,0,1,2370
3337,9,1,345,5,0,0,1,1038
3338,9,1,346,2,0,0,1,641
3339,9,1,347,2,1,1,1,561
3340,9,1,349,5,1,1,1,566
3341,9,1,351,2,1,1,1,568
3342,9,1,352,2,1,1,1,392
3343,9,1,353,5,0,0,1,838
3344,9,1,354,5,1,1,1,700
3345,9,1,356,5,0,0,1,935
3346,9,1,358,5,1,1,1,703
3347,9,1,359,2,0,0,1,721
3348,9,1,360,2,0,0,1,844
3349,9,1,361,9,1,1,1,1234
3350,9,1,362,11,0,0,1,1667
3351,9,1,363,11,0,0,1,1783
3352,9,1,365,7,0,0,1,1129
3353,9,1,366,5,0,0,1,657
3354,9,1,367,7,0,0,1,2349
3355,9,1,369,11,0,0,1,2300
3356,9,1,370,9,1,1,1,660
3357,9,1,372,9,0,0,1,761
3358,9,1,374,5,0,0,1,709
3359,9,1,375,5,1,1,1,1126
3360,9,1,376,7,0,0,1,1201
3361,9,1,377,11,0,0,1,1966
3362,9,1,378,5,1,1,1,880
3363,9,1,379,2,0,0,1,693
3364,9,1,380,9,0,0,1,1778
3365,9,1,381,5,1,1,1,1625
3366,9,1,382,2,1,1,1,564
3367,9,1,383,9,0,0,1,927
3368,9,1,384,2,1,1,1,451
3369,9,1,385,5,1,1,1,743
3370,9,1,386,2,1,1,1,767
3371,9,1,388,9,0,0,1,1217
3372,9,1,390,11,0,0,1,1263
3373,9,1,392,7,1,1,1,471
3374,9,1,393,7,1,1,1,731
3375,9,1,395,5,0,0,1,1709
3376,9,1,396,2,1,1,1,888
3377,9,1,397,11,1,1,1,993
3378,9,1,398,7,1,1,1,847
3379,9,1,400,5,0,0,1,956
3380,9,1,401,9,1,1,1,1084
3381,9,1,402,2,0,0,1,1388
3382,9,1,403,5,1,1,1,2025
3383,9,1,404,11,0,0,1,2132
3384,9,1,405,9,0,0,1,1003
3385,9,1,406,5,0,0,1,978
3386,9,1,409,7,1,1,1,1751
3387,9,1,410,9,0,0,1,1676
3388,9,1,411,7,1,1,1,1430
3389,9,1,413,5,0,0,1,929
3390,9,1,414,5,1,1,1,867
3391,9,1,418,9,1,1,1,714
3392,9,1,419,2,0,0,0,520
3393,9,1,420,2,1,1,1,685
3394,9,1,421,9,0,0,1,1385
3395,9,1,422,5,1,1,1,697
3396,9,1,423,11,1,1,1,906
3397,9,1,424,5,1,1,1,586
3398,9,1,425,7,1,1,1,484
3399,9,1,427,5,0,0,1,800
3400,9,1,428,9,1,1,1,728
3401,9,1,429,9,0,0,1,1432
3402,9,1,430,2,0,0,1,733
3403,9,1,431,7,0,0,1,1648
3404,9,1,432,11,1,1,1,2336
3405,9,1,433,11,1,1,1,549
3406,9,1,434,9,0,0,1,1215
3407,9,1,435,2,1,1,1,498
3408,9,1,436,7,0,0,1,804
3409,9,1,438,2,0,0,1,671
3410,9,1,441,2,0,0,1,1301
3411,9,1,442,5,1,1,1,573
3412,9,1,444,5,0,0,1,985
3413,9,1,448,11,0,0,1,1879
3414,9,1,451,7,1,1,1,3128
3415,9,1,452,5,1,1,1,600
3416,9,1,454,2,0,0,1,826
3417,9,1,455,9,1,1,1,678
3418,9,1,457,5,1,1,1,891
3419,9,1,458,11,0,0,1,1618
3420,9,1,459,5,1,1,1,679
3421,9,1,460,5,1,1,1,1456
3422,9,1,461,11,0,0,1,1240
3423,9,1,462,9,0,0,1,963
3424,9,1,463,11,1,1,1,901
3425,9,1,464,11,0,0,0,1882
3426,9,1,465,7,1,1,1,1782
3427,9,1,466,7,0,0,1,1434
3428,9,1,467,2,0,0,1,746
3429,9,1,468,7,0,0,1,1624
3430,9,1,470,5,1,1,1,757
3431,9,1,471,7,0,0,1,1513
3432,9,1,474,11,1,1,1,859
3433,9,1,475,5,1,1,1,539
3434,9,1,476,2,0,0,0,875
3435,9,1,477,9,1,1,1,963
3436,9,1,478,9,1,1,1,868
3437,9,1,480,5,0,0,1,896
3438,9,1,481,5,1,1,1,673
3439,9,1,483,7,0,0,1,912
3440,9,1,484,7,1,1,1,617
3441,9,1,486,2,0,0,1,696
3442,9,1,487,7,0,0,1,938
3443,9,1,488,5,1,1,1,880
3444,9,1,489,9,1,1,1,715
3445,9,1,490,9,1,1,1,675
3446,9,1,491,2,1,1,1,580
3447,9,1,492,7,0,0,1,1086
3448,9,1,493,5,1,1,1,829
3449,9,1,494,9,1,1,1,966
3450,9,1,495,11,1,1,1,655
3451,9,1,496,9,0,0,1,2170
3452,9,1,497,2,1,1,1,806
3453,9,1,498,2,0,0,1,756
3454,9,1,499,2,0,0,1,1539
3455,9,1,500,2,1,1,1,621
3456,9,1,501,2,1,1,1,985
3457,9,1,502,5,0,0,1,795
3458,9,1,505,9,1,1,1,832
3459,9,1,506,5,1,1,1,1153
3460,9,1,507,7,1,1,1,1384
3461,9,1,508,5,0,0,1,1018
3462,9,1,509,11,0,0,1,1251
3463,9,1,510,9,0,0,1,2605
3464,9,1,511,7,0,0,1,1048
3465,9,1,512,2,1,1,1,598
3466,9,1,513,7,1,1,1,571
3467,9,1,514,7,1,1,1,712
3468,9,1,515,2,0,0,1,487
3469,9,1,516,7,0,0,1,1528
3470,9,1,517,11,0,0,1,2530
3471,9,1,519,5,0,0,1,967
3472,9,1,520,5,0,0,1,929
3473,9,1,522,2,1,1,1,1036
3474,9,1,523,11,0,0,1,1797
3475,9,1,524,5,1,1,1,747
3476,9,1,525,7,1,1,1,1883
3477,9,1,526,11,0,0,1,2228
3478,9,1,527,9,1,1,1,1567
3479,9,1,528,7,1,1,1,627
3480,9,1,529,7,0,0,1,1370
3481,9,1,531,7,1,1,1,639
3482,9,1,532,2,0,0,1,1370
3483,9,1,533,11,1,1,1,1584
3484,9,1,534,5,1,1,1,1045
3485,9,1,535,11,1,1,1,710
3486,9,1,536,9,0,0,1,2108
3487,9,1,537,9,1,1,1,860
3488,9,1,539,9,0,0,1,2876
3489,9,1,540,11,0,0,1,1354
3490,9,1,541,2,0,0,1,723
3491,9,1,542,9,1,1,1,674
3492,9,1,543,9,0,0,1,1838
3493,9,1,544,9,0,0,1,1801
3494,9,1,546,2,0,0,1,763
3495,9,1,548,5,0,0,1,1496
3496,9,1,549,7,0,0,1,933
3497,9,1,550,7,1,1,1,1440
3498,9,1,552,2,0,0,1,915
3499,9,1,554,11,1,1,1,682
3500,9,1,556,9,1,1,1,561
3501,9,1,558,7,0,0,1,744
3502,9,1,559,2,0,0,1,535
3503,9,1,560,11,1,1,1,1075
3504,9,1,561,9,0,0,1,1738
3505,9,1,562,2,1,1,1,543
3506,9,1,563,2,0,0,1,605
3507,9,1,565,11,0,0,1,1893
3508,9,1,567,9,0,0,1,1184
3509,9,1,568,11,1,1,1,1107
3510,9,1,569,11,0,0,1,2659
3511,9,1,570,2,1,1,1,572
3512,9,1,571,7,1,1,1,580
3513,9,1,573,11,0,0,1,1141
3514,9,1,575,7,0,0,1,623
3515,9,1,576,5,0,0,1,1362
3516,9,1,577,7,1,1,0,2469
3517,9,1,581,11,1,1,1,779
3518,9,1,584,11,0,0,1,2533
3519,9,1,585,9,1,1,1,870
3520,9,1,586,11,1,1,1,1950
3521,9,1,587,9,0,0,1,2267
3522,9,1,589,9,1,1,1,1164
3523,9,1,592,2,1,1,1,567
3524,9,1,594,9,0,0,1,1210
3525,9,1,597,5,1,1,1,631
3526,9,1,599,7,1,1,1,837
3527,9,1,602,5,1,1,1,802
3528,9,1,603,5,1,1,1,585
3529,9,1,604,7,0,0,1,1668
3530,9,1,605,2,0,0,1,594
3531,9,1,606,5,0,0,1,1437
3532,9,1,607,11,0,0,1,2457
3533,9,1,608,2,1,1,1,720
3534,9,1,609,9,0,0,1,1215
3535,9,1,610,5,0,0,0,2493
3536,9,1,611,5,1,1,1,545
3537,9,1,613,2,1,1,1,785
3538,9,1,614,9,1,1,1,625
3539,9,1,615,5,0,0,1,1259
3540,9,1,618,7,1,1,1,1011
3541,9,1,619,9,1,1,1,650
3542,9,1,620,2,1,1,1,895
3543,9,1,621,5,0,0,1,889
3544,9,1,622,2,1,1,1,643
3545,9,1,623,9,0,0,1,1464
3546,9,1,624,9,0,0,1,886
3547,9,1,625,11,1,1,1,1013
3548,9,1,626,11,1,1,1,672
3549,9,1,627,7,1,1,1,979
3550,9,1,628,11,1,1,1,1004
3551,9,1,629,7,1,1,1,497
3552,9,1,631,2,0,0,1,689
3553,9,1,632,2,0,0,1,817
3554,9,1,634,7,0,0,1,911
3555,9,1,635,11,0,0,1,1598
3556,9,1,636,9,0,0,1,1036
3557,9,1,637,11,1,1,1,2037
3558,9,1,638,5,0,0,1,1466
3559,9,1,639,7,1,1,1,562
3560,9,1,640,11,0,0,1,1581
3561,9,1,641,5,1,1,1,697
3562,9,1,642,11,0,0,1,1302
3563,9,1,643,9,0,0,0,1444
3564,9,1,644,2,0,0,1,762
3565,9,1,645,11,0,0,1,1724
3566,9,1,646,7,1,1,1,2921
3567,9,1,648,9,0,0,1,1765
3568,9,1,649,5,0,0,1,3686
3569,9,1,650,7,1,1,1,1057
3570,9,1,651,5,1,1,1,1721
3571,9,1,652,11,0,0,1,2736
3572,9,1,653,9,0,0,1,1952
3573,9,1,654,9,0,0,1,1846
3574,9,1,655,11,1,1,1,1058
3575,9,1,656,5,1,1,1,618
3576,9,1,657,11,0,0,1,1782
3577,9,1,659,7,0,0,1,2227
3578,9,1,661,5,0,0,1,916
3579,9,1,662,5,1,1,1,2266
3580,9,1,663,7,0,0,1,1133
3581,9,1,664,11,0,0,1,2221
3582,9,1,665,2,1,1,1,674
3583,9,1,666,2,0,0,1,723
3584,9,1,667,2,1,1,1,1959
3585,9,1,668,9,1,1,1,1553
3586,9,1,669,11,0,0,1,3489
3587,9,1,671,9,1,1,1,605
3588,9,1,672,9,1,1,1,1470
3589,9,1,673,5,0,0,1,1202
3590,9,1,674,2,0,0,1,641
3591,9,1,675,9,1,1,0,2917
3592,9,1,677,9,0,0,1,1725
3593,9,1,679,9,1,1,1,1163
3594,9,1,680,2,0,0,1,1739
3595,9,1,681,5,0,0,1,1901
3596,9,1,683,11,0,0,1,3368
3597,9,1,684,7,1,1,1,879
3598,9,1,685,9,1,1,1,586
3599,9,1,688,5,0,0,1,1457
3600,9,1,689,9,0,0,1,1783
3601,10,1,1,3,0,0,0,1567
3602,10,1,2,5,1,1,1,1206
3603,10,1,3,11,0,0,1,1303
3604,10,1,4,9,1,1,1,1468
3605,10,1,5,2,0,0,1,900
3606,10,1,6,3,1,1,1,674
3607,10,1,7,3,1,1,1,487
3608,10,1,8,3,1,1,1,900
3609,10,1,9,9,0,0,1,1405
3610,10,1,10,3,1,1,1,685
3611,10,1,11,2,0,0,0,723
3612,10,1,12,3,1,1,1,791
3613,10,1,13,3,1,1,1,590
3614,10,1,14,3,0,0,1,483
3615,10,1,15,7,0,0,1,992
3616,10,1,16,9,1,1,0,1384
3617,10,1,17,5,0,0,0,1027
3618,10,1,18,7,1,1,1,1062
3619,10,1,19,5,0,0,1,1081
3620,10,1,20,7,0,0,1,1175
3621,10,1,21,7,0,0,1,1875
3622,10,1,22,2,0,0,1,647
3623,10,1,23,11,1,1,1,1033
3624,10,1,24,3,0,0,1,825
3625,10,1,25,3,1,1,1,644
3626,10,1,26,3,1,1,1,850
3627,10,1,27,11,0,0,1,1429
3628,10,1,28,9,1,1,1,1871
3629,10,1,29,7,1,1,1,1796
3630,10,1,30,2,1,1,0,655
3631,10,1,31,2,1,1,1,840
3632,10,1,32,3,1,1,1,683
3633,10,1,33,7,0,0,1,1968
3634,10,1,34,11,1,1,1,985
3635,10,1,35,3,0,0,1,1036
3636,10,1,36,3,0,0,1,985
3637,10,1,37,7,1,1,1,602
3638,10,1,38,3,1,1,1,537
3639,10,1,39,3,0,0,1,755
3640,10,1,40,5,0,0,1,752
3641,10,1,41,9,0,0,1,1192
3642,10,1,42,5,0,0,1,687
3643,10,1,43,2,1,1,1,684
3644,10,1,44,11,1,1,0,1041
3645,10,1,45,3,1,1,1,544
3646,10,1,46,3,0,0,1,1059
3647,10,1,47,5,1,1,1,517
3648,10,1,48,5,1,1,1,942
3649,10,1,49,9,0,0,1,1066
3650,10,1,50,7,0,0,1,1362
3651,10,1,51,3,0,0,1,556
3652,10,1,52,3,1,1,1,880
3653,10,1,53,3,0,0,1,639
3654,10,1,54,2,0,0,1,989
3655,10,1,55,3,1,1,1,647
3656,10,1,56,5,1,1,1,876
3657,10,1,57,7,1,1,1,523
3658,10,1,58,7,1,1,1,780
3659,10,1,59,3,0,0,1,611
3660,10,1,60,3,1,1,1,590
3661,10,1,61,3,0,0,1,689
3662,10,1,62,11,1,1,1,1046
3663,10,1,63,7,1,1,1,857
3664,10,1,64,2,0,0,1,903
3665,10,1,65,9,1,1,1,739
3666,10,1,66,5,1,1,1,937
3667,10,1,67,2,1,1,1,420
3668,10,1,68,5,0,0,1,857
3669,10,1,69,2,0,0,1,502
3670,10,1,70,3,1,1,1,870
3671,10,1,71,2,1,1,1,711
3672,10,1,72,11,0,0,1,1330
3673,10,1,73,7,1,1,1,523
3674,10,1,74,3,0,0,1,976
3675,10,1,75,5,1,1,1,548
3676,10,1,76,3,0,0,1,707
3677,10,1,77,2,1,1,1,609
3678,10,1,78,2,0,0,1,624
3679,10,1,79,7,1,1,1,579
3680,10,1,80,3,0,0,1,616
3681,10,1,81,5,0,0,1,1402
3682,10,1,82,11,0,0,1,1523
3683,10,1,83,7,1,1,1,690
3684,10,1,84,3,1,1,1,559
3685,10,1,85,9,0,0,1,1546
3686,10,1,86,3,1,1,1,843
3687,10,1,87,3,0,0,1,616
3688,10,1,88,9,1,1,1,546
3689,10,1,89,11,1,1,1,501
3690,10,1,90,3,1,1,1,406
3691,10,1,91,2,0,0,1,1541
3692,10,1,92,5,0,0,1,791
3693,10,1,93,7,1,1,1,500
3694,10,1,94,3,1,1,1,496
3695,10,1,95,3,0,0,1,615
3696,10,1,96,9,1,1,1,876
3697,10,1,97,7,0,0,1,1050
3698,10,1,98,9,1,1,1,877
3699,10,1,99,7,1,1,1,493
3700,10,1,100,2,1,1,1,699
3701,10,1,101,9,1,1,1,1189
3702,10,1,102,9,0,0,1,1026
3703,10,1,103,7,0,0,1,1595
3704,10,1,104,3,0,0,1,622
3705,10,1,105,11,0,0,1,1109
3706,10,1,106,11,0,0,1,1078
3707,10,1,107,9,0,0,1,1053
3708,10,1,108,11,0,0,1,1034
3709,10,1,109,3,1,1,1,808
3710,10,1,110,2,1,1,1,532
3711,10,1,111,9,0,0,1,1542
3712,10,1,112,11,0,0,1,1596
3713,10,1,113,3,1,1,1,507
3714,10,1,114,11,1,1,1,957
3715,10,1,115,5,1,1,1,586
3716,10,1,116,2,1,1,1,956
3717,10,1,117,3,0,0,1,856
3718,10,1,118,11,1,1,1,1433
3719,10,1,119,11,1,1,1,917
3720,10,1,120,11,0,0,1,1207
3721,10,1,121,3,0,0,1,763
3722,10,1,122,9,1,1,1,760
3723,10,1,123,2,1,1,1,520
3724,10,1,124,5,0,0,1,636
3725,10,1,125,3,0,0,1,631
3726,10,1,126,2,1,1,1,408
3727,10,1,127,5,1,1,1,456
3728,10,1,128,9,1,1,1,648
3729,10,1,129,11,1,1,0,922
3730,10,1,130,9,1,1,1,613
3731,10,1,131,7,1,1,1,677
3732,10,1,132,11,0,0,1,879
3733,10,1,133,2,0,0,1,576
3734,10,1,134,3,1,1,1,561
3735,10,1,135,2,0,0,0,674
3736,10,1,136,11,0,0,1,1930
3737,10,1,137,3,0,0,1,686
3738,10,1,138,11,0,0,1,1041
3739,10,1,139,11,1,1,1,679
3740,10,1,140,9,0,0,1,522
3741,10,1,141,7,0,0,0,1120
3742,10,1,142,5,0,0,1,1042
3743,10,1,143,3,1,1,1,843
3744,10,1,144,11,0,0,0,1028
3745,10,1,145,3,0,0,1,1760
3746,10,1,146,3,1,1,1,601
3747,10,1,147,7,0,0,1,758
3748,10,1,148,11,0,0,1,1658
3749,10,1,149,3,0,0,1,823
3750,10,1,150,11,0,0,1,1209
3751,10,1,151,5,0,0,1,836
3752,10,1,152,5,0,0,1,1441
3753,10,1,153,9,0,0,0,1024
3754,10,1,154,9,1,1,1,1311
3755,10,1,155,9,1,1,1,839
3756,10,1,156,3,0,0,1,658
3757,10,1,157,11,1,1,1,1352
3758,10,1,158,11,0,0,1,1651
3759,10,1,159,3,0,0,1,828
3760,10,1,160,3,1,1,1,1037
3761,10,1,161,9,0,0,1,1794
3762,10,1,162,3,0,0,1,707
3763,10,1,163,3,1,1,1,703
3764,10,1,164,11,0,0,1,1060
3765,10,1,165,9,0,0,1,908
3766,10,1,166,3,0,0,1,699
3767,10,1,167,5,1,1,0,809
3768,10,1,168,11,1,1,1,1197
3769,10,1,169,3,1,1,1,669
3770,10,1,170,7,0,0,1,832
3771,10,1,171,5,0,0,1,731
3772,10,1,172,5,1,1,1,737
3773,10,1,173,2,1,1,1,596
3774,10,1,174,5,1,1,1,777
3775,10,1,175,5,0,0,1,1076
3776,10,1,176,7,0,0,1,1050
3777,10,1,177,5,1,1,1,808
3778,10,1,178,5,1,1,1,857
3779,10,1,179,7,1,1,1,724
3780,10,1,180,2,0,0,1,680
3781,10,1,181,11,0,0,1,1298
3782,10,1,182,7,0,0,1,802
3783,10,1,183,3,0,0,1,826
3784,10,1,184,11,1,1,1,660
3785,10,1,185,3,0,0,1,667
3786,10,1,186,9,0,0,1,1346
3787,10,1,187,11,1,1,1,698
3788,10,1,188,7,1,1,1,1001
3789,10,1,189,7,1,1,1,772
3790,10,1,190,3,1,1,1,804
3791,10,1,191,7,1,1,1,855
3792,10,1,192,2,1,1,1,547
3793,10,1,193,5,1,1,1,702
3794,10,1,194,2,1,1,1,832
3795,10,1,195,3,0,0,1,1034
3796,10,1,196,7,1,1,1,791
3797,10,1,197,3,0,0,1,909
3798,10,1,198,9,0,0,1,1070
3799,10,1,199,9,0,0,1,663
3800,10,1,200,2,1,1,1,542
3801,10,1,201,7,1,1,1,725
3802,10,1,202,3,0,0,1,790
3803,10,1,203,7,0,0,1,664
3804,10,1,204,3,1,1,0,563
3805,10,1,205,2,0,0,1,455
3806,10,1,206,3,1,1,1,575
3807,10,1,207,9,1,1,1,658
3808,10,1,208,7,1,1,1,742
3809,10,1,209,2,1,1,1,626
3810,10,1,210,3,0,0,1,374
3811,10,1,211,9,0,0,1,1092
3812,10,1,212,2,1,1,1,577
3813,10,1,213,2,0,0,1,748
3814,10,1,214,3,1,1,1,511
3815,10,1,215,3,1,1,1,708
3816,10,1,216,3,0,0,1,665
3817,10,1,217,3,1,1,1,569
3818,10,1,218,11,1,1,1,721
3819,10,1,219,3,1,1,1,714
3820,10,1,220,9,0,0,1,776
3821,10,1,221,7,1,1,1,935
3822,10,1,222,3,0,0,1,624
3823,10,1,223,3,1,1,1,517
3824,10,1,224,7,1,1,1,690
3825,10,1,225,11,0,0,1,910
3826,10,1,226,2,0,0,1,663
3827,10,1,227,11,0,0,1,1091
3828,10,1,228,9,0,0,1,881
3829,10,1,229,5,0,0,1,968
3830,10,1,230,3,1,1,1,639
3831,10,1,231,7,1,1,1,695
3832,10,1,232,11,0,0,1,893
3833,10,1,233,9,0,0,1,949
3834,10,1,234,2,1,1,1,628
3835,10,1,235,5,0,0,1,693
3836,10,1,236,3,0,0,1,600
3837,10,1,237,3,1,1,1,793
3838,10,1,238,9,0,0,1,892
3839,10,1,239,3,0,0,1,896
3840,10,1,240,5,1,1,1,600
3841,10,1,241,9,0,0,1,942
3842,10,1,242,3,0,0,1,469
3843,10,1,243,5,1,1,1,565
3844,10,1,244,2,0,0,1,974
3845,10,1,245,5,0,0,1,707
3846,10,1,246,11,0,0,1,772
3847,10,1,247,11,0,0,1,1062
3848,10,1,248,3,0,0,1,625
3849,10,1,249,5,0,0,1,600
3850,10,1,250,5,1,1,1,708
3851,10,1,251,9,1,1,1,863
3852,10,1,252,9,0,0,1,858
3853,10,1,253,3,0,0,1,619
3854,10,1,254,9,1,1,1,688
3855,10,1,255,3,0,0,1,722
3856,10,1,256,9,1,1,1,1084
3857,10,1,257,3,0,0,1,998
3858,10,1,258,9,0,0,1,813
3859,10,1,259,2,1,1,1,461
3860,10,1,260,2,0,0,1,623
3861,10,1,261,2,1,1,1,405
3862,10,1,262,3,0,0,1,790
3863,10,1,263,3,1,1,1,581
3864,10,1,264,3,0,0,1,642
3865,10,1,265,7,0,0,1,668
3866,10,1,266,9,0,0,1,927
3867,10,1,267,11,0,0,1,664
3868,10,1,268,11,1,1,1,578
3869,10,1,269,11,0,0,1,808
3870,10,1,270,3,1,1,1,504
3871,10,1,271,2,1,1,1,570
3872,10,1,272,5,1,1,1,612
3873,10,1,273,9,0,0,1,821
3874,10,1,274,2,1,1,1,638
3875,10,1,275,5,1,1,1,709
3876,10,1,276,3,1,1,1,655
3877,10,1,277,3,1,1,1,618
3878,10,1,278,7,0,0,0,901
3879,10,1,279,2,1,1,1,532
3880,10,1,280,3,0,0,1,700
3881,10,1,281,7,0,0,1,940
3882,10,1,282,11,0,0,1,883
3883,10,1,283,5,1,1,1,620
3884,10,1,284,11,0,0,1,1098
3885,10,1,285,3,1,1,1,634
3886,10,1,286,3,0,0,1,672
3887,10,1,287,7,1,1,1,599
3888,10,1,288,3,0,0,1,624
3889,10,1,289,5,0,0,1,1382
3890,10,1,290,11,0,0,1,942
3891,10,1,291,11,1,1,0,856
3892,10,1,292,7,0,0,1,666
3893,10,1,293,2,1,1,1,434
3894,10,1,294,2,0,0,1,682
3895,10,1,295,11,1,1,1,519
3896,10,1,296,3,0,0,1,656
3897,10,1,297,7,0,0,1,898
3898,10,1,298,3,1,1,1,587
3899,10,1,299,5,0,0,1,844
3900,10,1,300,3,0,0,1,860
3901,10,1,301,2,0,0,1,825
3902,10,1,302,5,0,0,1,607
3903,10,1,303,9,1,1,1,627
3904,10,1,304,2,1,1,1,614
3905,10,1,305,9,1,1,1,1175
3906,10,1,306,11,0,0,1,935
3907,10,1,307,5,0,0,1,670
3908,10,1,308,2,0,0,1,942
3909,10,1,309,7,0,0,1,870
3910,10,1,310,2,1,1,1,600
3911,10,1,311,7,1,1,1,845
3912,10,1,312,11,0,0,1,986
3913,10,1,313,2,1,1,1,613
3914,10,1,314,5,1,1,1,992
3915,10,1,315,11,0,0,1,855
3916,10,1,316,2,1,1,1,584
3917,10,1,317,9,0,0,1,927
3918,10,1,318,11,0,0,1,645
3919,10,1,319,7,1,1,1,950
3920,10,1,320,11,1,1,1,927
3921,10,1,321,7,0,0,1,614
3922,10,1,322,3,0,0,1,597
3923,10,1,323,3,0,0,1,757
3924,10,1,324,2,1,1,1,554
3925,10,1,325,3,0,0,1,857
3926,10,1,326,3,1,1,1,543
3927,10,1,327,7,0,0,1,1547
3928,10,1,328,7,0,0,1,1042
3929,10,1,329,3,0,0,1,759
3930,10,1,330,3,0,0,1,834
3931,10,1,331,2,1,1,1,954
3932,10,1,332,9,1,1,1,1058
3933,10,1,333,2,1,1,1,676
3934,10,1,334,7,0,0,1,733
3935,10,1,335,2,0,0,1,830
3936,10,1,336,9,0,0,1,781
3937,10,1,337,3,0,0,1,678
3938,10,1,338,9,0,0,1,748
3939,10,1,339,2,1,1,1,626
3940,10,1,340,3,1,1,1,696
3941,10,1,341,11,1,1,1,1359
3942,10,1,342,9,1,1,1,687
3943,10,1,345,11,0,0,1,895
3944,10,1,346,11,1,1,1,705
3945,10,1,347,11,1,1,1,929
3946,10,1,348,7,0,0,1,895
3947,10,1,350,7,1,1,1,607
3948,10,1,351,7,0,0,1,735
3949,10,1,353,2,0,0,1,500
3950,10,1,354,5,0,0,1,536
3951,10,1,356,7,1,1,1,472
3952,10,1,357,7,0,0,1,563
3953,10,1,359,11,1,1,1,680
3954,10,1,360,9,1,1,0,716
3955,10,1,362,9,0,0,1,795
3956,10,1,363,5,0,0,1,695
3957,10,1,365,2,1,1,1,413
3958,10,1,366,11,0,0,1,969
3959,10,1,367,9,1,1,1,968
3960,10,1,368,11,1,1,1,476
3961,10,1,369,5,0,0,1,792
3962,10,1,370,9,1,1,1,940
3963,10,1,372,2,1,1,1,353
3964,10,1,374,7,1,1,1,477
3965,10,1,375,5,0,0,1,791
3966,10,1,378,9,1,1,1,894
3967,10,1,379,9,1,1,1,646
3968,10,1,380,7,1,1,1,782
3969,10,1,381,5,0,0,1,927
3970,10,1,382,5,1,1,1,713
3971,10,1,383,11,1,1,0,907
3972,10,1,384,7,0,0,1,870
3973,10,1,385,9,1,1,1,1407
3974,10,1,386,2,0,0,1,677
3975,10,1,388,9,0,0,1,1209
