trial_id,Subject,block_n,Trial,numDistractors,correctResponse,keyResponse,acc,RT
1,1,1,1,8,1,1,1,3346
2,1,1,2,8,0,0,1,1968
3,1,1,3,8,1,1,1,1302
4,1,1,4,4,0,0,1,1086
5,1,1,5,8,0,0,1,2116
6,1,1,6,8,1,1,1,1520
7,1,1,7,8,0,0,1,1711
8,1,1,8,4,1,1,1,1190
9,1,1,9,8,0,0,1,3086
10,1,1,10,8,0,0,1,911
11,1,1,11,4,0,0,1,1164
12,1,1,12,4,0,0,1,699
13,1,1,13,8,1,1,1,1607
14,1,1,14,4,1,1,1,844
15,1,1,15,4,1,1,1,799
16,1,1,16,4,0,0,1,1319
17,1,1,17,8,0,0,1,1006
18,1,1,18,4,0,0,1,1078
19,1,1,19,4,1,1,1,880
20,1,1,20,8,1,1,1,1471
21,1,1,21,4,1,1,1,570
22,1,1,22,4,0,0,1,540
23,1,1,23,8,0,0,1,1034
24,1,1,24,8,0,0,1,1778
25,1,1,25,8,0,0,1,744
26,1,1,26,4,1,1,1,1172
27,1,1,27,4,1,1,1,1336
28,1,1,28,8,0,0,1,3305
29,1,1,29,4,1,1,1,1218
30,1,1,30,4,1,1,1,1580
31,1,1,31,8,1,1,1,4257
32,1,1,32,4,0,0,1,1346
33,1,1,33,4,1,1,1,685
34,1,1,34,8,1,1,1,1417
35,1,1,35,4,1,1,1,550
36,1,1,36,8,0,3,0,4994
37,1,1,37,4,0,0,1,943
38,1,1,38,4,1,1,1,642
39,1,1,39,8,1,1,1,1288
40,1,1,40,4,1,1,1,1927
41,1,1,41,8,0,0,1,2274
42,1,1,42,8,0,0,1,1304
43,1,1,43,8,0,0,1,1470
44,1,1,44,8,0,0,1,722
45,1,1,45,4,0,0,1,1085
46,1,1,46,8,0,0,1,1119
47,1,1,47,8,1,1,1,2347
48,1,1,48,4,1,1,1,1043
49,1,1,49,8,1,1,1,1056
50,1,1,50,8,1,1,1,1178
51,1,1,51,4,0,0,1,797
52,1,1,52,4,1,1,1,799
53,1,1,53,8,0,0,1,2359
54,1,1,54,4,1,1,1,1073
55,1,1,55,4,1,1,1,1098
56,1,1,56,8,1,1,1,699
57,1,1,57,8,0,0,1,1260
58,1,1,58,4,0,0,1,895
59,1,1,59,8,1,1,1,1916
60,1,1,60,8,1,1,1,799
61,1,1,61,8,0,0,1,1019
62,1,1,62,8,0,0,1,655
63,1,1,63,4,0,0,1,712
64,1,1,64,8,1,1,1,1624
65,1,1,65,4,0,0,1,890
66,1,1,66,4,1,1,1,1080
67,1,1,67,8,0,0,1,1384
68,1,1,68,8,0,0,1,1118
69,1,1,69,4,1,1,1,933
70,1,1,70,8,0,0,1,1259
71,1,1,71,8,1,1,1,767
72,1,1,72,4,1,1,1,871
73,1,1,73,8,1,1,1,1199
74,1,1,74,8,0,0,1,1536
75,1,1,75,8,1,1,1,819
76,1,1,76,4,0,0,1,1206
77,1,1,77,8,1,1,1,1289
78,1,1,78,8,1,1,1,1883
79,1,1,79,4,0,0,1,738
80,1,1,80,4,0,0,1,712
81,1,1,81,4,1,1,1,1029
82,1,1,82,4,1,1,1,718
83,1,1,83,4,1,1,1,738
84,1,1,84,8,0,0,1,975
85,1,1,85,8,1,1,1,625
86,1,1,86,4,0,0,1,923
87,1,1,87,4,0,0,1,1120
88,1,1,88,4,1,1,1,884
89,1,1,89,4,1,1,1,909
90,1,1,90,4,0,0,1,1213
91,1,1,91,8,0,0,1,1374
92,1,1,92,4,1,1,1,735
93,1,1,93,8,0,0,0,1657
94,1,1,94,8,0,0,1,867
95,1,1,95,8,1,1,1,1421
96,1,1,96,8,0,0,1,1322
97,1,1,97,8,1,1,1,1544
98,1,1,98,4,1,1,1,893
99,1,1,99,4,1,1,1,918
100,1,1,100,4,0,0,1,799
101,1,1,101,4,0,0,1,855
102,1,1,102,4,1,1,1,966
103,1,1,103,4,0,0,1,784
104,1,1,104,8,1,1,1,1335
105,1,1,105,4,1,1,1,850
106,1,1,106,8,1,1,1,1939
107,1,1,107,4,1,1,1,977
108,1,1,108,8,0,0,1,1065
109,1,1,109,8,1,1,1,960
110,1,1,110,4,0,0,1,808
111,1,1,111,4,1,1,1,696
112,1,1,112,8,0,0,1,802
113,1,1,113,4,0,0,1,741
114,1,1,114,8,0,0,1,1055
115,1,1,115,4,0,0,1,1101
116,1,1,116,4,1,1,1,933
117,1,1,117,8,1,1,1,953
118,1,1,118,8,0,0,1,915
119,1,1,119,4,1,1,1,1149
120,1,1,120,4,0,0,1,721
121,1,1,121,4,1,1,1,1105
122,1,1,122,8,0,0,1,1063
123,1,1,123,8,1,1,1,994
124,1,1,124,8,0,0,1,968
125,1,1,125,8,1,1,1,1529
126,1,1,126,4,0,0,1,1010
127,1,1,127,8,1,1,1,1433
128,1,1,128,4,1,1,1,574
129,1,1,129,4,0,0,1,603
130,1,1,130,8,1,1,1,733
131,1,1,131,8,1,1,1,882
132,1,1,132,4,0,0,1,582
133,1,1,133,8,0,0,1,1159
134,1,1,134,8,0,0,1,927
135,1,1,135,4,1,1,1,542
136,1,1,136,8,1,1,1,1325
137,1,1,137,4,0,0,1,942
138,1,1,138,4,0,0,1,1424
139,1,1,139,4,1,1,1,856
140,1,1,140,8,1,1,1,792
141,1,1,141,4,0,0,1,1305
142,1,1,142,8,0,0,0,1917
143,1,1,143,8,0,0,1,1862
144,1,1,144,8,0,0,1,645
145,1,1,145,8,0,0,1,1394
146,1,1,146,4,1,1,1,467
147,1,1,147,4,1,1,1,1140
148,1,1,148,4,1,1,1,901
149,1,1,149,4,0,0,1,627
150,1,1,150,4,0,0,1,852
151,1,1,151,8,0,0,1,1312
152,1,1,152,4,1,1,1,774
153,1,1,153,8,0,0,1,1329
154,1,1,154,4,1,1,1,747
155,1,1,155,4,1,1,1,835
156,1,1,156,8,1,1,1,702
157,1,1,157,4,0,0,1,773
158,1,1,158,8,1,1,1,1064
159,1,1,159,4,0,0,1,1183
160,1,1,160,8,1,1,1,1245
161,1,1,161,4,1,1,1,907
162,1,1,162,8,0,0,1,652
163,1,1,163,8,1,1,1,933
164,1,1,164,8,0,0,1,1073
165,1,1,165,8,0,0,1,943
166,1,1,166,4,1,1,1,902
167,1,1,167,4,1,1,1,1004
168,1,1,168,8,0,0,1,1299
169,1,1,169,4,1,1,1,885
170,1,1,170,4,0,0,1,964
171,1,1,171,4,1,1,1,835
172,1,1,172,8,0,0,1,1082
173,1,1,173,8,1,1,1,945
174,1,1,174,8,1,1,1,1427
175,1,1,175,4,1,1,1,1370
176,1,1,176,8,0,0,1,1842
177,1,1,177,4,0,0,1,883
178,1,1,178,4,0,0,1,819
179,1,1,179,4,1,1,1,668
180,1,1,180,8,1,1,1,801
181,1,1,181,8,0,0,1,1235
182,1,1,182,4,0,0,1,588
183,1,1,183,4,0,0,1,978
184,1,1,184,4,0,0,1,958
185,1,1,185,4,1,1,1,967
186,1,1,186,8,1,1,1,1704
187,1,1,187,8,0,0,1,2704
188,1,1,188,4,0,0,1,1156
189,1,1,189,8,0,0,1,1300
190,1,1,190,4,1,1,1,778
191,1,1,191,4,0,0,1,651
192,1,1,192,8,1,1,1,702
193,1,1,193,4,1,1,1,615
194,1,1,194,8,1,1,1,791
195,1,1,195,8,0,0,1,769
196,1,1,196,4,1,1,1,702
197,1,1,197,4,0,0,1,621
198,1,1,198,8,1,1,1,1274
199,1,1,199,8,1,1,1,553
200,1,1,200,4,1,1,1,605
201,1,1,201,8,1,1,1,849
202,1,1,202,4,0,0,0,344
203,1,1,203,8,0,0,1,866
204,1,1,204,8,1,1,1,1204
205,1,1,205,4,0,0,1,772
206,1,1,206,8,1,1,1,1361
207,1,1,207,8,0,0,1,1035
208,1,1,208,4,1,1,1,639
209,1,1,209,4,0,0,1,541
210,1,1,210,4,0,0,1,620
211,1,1,211,8,0,0,1,1041
212,1,1,212,8,1,1,1,1215
213,1,1,213,4,1,1,1,964
214,1,1,214,8,1,1,1,1003
215,1,1,215,8,0,0,1,688
216,1,1,216,4,1,1,1,493
217,1,1,217,4,0,0,1,522
218,1,1,218,4,1,1,1,602
219,1,1,219,8,0,0,1,1303
220,1,1,220,4,1,1,1,609
221,1,1,221,4,1,1,1,627
222,1,1,222,8,1,1,1,1164
223,1,1,223,4,1,1,1,771
224,1,1,224,8,1,1,1,857
225,1,1,225,8,0,0,1,714
226,1,1,226,4,1,1,1,789
227,1,1,227,8,1,1,1,593
228,1,1,228,8,1,1,1,1943
229,1,1,229,4,1,1,1,809
230,1,1,230,8,1,1,1,1144
231,1,1,231,4,0,0,1,752
232,1,1,232,4,1,1,1,706
233,1,1,233,4,1,1,1,1310
234,1,1,234,4,0,0,1,674
235,1,1,235,4,0,0,1,940
236,1,1,236,4,1,1,1,790
237,1,1,237,8,0,0,1,1193
238,1,1,238,8,0,0,1,759
239,1,1,239,8,0,0,1,937
240,1,1,240,8,1,1,1,1448
241,1,1,241,4,0,0,1,687
242,1,1,242,8,1,1,1,963
243,1,1,243,4,1,1,1,499
244,1,1,244,4,0,0,1,560
245,1,1,245,4,1,1,1,906
246,1,1,246,8,1,1,1,676
247,1,1,247,4,1,1,1,1086
248,1,1,248,4,0,0,1,719
249,1,1,249,8,0,0,1,735
250,1,1,250,4,0,0,1,810
251,1,1,251,8,1,1,1,496
252,1,1,252,4,0,0,1,549
253,1,1,253,4,1,1,1,600
254,1,1,254,4,1,1,1,721
255,1,1,255,8,0,0,1,770
256,1,1,256,8,1,1,1,1026
257,1,1,257,8,1,1,0,1746
258,1,1,258,4,1,1,1,794
259,1,1,259,4,1,1,1,534
260,1,1,260,8,1,1,1,973
261,1,1,261,8,1,1,1,601
262,1,1,262,8,0,0,1,723
263,1,1,263,4,1,1,1,930
264,1,1,264,4,0,0,1,917
265,1,1,265,4,1,1,1,1154
266,1,1,266,4,1,1,1,1334
267,1,1,267,4,1,1,1,1044
268,1,1,268,4,0,0,1,994
269,1,1,269,4,1,1,1,727
270,1,1,270,4,1,1,1,701
271,1,1,271,4,1,1,1,820
272,1,1,272,8,0,0,1,886
273,1,1,273,8,1,1,1,796
274,1,1,274,4,1,1,1,599
275,1,1,275,4,1,1,1,700
276,1,1,276,4,1,1,1,628
277,1,1,277,4,0,0,1,1177
278,1,1,278,4,0,0,1,1027
279,1,1,279,4,0,0,1,1254
280,1,1,280,8,1,1,1,1794
281,1,1,281,8,0,0,1,1484
282,1,1,282,4,1,1,1,699
283,1,1,283,8,1,1,1,1158
284,1,1,284,4,0,0,1,998
285,1,1,285,4,0,0,1,828
286,1,1,286,4,0,0,1,1205
287,1,1,287,4,0,0,1,1058
288,1,1,288,4,0,0,1,701
289,1,1,289,8,1,1,1,971
290,1,1,290,4,1,1,1,1792
291,1,1,291,4,1,1,1,958
292,1,1,292,8,1,1,1,2064
293,1,1,293,4,0,0,1,673
294,1,1,294,8,1,1,1,841
295,1,1,295,4,0,0,1,827
296,1,1,296,8,1,1,1,1162
297,1,1,297,4,0,0,1,659
298,1,1,298,4,0,0,1,616
299,1,1,299,4,1,1,1,438
300,1,1,300,4,0,0,1,719
301,1,1,301,8,0,0,1,1289
302,1,1,302,4,1,1,1,562
303,1,1,303,8,0,0,1,1114
304,1,1,304,4,1,1,1,468
305,1,1,305,4,0,0,1,638
306,1,1,306,4,1,1,1,1051
307,1,1,307,4,0,0,1,1188
308,1,1,308,8,1,1,1,971
309,1,1,309,4,0,0,1,1169
310,1,1,310,4,1,1,1,904
311,1,1,311,4,0,0,1,982
312,1,1,312,4,1,1,1,1093
313,1,1,313,4,0,0,1,805
314,1,1,314,8,0,0,1,1524
315,1,1,315,8,0,0,1,3255
316,1,1,316,8,0,0,1,854
317,1,1,317,4,1,1,1,641
318,1,1,318,8,0,0,1,903
319,1,1,319,8,0,0,1,1066
320,1,1,320,4,0,0,1,652
321,1,1,321,4,1,1,1,781
322,1,1,322,4,1,1,1,530
323,1,1,323,8,0,0,1,1432
324,1,1,324,4,0,0,1,848
325,1,1,325,4,0,0,1,1205
326,1,1,326,4,0,0,1,1176
327,1,1,327,4,0,0,1,1215
328,1,1,328,8,0,0,1,1093
329,1,1,329,8,0,0,1,548
330,1,1,330,8,1,1,1,1417
331,1,1,331,8,0,0,1,2470
332,1,1,332,8,0,0,1,1641
333,1,1,333,4,0,0,1,728
334,1,1,334,8,0,0,1,648
335,1,1,335,8,1,1,1,1121
336,1,1,336,4,1,1,1,1081
337,1,1,337,8,0,0,1,924
338,1,1,338,4,1,1,1,1861
339,1,1,339,4,1,1,1,1031
340,1,1,340,8,0,0,1,602
341,1,1,341,4,0,0,1,2396
342,1,1,342,8,0,0,1,1024
343,1,1,343,4,1,1,1,1942
344,1,1,344,8,0,0,1,987
345,1,1,345,8,1,1,1,844
346,1,1,346,8,1,1,1,4940
347,1,1,347,8,0,0,1,996
348,1,1,348,4,0,0,1,789
349,1,1,349,4,1,1,1,733
350,1,1,350,8,1,1,1,1376
351,1,1,351,4,1,1,1,1416
352,1,1,352,8,1,1,1,1852
353,1,1,353,8,0,0,1,1429
354,1,1,354,4,1,1,1,733
355,1,1,355,8,0,0,1,854
356,1,1,356,4,1,1,1,1177
357,1,1,357,8,0,0,1,1629
358,1,1,358,8,1,1,1,1500
359,1,1,359,4,1,1,1,1415
360,1,1,360,4,0,0,1,1713
361,1,1,361,8,1,1,1,747
362,1,1,362,4,0,0,1,784
363,1,1,363,4,0,0,1,954
364,1,1,364,4,0,0,1,675
365,1,1,365,8,1,1,1,583
366,1,1,366,8,1,1,1,614
367,1,1,367,4,1,1,1,530
368,1,1,368,4,1,1,1,651
369,1,1,369,8,1,1,1,833
370,1,1,370,4,0,0,1,882
371,1,1,371,8,0,0,1,1212
372,1,1,372,4,0,0,1,511
373,1,1,373,8,1,1,1,1214
374,1,1,374,8,1,1,1,708
375,1,1,375,4,1,1,1,1047
376,1,1,376,8,1,1,1,1494
377,1,1,377,4,1,1,1,1146
378,1,1,378,8,1,1,1,1034
379,1,1,379,4,0,0,1,955
380,1,1,380,8,0,0,1,1588
381,1,1,381,8,1,1,1,1307
382,1,1,382,4,0,0,1,1112
383,1,1,383,8,0,0,1,1478
384,1,1,384,4,0,0,1,859
385,1,1,385,4,0,0,1,905
386,1,1,386,8,1,1,1,2519
387,1,1,387,4,0,0,1,730
388,1,1,388,8,0,0,1,1486
389,1,1,389,4,0,0,1,1089
390,1,1,390,4,0,0,1,734
391,1,1,391,8,1,1,1,723
392,1,1,392,4,0,0,1,1256
393,1,1,393,8,0,0,1,1175
394,1,1,394,8,1,1,1,604
395,1,1,395,8,0,0,1,1323
396,1,1,396,8,1,1,1,945
397,1,1,397,4,1,1,1,653
398,1,1,398,8,0,0,1,807
399,1,1,399,8,0,0,1,921
400,1,1,400,8,1,1,1,795
401,1,1,401,8,1,1,1,1819
402,1,1,402,8,1,1,1,547
403,1,1,403,8,0,0,1,542
404,1,1,404,4,0,0,1,597
405,1,1,405,8,1,1,1,692
406,1,1,406,8,1,1,1,1253
407,1,1,407,8,1,1,1,1638
408,1,1,408,4,1,1,1,484
409,1,1,409,8,1,1,1,898
410,1,1,410,4,0,0,0,548
411,1,1,411,8,1,1,1,1880
412,1,1,412,8,1,1,1,859
413,1,1,413,8,0,0,1,1399
414,1,1,414,8,1,1,1,987
415,1,1,415,8,0,0,1,851
416,1,1,416,8,0,0,1,732
417,1,1,417,4,1,1,1,1163
418,1,1,418,4,1,1,1,679
419,1,1,419,8,1,1,1,1251
420,1,1,420,8,0,0,1,1302
421,1,1,421,8,1,1,1,1764
422,1,1,422,8,1,1,1,1508
423,1,1,423,8,0,0,1,2443
424,1,1,424,8,0,0,1,477
425,1,1,425,4,1,1,1,1023
426,1,1,426,4,0,0,1,916
427,1,1,427,4,0,0,1,827
428,1,1,428,8,0,0,1,605
429,1,1,429,4,1,1,1,725
430,1,1,430,4,0,0,1,751
431,1,1,431,8,1,1,1,720
432,1,1,432,4,1,1,1,625
433,1,1,433,8,0,0,1,1182
434,1,1,434,4,1,1,1,979
435,1,1,435,4,1,1,1,708
436,1,1,436,4,0,0,1,928
437,1,1,437,4,1,1,1,1551
438,1,1,438,4,0,0,1,1073
439,1,1,439,8,0,0,1,1223
440,1,1,440,8,0,0,1,1074
441,1,1,441,8,0,0,1,1609
442,1,1,442,8,1,1,1,1282
443,1,1,443,4,1,1,1,1026
444,1,1,444,4,0,0,1,920
445,1,1,445,8,0,0,1,1759
446,1,1,446,4,0,0,1,861
447,1,1,447,4,0,0,1,713
448,1,1,448,8,1,1,1,896
449,1,1,449,8,0,0,1,492
450,1,1,450,8,1,1,1,2173
451,1,1,451,4,0,0,1,823
452,1,1,452,8,0,0,1,658
453,1,1,453,4,1,1,1,694
454,1,1,454,8,1,1,1,1021
455,1,1,455,8,1,1,1,864
456,1,1,456,8,1,1,1,552
457,1,1,457,8,1,1,1,1043
458,1,1,458,4,0,0,1,1437
459,1,1,459,4,0,0,1,665
460,1,1,460,8,0,0,1,917
461,1,1,461,8,0,0,1,1301
462,1,1,462,8,0,0,1,1083
463,1,1,463,8,1,1,1,770
464,1,1,464,8,0,0,1,1420
465,1,1,465,8,1,1,1,2032
466,1,1,466,4,1,1,1,643
467,1,1,467,8,1,1,1,895
468,1,1,468,4,0,0,1,815
469,1,1,469,8,0,0,1,891
470,1,1,470,4,0,0,1,682
471,1,1,471,4,0,0,1,1113
472,1,1,472,4,1,1,1,813
473,1,1,473,8,1,1,1,721
474,1,1,474,4,0,0,1,1033
475,1,1,475,8,1,1,1,822
476,1,1,476,4,0,0,1,1042
477,1,1,477,8,1,1,1,1329
478,1,1,478,8,1,1,1,1203
479,1,1,479,8,1,1,1,916
480,1,1,480,4,1,1,1,723
481,1,1,481,4,1,1,1,707
482,1,1,482,8,1,1,1,804
483,1,1,483,8,0,0,1,777
484,1,1,484,4,1,1,1,963
485,1,1,485,8,0,0,1,1384
486,1,1,486,8,1,1,1,980
487,1,1,487,8,0,0,1,1340
488,1,1,488,4,1,1,1,666
489,1,1,489,4,1,1,1,1266
490,1,1,490,8,1,1,1,1076
491,1,1,491,4,0,0,1,941
492,1,1,492,8,0,0,1,1271
493,1,1,493,4,0,0,1,805
494,1,1,494,4,0,0,1,1061
495,1,1,495,8,0,0,1,1044
496,1,1,496,4,1,1,1,1083
497,1,1,497,4,0,0,1,982
498,1,1,498,8,1,1,1,711
499,1,1,499,8,0,0,1,756
500,1,1,500,4,0,0,1,467
501,1,1,501,8,1,1,1,1316
502,1,1,502,8,1,1,1,2337
503,1,1,503,8,1,1,1,601
504,1,1,504,4,1,1,1,935
505,1,1,505,8,1,1,1,836
506,1,1,506,8,1,1,1,1012
507,1,1,507,8,0,0,1,805
508,1,1,508,8,1,1,1,1777
509,1,1,509,4,1,1,1,959
510,1,1,510,8,1,1,1,855
511,1,1,511,8,0,0,1,592
512,1,1,512,4,1,1,1,621
513,1,1,513,8,1,1,1,815
514,1,1,514,8,1,1,1,739
515,1,1,515,4,0,0,1,1297
516,1,1,516,8,0,0,1,1619
517,1,1,517,8,0,0,1,1616
518,1,1,518,8,0,0,1,1813
519,1,1,519,8,0,0,1,1279
520,1,1,520,4,0,0,1,1169
521,1,1,521,4,0,0,1,753
522,1,1,522,4,1,1,1,648
523,1,1,523,8,0,0,1,857
524,1,1,524,4,1,1,1,1066
525,1,1,525,8,1,1,1,2859
526,1,1,526,8,0,0,1,564
527,1,1,527,4,0,0,1,975
528,1,1,528,4,0,0,1,813
529,1,1,529,4,1,1,1,814
530,1,1,530,8,0,0,1,596
531,1,1,531,4,1,1,1,615
532,1,1,532,4,0,0,1,1656
533,1,1,533,4,1,1,1,2990
534,1,1,534,4,0,0,1,1424
535,1,1,535,4,0,0,1,603
536,1,1,536,8,1,1,1,1428
537,1,1,537,8,0,0,1,1843
538,1,1,538,4,0,0,1,1525
539,1,1,539,8,1,1,1,1528
540,1,1,540,4,0,0,1,2002
541,1,1,541,4,0,0,1,569
542,1,1,542,4,1,1,1,905
543,1,1,543,8,0,0,1,1231
544,1,1,544,4,1,1,1,1133
545,1,1,545,4,1,1,1,628
546,1,1,546,8,1,1,1,1565
547,1,1,547,8,0,0,1,870
548,1,1,548,8,0,0,1,1287
549,1,1,549,4,0,0,1,660
550,1,1,550,4,0,0,1,1266
551,1,1,551,4,0,0,1,753
552,1,1,552,4,1,1,1,1636
553,1,1,553,8,1,1,1,1053
554,1,1,554,4,0,0,1,829
555,1,1,555,8,1,1,1,635
556,1,1,556,4,0,0,1,752
557,1,1,557,8,0,0,1,1300
558,1,1,558,8,0,0,1,2001
559,1,1,559,8,0,0,1,1530
560,1,1,560,4,0,0,1,715
561,1,1,561,4,1,1,1,625
562,1,1,562,8,1,1,1,1354
563,1,1,563,8,0,0,1,1074
564,1,1,564,4,1,1,1,1912
565,1,1,565,8,0,0,1,1475
566,1,1,566,8,0,0,1,917
567,1,1,567,4,1,1,1,689
568,1,1,568,4,1,1,1,1030
569,1,1,569,8,1,1,1,622
570,1,1,570,8,1,1,1,849
571,1,1,571,4,0,0,1,825
572,1,1,572,4,0,0,1,820
573,1,1,573,4,1,1,1,904
574,1,1,574,8,0,0,1,652
575,1,1,575,4,1,1,1,618
576,1,1,576,8,1,1,1,682
577,1,1,577,8,0,0,1,1076
578,1,1,578,4,0,0,1,1552
579,1,1,579,8,0,0,1,805
580,1,1,580,4,0,0,1,607
581,1,1,581,4,0,0,1,665
582,1,1,582,4,0,0,1,859
583,1,1,583,4,0,0,1,1195
584,1,1,584,8,1,1,1,1410
585,1,1,585,8,0,0,1,842
586,1,1,586,4,1,1,1,1642
587,1,1,587,4,1,1,1,1058
588,1,1,588,8,1,1,1,582
589,1,1,589,8,0,0,1,1156
590,1,1,590,8,0,0,1,1473
591,1,1,591,8,1,1,1,1241
592,1,1,592,8,1,1,1,772
593,1,1,593,4,0,0,1,761
594,1,1,594,8,1,1,1,924
595,1,1,595,8,0,0,1,2245
596,1,1,596,8,0,0,1,990
597,1,1,597,4,0,0,1,620
598,1,1,598,8,0,0,1,1132
599,1,1,599,4,0,0,1,1284
600,1,1,600,8,1,1,1,620
601,2,1,1,4,1,3,0,4991
602,2,1,2,4,0,0,1,3211
603,2,1,3,4,0,0,1,1497
604,2,1,4,8,1,1,1,1343
605,2,1,5,4,0,0,1,1317
606,2,1,6,8,1,1,1,3202
607,2,1,7,8,0,0,1,1111
608,2,1,8,4,0,0,1,1333
609,2,1,9,4,1,1,1,809
610,2,1,10,4,1,1,1,947
611,2,1,11,4,1,1,1,1475
612,2,1,12,8,0,0,1,927
613,2,1,13,4,0,0,1,1534
614,2,1,14,4,1,1,1,1161
615,2,1,15,8,0,0,1,883
616,2,1,16,8,0,0,1,1131
617,2,1,17,4,1,1,1,933
618,2,1,18,8,0,0,1,2348
619,2,1,19,4,1,1,0,1473
620,2,1,20,8,0,0,1,996
621,2,1,21,8,1,1,1,4085
622,2,1,22,4,0,0,1,565
623,2,1,23,8,0,0,1,906
624,2,1,24,8,1,1,1,2066
625,2,1,25,4,0,0,1,898
626,2,1,26,4,0,0,1,1280
627,2,1,27,4,0,0,1,824
628,2,1,28,4,1,1,1,758
629,2,1,29,8,1,1,1,1360
630,2,1,30,8,1,1,1,1395
631,2,1,31,4,1,1,1,873
632,2,1,32,4,0,0,1,675
633,2,1,33,4,0,0,1,1131
634,2,1,34,4,0,0,1,716
635,2,1,35,4,0,0,1,564
636,2,1,36,8,0,0,1,1809
637,2,1,37,8,0,0,1,680
638,2,1,38,8,0,0,1,856
639,2,1,39,8,0,0,1,1152
640,2,1,40,4,0,0,1,1018
641,2,1,41,4,0,0,1,703
642,2,1,42,4,0,0,1,630
643,2,1,43,4,0,0,1,658
644,2,1,44,4,0,0,1,766
645,2,1,45,4,1,1,1,1702
646,2,1,46,4,1,1,1,504
647,2,1,47,4,1,1,1,907
648,2,1,48,4,1,1,1,802
649,2,1,49,4,1,1,1,591
650,2,1,50,8,0,0,1,1558
651,2,1,51,8,0,0,1,1251
652,2,1,52,8,1,1,1,727
653,2,1,53,8,1,1,1,1387
654,2,1,54,4,1,1,1,925
655,2,1,55,4,0,0,1,715
656,2,1,56,8,1,1,1,1108
657,2,1,57,8,1,1,1,604
658,2,1,58,8,0,0,1,1682
659,2,1,59,4,1,1,1,1106
660,2,1,60,4,1,1,1,767
661,2,1,61,4,1,1,1,1605
662,2,1,62,4,1,1,1,983
663,2,1,63,4,0,0,1,773
664,2,1,64,4,0,0,1,756
665,2,1,65,8,1,1,1,2044
666,2,1,66,8,1,1,1,670
667,2,1,67,8,1,1,1,582
668,2,1,68,4,1,1,1,1147
669,2,1,69,4,0,0,1,930
670,2,1,70,8,0,0,1,1587
671,2,1,71,8,0,0,1,1754
672,2,1,72,8,0,0,1,572
673,2,1,73,4,0,0,1,1168
674,2,1,74,4,0,0,1,1230
675,2,1,75,4,1,1,1,574
676,2,1,76,8,0,0,1,1799
677,2,1,77,4,0,0,1,582
678,2,1,78,4,0,0,1,1004
679,2,1,79,4,0,0,1,534
680,2,1,80,4,1,1,1,993
681,2,1,81,4,1,1,1,1143
682,2,1,82,4,0,0,1,698
683,2,1,83,8,1,1,1,1226
684,2,1,84,4,0,0,1,892
685,2,1,85,8,1,1,1,930
686,2,1,86,8,1,1,1,715
687,2,1,87,8,0,0,1,577
688,2,1,88,8,0,0,1,956
689,2,1,89,8,1,1,1,639
690,2,1,90,4,0,0,1,766
691,2,1,91,4,0,0,1,480
692,2,1,92,8,0,0,1,690
693,2,1,93,8,0,0,1,689
694,2,1,94,4,0,0,1,1118
695,2,1,95,8,0,0,1,527
696,2,1,96,8,1,1,1,712
697,2,1,97,8,1,1,1,708
698,2,1,98,8,0,0,1,715
699,2,1,99,4,1,1,1,590
700,2,1,100,4,1,1,1,1014
701,2,1,101,8,1,1,1,1984
702,2,1,102,8,1,1,1,711
703,2,1,103,4,1,1,1,1268
704,2,1,104,8,1,1,1,1886
705,2,1,105,8,1,1,1,1952
706,2,1,106,4,0,0,1,1064
707,2,1,107,8,0,0,1,1121
708,2,1,108,4,0,0,1,874
709,2,1,109,4,0,0,1,511
710,2,1,110,4,0,0,1,866
711,2,1,111,4,0,0,1,1356
712,2,1,112,8,1,1,1,794
713,2,1,113,8,0,0,1,605
714,2,1,114,8,1,1,1,1238
715,2,1,115,4,0,0,1,1743
716,2,1,116,8,1,1,1,1201
717,2,1,117,4,1,1,0,894
718,2,1,118,8,0,0,1,840
719,2,1,119,4,0,0,1,1057
720,2,1,120,4,0,0,1,1151
721,2,1,121,8,0,0,1,1191
722,2,1,122,4,1,1,1,1645
723,2,1,123,8,1,1,0,1737
724,2,1,124,8,1,1,0,935
725,2,1,125,4,1,1,1,1354
726,2,1,126,4,0,0,1,932
727,2,1,127,4,0,0,1,1151
728,2,1,128,8,0,0,1,2283
729,2,1,129,8,1,1,1,1701
730,2,1,130,8,0,0,1,1461
731,2,1,131,8,1,1,1,738
732,2,1,132,8,1,1,1,1445
733,2,1,133,8,1,1,1,682
734,2,1,134,8,0,0,1,883
735,2,1,135,4,1,1,1,651
736,2,1,136,8,1,1,1,697
737,2,1,137,8,1,1,1,571
738,2,1,138,8,1,1,1,1388
739,2,1,139,4,1,1,1,1021
740,2,1,140,4,1,1,1,2010
741,2,1,141,4,1,1,1,1357
742,2,1,142,4,1,1,1,598
743,2,1,143,4,0,0,1,771
744,2,1,144,8,0,0,1,728
745,2,1,145,4,1,1,1,1451
746,2,1,146,4,0,0,1,1620
747,2,1,147,8,1,1,1,1052
748,2,1,148,8,1,1,1,1227
749,2,1,149,4,1,1,1,869
750,2,1,150,8,1,1,1,2369
751,2,1,151,4,1,1,1,1149
752,2,1,152,4,0,0,1,1181
753,2,1,153,4,1,1,1,1120
754,2,1,154,4,1,1,1,1099
755,2,1,155,4,1,1,1,709
756,2,1,156,8,0,0,1,1033
757,2,1,157,8,0,0,1,1183
758,2,1,158,8,0,0,1,791
759,2,1,159,8,1,1,1,1480
760,2,1,160,4,0,0,1,1072
761,2,1,161,4,0,0,1,884
762,2,1,162,8,0,0,1,1350
763,2,1,163,4,1,1,1,769
764,2,1,164,8,1,1,1,1755
765,2,1,165,8,0,0,1,801
766,2,1,166,8,0,0,1,1432
767,2,1,167,4,0,0,1,800
768,2,1,168,4,1,1,1,765
769,2,1,169,8,1,1,1,656
770,2,1,170,8,1,1,1,1436
771,2,1,171,4,1,1,1,1111
772,2,1,172,4,0,0,1,1255
773,2,1,173,8,1,1,1,580
774,2,1,174,8,0,0,1,676
775,2,1,175,4,1,1,1,2182
776,2,1,176,8,1,1,1,1084
777,2,1,177,8,1,1,1,2125
778,2,1,178,4,0,0,1,1259
779,2,1,179,4,0,0,1,555
780,2,1,180,8,1,1,1,1542
781,2,1,181,8,0,0,1,2574
782,2,1,182,4,1,1,1,1051
783,2,1,183,4,1,1,1,1220
784,2,1,184,4,0,0,1,671
785,2,1,185,8,1,1,1,1047
786,2,1,186,4,1,1,1,1195
787,2,1,187,4,1,1,1,1918
788,2,1,188,8,1,1,1,1073
789,2,1,189,4,1,1,1,1037
790,2,1,190,8,1,1,1,1280
791,2,1,191,8,1,1,1,700
792,2,1,192,4,0,0,1,826
793,2,1,193,8,1,1,1,758
794,2,1,194,4,0,0,1,1261
795,2,1,195,8,1,1,1,1287
796,2,1,196,4,1,1,1,865
797,2,1,197,4,1,1,1,756
798,2,1,198,8,0,0,1,709
799,2,1,199,8,0,0,1,877
800,2,1,200,4,0,0,1,1520
801,2,1,201,8,1,1,1,1298
802,2,1,202,4,1,1,1,653
803,2,1,203,8,1,1,1,828
804,2,1,204,8,0,0,1,996
805,2,1,205,8,1,1,1,503
806,2,1,206,8,1,1,1,596
807,2,1,207,8,1,1,1,823
808,2,1,208,8,1,1,1,1189
809,2,1,209,4,1,1,1,516
810,2,1,210,8,1,1,1,611
811,2,1,211,8,1,1,1,1485
812,2,1,212,8,0,0,1,1943
813,2,1,213,4,1,1,1,1379
814,2,1,214,4,1,1,0,1026
815,2,1,215,4,1,1,1,814
816,2,1,216,8,0,0,1,896
817,2,1,217,4,0,0,1,1427
818,2,1,218,8,1,1,1,1376
819,2,1,219,8,0,0,1,1532
820,2,1,220,8,0,0,1,589
821,2,1,221,4,0,0,1,621
822,2,1,222,8,0,0,1,1362
823,2,1,223,4,1,1,1,933
824,2,1,224,8,0,0,1,1944
825,2,1,225,8,1,1,1,688
826,2,1,226,4,0,0,1,775
827,2,1,227,4,0,0,1,1142
828,2,1,228,8,0,0,1,876
829,2,1,229,4,1,1,1,590
830,2,1,230,4,1,1,1,1385
831,2,1,231,8,0,0,1,1202
832,2,1,232,8,1,1,1,1307
833,2,1,233,4,0,0,1,717
834,2,1,234,4,1,1,1,706
835,2,1,235,4,0,0,1,849
836,2,1,236,8,1,1,1,649
837,2,1,237,8,0,0,1,1226
838,2,1,238,4,1,1,1,675
839,2,1,239,4,0,0,1,1036
840,2,1,240,4,0,0,1,1183
841,2,1,241,4,0,0,1,679
842,2,1,242,4,0,0,1,885
843,2,1,243,8,0,0,1,623
844,2,1,244,8,1,1,1,2049
845,2,1,245,4,0,0,1,823
846,2,1,246,4,1,1,1,862
847,2,1,247,8,0,0,1,2986
848,2,1,248,8,0,0,1,1115
849,2,1,249,8,0,0,1,1423
850,2,1,250,8,1,1,1,701
851,2,1,251,8,0,0,1,1210
852,2,1,252,4,0,0,1,1215
853,2,1,253,8,0,0,1,1300
854,2,1,254,4,0,0,1,635
855,2,1,255,4,0,0,1,684
856,2,1,256,4,1,1,1,971
857,2,1,257,4,0,0,1,1105
858,2,1,258,8,0,0,1,1409
859,2,1,259,8,1,1,1,801
860,2,1,260,8,0,0,1,1306
861,2,1,261,8,0,0,1,1980
862,2,1,262,8,0,0,1,2106
863,2,1,263,4,1,1,1,758
864,2,1,264,8,1,1,1,1480
865,2,1,265,4,0,0,1,598
866,2,1,266,8,1,1,1,1215
867,2,1,267,4,0,0,1,1340
868,2,1,268,8,1,1,1,588
869,2,1,269,4,1,1,1,577
870,2,1,270,4,1,1,1,1171
871,2,1,271,8,1,1,1,1423
872,2,1,272,8,1,1,1,976
873,2,1,273,4,1,1,1,726
874,2,1,274,4,1,1,1,741
875,2,1,275,4,0,0,1,683
876,2,1,276,4,0,0,1,613
877,2,1,277,8,0,0,1,637
878,2,1,278,8,1,1,1,1742
879,2,1,279,8,0,0,1,1610
880,2,1,280,8,0,0,1,918
881,2,1,281,4,0,0,1,777
882,2,1,282,8,0,0,1,1499
883,2,1,283,8,1,1,1,805
884,2,1,284,8,0,0,1,1220
885,2,1,285,8,1,1,1,790
886,2,1,286,8,0,0,1,1307
887,2,1,287,8,1,1,1,1260
888,2,1,288,4,1,1,1,841
889,2,1,289,8,1,1,1,2104
890,2,1,290,8,1,1,1,963
891,2,1,291,8,0,0,1,927
892,2,1,292,8,1,1,1,1909
893,2,1,293,4,0,0,1,803
894,2,1,294,8,0,0,1,1465
895,2,1,295,4,0,0,1,1161
896,2,1,296,4,1,1,1,1049
897,2,1,297,8,0,0,1,1623
898,2,1,298,8,0,0,1,648
899,2,1,299,4,1,1,1,1533
900,2,1,300,8,1,1,1,973
901,2,1,301,4,1,1,1,697
902,2,1,302,8,1,1,1,1562
903,2,1,303,8,1,1,1,685
904,2,1,304,4,1,1,1,616
905,2,1,305,8,0,0,1,1298
906,2,1,306,8,1,1,1,952
907,2,1,307,8,1,1,1,1183
908,2,1,308,8,0,0,1,1507
909,2,1,309,8,0,0,1,2811
910,2,1,310,4,1,1,1,617
911,2,1,311,4,1,1,1,661
912,2,1,312,4,0,0,1,852
913,2,1,313,4,1,1,1,708
914,2,1,314,8,0,0,1,849
915,2,1,315,4,1,1,1,545
916,2,1,316,8,0,0,1,817
917,2,1,317,4,0,0,1,809
918,2,1,318,8,0,0,1,752
919,2,1,319,8,0,0,1,2240
920,2,1,320,8,0,0,1,1229
921,2,1,321,8,0,0,1,1722
922,2,1,322,8,1,1,1,525
923,2,1,323,8,0,0,1,826
924,2,1,324,8,1,1,1,607
925,2,1,325,4,1,1,1,530
926,2,1,326,8,0,0,1,609
927,2,1,327,4,1,1,1,713
928,2,1,328,8,1,1,1,1410
929,2,1,329,4,0,0,1,1001
930,2,1,330,4,0,0,1,864
931,2,1,331,8,0,0,1,2065
932,2,1,332,8,1,1,1,1008
933,2,1,333,8,0,0,1,1001
934,2,1,334,4,1,1,1,744
935,2,1,335,8,0,0,1,969
936,2,1,336,8,0,0,1,1434
937,2,1,337,8,0,0,1,810
938,2,1,338,4,1,1,1,505
939,2,1,339,4,1,1,1,512
940,2,1,340,4,0,0,1,1356
941,2,1,341,8,1,1,1,1625
942,2,1,342,4,1,1,1,595
943,2,1,343,8,1,1,1,648
944,2,1,344,8,1,1,1,1022
945,2,1,345,8,0,0,1,1357
946,2,1,346,4,0,0,1,543
947,2,1,347,4,0,0,1,789
948,2,1,348,4,1,1,1,664
949,2,1,349,4,0,0,1,1648
950,2,1,350,4,1,1,1,807
951,2,1,351,8,1,1,1,726
952,2,1,352,4,0,0,1,883
953,2,1,353,4,0,0,1,1388
954,2,1,354,4,0,0,1,1170
955,2,1,355,8,0,0,1,897
956,2,1,356,8,0,0,1,711
957,2,1,357,4,1,1,1,1023
958,2,1,358,8,1,1,1,1525
959,2,1,359,8,1,1,1,891
960,2,1,360,8,0,0,1,1519
961,2,1,361,4,1,1,1,818
962,2,1,362,4,0,0,1,900
963,2,1,363,4,1,1,1,510
964,2,1,364,8,1,1,1,621
965,2,1,365,4,1,1,1,599
966,2,1,366,4,0,0,1,531
967,2,1,367,4,1,1,1,470
968,2,1,368,4,1,1,1,1658
969,2,1,369,8,1,1,1,1267
970,2,1,370,4,0,0,1,798
971,2,1,371,4,1,1,1,917
972,2,1,372,4,0,0,1,672
973,2,1,373,4,0,0,1,1070
974,2,1,374,8,1,1,1,1094
975,2,1,375,8,1,1,1,619
976,2,1,376,4,1,1,1,670
977,2,1,377,4,0,0,1,752
978,2,1,378,8,1,1,1,876
979,2,1,379,4,0,0,1,977
980,2,1,380,8,0,0,1,872
981,2,1,381,4,1,1,1,807
982,2,1,382,4,1,1,1,526
983,2,1,383,4,1,1,1,1228
984,2,1,384,8,1,1,1,1342
985,2,1,385,4,1,1,1,1126
986,2,1,386,8,0,0,1,1034
987,2,1,387,4,1,1,1,587
988,2,1,388,4,0,0,1,1052
989,2,1,389,4,0,0,1,844
990,2,1,390,4,0,0,1,563
991,2,1,391,4,1,1,1,736
992,2,1,392,4,0,0,1,1210
993,2,1,393,8,0,0,1,1836
994,2,1,394,4,0,0,1,834
995,2,1,395,4,0,0,1,917
996,2,1,396,4,0,0,1,566
997,2,1,397,8,1,1,0,327
998,2,1,398,8,1,1,1,789
999,2,1,399,8,0,0,1,1098
1000,2,1,400,8,0,0,1,1206
1001,2,1,401,4,0,0,1,939
1002,2,1,402,8,0,0,1,1948
1003,2,1,403,8,0,0,1,1382
1004,2,1,404,4,1,1,1,706
1005,2,1,405,8,1,1,1,576
1006,2,1,406,4,1,1,1,621
1007,2,1,407,8,1,1,1,1371
1008,2,1,408,8,0,0,1,1353
1009,2,1,409,8,1,1,1,667
1010,2,1,410,8,1,1,1,761
1011,2,1,411,4,1,1,1,633
1012,2,1,412,8,0,0,1,515
1013,2,1,413,4,0,0,1,745
1014,2,1,414,8,0,0,1,1005
1015,2,1,415,4,0,0,1,1552
1016,2,1,416,8,1,1,1,1390
1017,2,1,417,8,0,0,1,914
1018,2,1,418,8,0,0,1,1168
1019,2,1,419,8,0,0,1,1427
1020,2,1,420,4,0,0,1,1356
1021,2,1,421,8,1,1,1,853
1022,2,1,422,4,1,1,1,902
1023,2,1,423,8,1,1,1,582
1024,2,1,424,4,1,1,1,1200
1025,2,1,425,8,0,0,1,1858
1026,2,1,426,4,1,1,1,1233
1027,2,1,427,4,0,0,1,870
1028,2,1,428,4,1,1,1,710
1029,2,1,429,8,1,1,1,917
1030,2,1,430,8,1,1,1,1489
1031,2,1,431,8,1,1,1,1304
1032,2,1,432,4,0,0,1,692
1033,2,1,433,4,1,1,1,628
1034,2,1,434,4,1,1,1,1452
1035,2,1,435,8,1,1,1,1588
1036,2,1,436,8,0,0,1,1022
1037,2,1,437,8,0,0,1,2209
1038,2,1,438,4,0,0,1,1049
1039,2,1,439,8,0,0,1,1423
1040,2,1,440,4,0,0,1,1129
1041,2,1,441,4,1,1,1,995
1042,2,1,442,4,0,0,1,990
1043,2,1,443,8,0,0,1,1761
1044,2,1,444,4,1,1,1,554
1045,2,1,445,4,1,1,1,560
1046,2,1,446,4,1,1,1,1094
1047,2,1,447,4,0,0,1,1029
1048,2,1,448,4,0,0,1,651
1049,2,1,449,4,1,1,1,1467
1050,2,1,450,8,1,1,0,726
1051,2,1,451,8,0,0,0,1433
1052,2,1,452,4,0,0,1,879
1053,2,1,453,4,0,0,1,959
1054,2,1,454,4,0,0,1,1143
1055,2,1,455,8,0,0,1,1866
1056,2,1,456,4,0,0,1,1552
1057,2,1,457,4,1,1,1,934
1058,2,1,458,8,0,0,1,882
1059,2,1,459,4,0,0,1,1147
1060,2,1,460,4,1,1,1,551
1061,2,1,461,4,0,0,1,883
1062,2,1,462,8,1,1,1,1458
1063,2,1,463,8,1,1,1,542
1064,2,1,464,4,1,1,1,624
1065,2,1,465,8,1,1,1,1069
1066,2,1,466,8,1,1,1,738
1067,2,1,467,4,1,1,1,520
1068,2,1,468,8,1,1,1,931
1069,2,1,469,8,0,0,1,1405
1070,2,1,470,8,1,1,1,614
1071,2,1,471,4,1,1,1,680
1072,2,1,472,8,1,1,1,1675
1073,2,1,473,4,0,0,1,813
1074,2,1,474,8,1,1,1,1589
1075,2,1,475,4,0,0,1,723
1076,2,1,476,8,0,0,1,2022
1077,2,1,477,8,0,0,1,699
1078,2,1,478,4,1,1,1,1073
1079,2,1,479,8,1,1,1,770
1080,2,1,480,8,1,1,1,1244
1081,2,1,481,8,1,1,1,911
1082,2,1,482,8,1,1,1,1416
1083,2,1,483,8,1,1,1,1680
1084,2,1,484,8,0,0,1,903
1085,2,1,485,8,0,0,1,1308
1086,2,1,486,8,0,0,1,1235
1087,2,1,487,4,1,1,1,834
1088,2,1,488,4,0,0,1,955
1089,2,1,489,4,0,0,1,768
1090,2,1,490,8,1,1,1,924
1091,2,1,491,8,1,1,1,1790
1092,2,1,492,8,1,1,1,1161
1093,2,1,493,8,1,1,1,826
1094,2,1,494,8,0,0,1,1636
1095,2,1,495,4,0,0,1,699
1096,2,1,496,8,1,1,1,1490
1097,2,1,497,8,0,0,1,887
1098,2,1,498,4,0,0,1,2415
1099,2,1,499,8,0,0,1,2564
1100,2,1,500,4,1,1,1,875
1101,2,1,501,8,0,0,1,758
1102,2,1,502,8,0,0,1,1621
1103,2,1,503,4,1,1,1,970
1104,2,1,504,8,1,1,1,1364
1105,2,1,505,8,0,0,1,2536
1106,2,1,506,4,1,1,1,497
1107,2,1,507,4,0,0,1,688
1108,2,1,508,4,1,1,1,721
1109,2,1,509,8,1,1,1,945
1110,2,1,510,4,0,0,1,1388
1111,2,1,511,8,0,0,1,1914
1112,2,1,512,4,0,0,1,985
1113,2,1,513,8,0,0,1,805
1114,2,1,514,4,0,0,1,765
1115,2,1,515,4,1,1,1,1321
1116,2,1,516,8,0,0,1,750
1117,2,1,517,4,0,0,1,644
1118,2,1,518,8,1,1,1,980
1119,2,1,519,8,0,0,1,1228
1120,2,1,520,8,0,0,1,1044
1121,2,1,521,4,1,1,1,658
1122,2,1,522,4,0,0,1,949
1123,2,1,523,4,0,0,1,775
1124,2,1,524,4,1,1,1,1046
1125,2,1,525,4,1,1,1,943
1126,2,1,526,8,0,0,1,683
1127,2,1,527,4,1,1,1,655
1128,2,1,528,8,1,1,1,1209
1129,2,1,529,8,1,1,1,1552
1130,2,1,530,8,1,1,1,1193
1131,2,1,531,4,1,1,1,604
1132,2,1,532,4,1,1,1,577
1133,2,1,533,4,0,0,1,669
1134,2,1,534,8,0,0,1,724
1135,2,1,535,8,1,1,1,781
1136,2,1,536,4,0,0,1,684
1137,2,1,537,4,0,0,1,866
1138,2,1,538,4,1,1,1,865
1139,2,1,539,4,1,1,1,773
1140,2,1,540,4,1,1,1,723
1141,2,1,541,8,1,1,1,1190
1142,2,1,542,4,1,1,1,754
1143,2,1,543,4,1,1,1,1006
1144,2,1,544,8,0,0,1,504
1145,2,1,545,4,1,1,1,465
1146,2,1,546,8,1,1,1,516
1147,2,1,547,8,0,0,1,1186
1148,2,1,548,8,0,0,1,646
1149,2,1,549,8,0,0,1,753
1150,2,1,550,8,0,0,1,1283
1151,2,1,551,4,1,1,1,1178
1152,2,1,552,8,1,1,1,1374
1153,2,1,553,4,0,0,1,702
1154,2,1,554,4,1,1,1,875
1155,2,1,555,8,0,0,1,743
1156,2,1,556,4,1,1,1,534
1157,2,1,557,4,0,0,1,910
1158,2,1,558,8,0,0,1,854
1159,2,1,559,8,1,1,1,509
1160,2,1,560,4,1,1,1,603
1161,2,1,561,8,0,0,1,1146
1162,2,1,562,8,0,0,1,791
1163,2,1,563,8,1,1,1,1889
1164,2,1,564,4,0,0,1,730
1165,2,1,565,8,1,1,1,1111
1166,2,1,566,8,0,0,1,1345
1167,2,1,567,8,1,1,1,775
1168,2,1,568,4,1,1,1,825
1169,2,1,569,4,0,0,1,534
1170,2,1,570,4,0,0,1,1088
1171,2,1,571,8,1,1,1,1312
1172,2,1,572,4,0,0,1,624
1173,2,1,573,4,1,1,1,494
1174,2,1,574,4,1,1,1,818
1175,2,1,575,8,0,0,1,1813
1176,2,1,576,4,0,0,1,1348
1177,2,1,577,4,0,0,1,811
1178,2,1,578,8,0,0,1,544
1179,2,1,579,8,1,1,1,1582
1180,2,1,580,4,0,0,1,1065
1181,2,1,581,8,0,0,1,1300
1182,2,1,582,4,1,1,1,949
1183,2,1,583,4,0,0,1,814
1184,2,1,584,4,1,1,1,619
1185,2,1,585,8,0,0,1,1108
1186,2,1,586,4,0,0,1,1005
1187,2,1,587,4,1,1,1,1089
1188,2,1,588,8,0,0,1,496
1189,2,1,589,8,0,0,1,1250
1190,2,1,590,4,0,0,1,742
1191,2,1,591,8,0,0,1,2142
1192,2,1,592,4,0,0,1,1056
1193,2,1,593,4,1,1,1,1463
1194,2,1,594,4,1,1,1,648
1195,2,1,595,8,0,0,1,898
1196,2,1,596,8,1,1,1,1317
1197,2,1,597,4,0,0,1,856
1198,2,1,598,8,1,1,1,582
1199,2,1,599,4,1,1,1,746
1200,2,1,600,4,0,0,1,546
1201,3,1,1,8,1,1,1,2704
1202,3,1,2,8,1,1,1,2339
1203,3,1,3,4,1,1,1,2078
1204,3,1,4,8,1,1,1,1543
1205,3,1,5,8,1,1,1,2241
1206,3,1,6,8,1,1,1,1875
1207,3,1,7,4,0,0,1,1475
1208,3,1,8,4,1,1,1,1805
1209,3,1,9,4,0,0,1,955
1210,3,1,10,8,0,0,1,985
1211,3,1,11,4,0,0,1,1460
1212,3,1,12,8,1,1,1,1004
1213,3,1,13,4,0,0,1,813
1214,3,1,14,8,1,1,1,1424
1215,3,1,15,4,1,1,1,724
1216,3,1,16,8,1,1,1,1900
1217,3,1,17,4,1,1,1,1419
1218,3,1,18,4,1,1,1,752
1219,3,1,19,4,1,1,1,846
1220,3,1,20,8,1,1,1,821
1221,3,1,21,4,0,0,1,797
1222,3,1,22,4,1,1,1,615
1223,3,1,23,4,1,1,1,624
1224,3,1,24,8,0,0,1,745
1225,3,1,25,8,0,0,1,1051
1226,3,1,26,8,1,1,1,1913
1227,3,1,27,8,1,1,1,1181
1228,3,1,28,8,1,1,1,849
1229,3,1,29,8,0,0,1,843
1230,3,1,30,4,0,0,1,548
1231,3,1,31,4,0,0,1,643
1232,3,1,32,4,0,0,1,1843
1233,3,1,33,8,0,0,1,1716
1234,3,1,34,4,0,0,1,560
1235,3,1,35,8,1,1,1,1030
1236,3,1,36,4,1,1,1,1260
1237,3,1,37,8,0,0,1,1180
1238,3,1,38,4,1,1,1,651
1239,3,1,39,8,1,1,1,989
1240,3,1,40,8,1,1,1,1726
1241,3,1,41,8,0,0,1,1137
1242,3,1,42,4,0,0,1,621
1243,3,1,43,4,1,1,1,702
1244,3,1,44,8,1,1,1,1335
1245,3,1,45,8,0,0,1,1723
1246,3,1,46,4,1,1,1,1748
1247,3,1,47,8,0,0,1,839
1248,3,1,48,8,1,1,1,1639
1249,3,1,49,8,1,1,1,702
1250,3,1,50,8,1,1,1,1497
1251,3,1,51,8,0,0,1,1682
1252,3,1,52,4,1,1,1,828
1253,3,1,53,8,0,0,1,841
1254,3,1,54,8,0,0,1,994
1255,3,1,55,8,0,0,1,2228
1256,3,1,56,4,1,1,1,1170
1257,3,1,57,8,0,0,1,650
1258,3,1,58,8,0,0,1,1224
1259,3,1,59,8,1,1,1,970
1260,3,1,60,8,0,0,1,1211
1261,3,1,61,8,1,1,1,2184
1262,3,1,62,4,0,0,1,661
1263,3,1,63,4,0,0,1,523
1264,3,1,64,8,0,0,1,641
1265,3,1,65,4,0,0,1,1119
1266,3,1,66,4,0,0,1,791
1267,3,1,67,4,0,0,1,1335
1268,3,1,68,8,1,1,1,1810
1269,3,1,69,4,0,0,1,875
1270,3,1,70,4,1,1,1,1395
1271,3,1,71,8,1,1,1,2642
1272,3,1,72,8,1,1,1,1119
1273,3,1,73,8,0,0,1,783
1274,3,1,74,8,1,1,1,918
1275,3,1,75,8,1,1,1,1147
1276,3,1,76,8,0,0,1,1081
1277,3,1,77,8,1,1,1,1607
1278,3,1,78,4,1,1,1,1127
1279,3,1,79,8,1,1,1,886
1280,3,1,80,8,0,0,1,1904
1281,3,1,81,8,1,1,1,1316
1282,3,1,82,8,1,1,1,1645
1283,3,1,83,4,0,0,1,1062
1284,3,1,84,8,0,0,1,1347
1285,3,1,85,8,0,0,1,1472
1286,3,1,86,8,1,1,1,1338
1287,3,1,87,4,1,1,1,690
1288,3,1,88,8,0,0,1,907
1289,3,1,89,4,1,1,1,737
1290,3,1,90,8,1,1,1,900
1291,3,1,91,8,0,0,1,1605
1292,3,1,92,4,1,1,1,965
1293,3,1,93,4,0,0,1,929
1294,3,1,94,4,1,1,1,960
1295,3,1,95,8,1,1,1,1118
1296,3,1,96,4,0,0,1,1317
1297,3,1,97,4,1,1,1,848
1298,3,1,98,4,0,0,1,2750
1299,3,1,99,4,0,0,1,1267
1300,3,1,100,4,1,1,1,779
1301,3,1,101,4,0,0,1,1577
1302,3,1,102,8,0,0,1,1513
1303,3,1,103,4,1,1,1,1366
1304,3,1,104,4,0,0,1,770
1305,3,1,105,8,1,1,1,2239
1306,3,1,106,4,0,0,1,2141
1307,3,1,107,4,0,0,1,1444
1308,3,1,108,4,1,1,1,778
1309,3,1,109,4,1,1,1,908
1310,3,1,110,8,1,1,1,1418
1311,3,1,111,8,0,0,1,1235
1312,3,1,112,8,1,1,1,1129
1313,3,1,113,8,1,1,1,1588
1314,3,1,114,4,0,0,1,747
1315,3,1,115,8,0,0,1,770
1316,3,1,116,4,1,1,1,1066
1317,3,1,117,8,1,1,1,1658
1318,3,1,118,8,0,0,1,1622
1319,3,1,119,8,0,0,1,1698
1320,3,1,120,4,0,0,1,872
1321,3,1,121,4,1,1,1,876
1322,3,1,122,4,0,0,1,684
1323,3,1,123,8,0,0,1,811
1324,3,1,124,8,1,1,1,1520
1325,3,1,125,4,1,1,1,710
1326,3,1,126,8,1,1,1,927
1327,3,1,127,4,0,0,1,1309
1328,3,1,128,4,0,0,1,596
1329,3,1,129,8,1,1,1,732
1330,3,1,130,8,0,0,1,1875
1331,3,1,131,8,1,1,1,1697
1332,3,1,132,4,1,1,1,1119
1333,3,1,133,8,0,0,1,929
1334,3,1,134,4,0,0,1,686
1335,3,1,135,4,1,1,1,1163
1336,3,1,136,8,0,0,1,1618
1337,3,1,137,4,1,1,1,1038
1338,3,1,138,8,0,0,1,1588
1339,3,1,139,8,0,0,1,1507
1340,3,1,140,4,1,1,1,1293
1341,3,1,141,4,1,1,1,593
1342,3,1,142,8,0,0,1,1479
1343,3,1,143,8,1,1,1,2115
1344,3,1,144,4,1,1,1,1377
1345,3,1,145,8,0,0,1,1210
1346,3,1,146,4,1,1,1,876
1347,3,1,147,8,1,1,1,1180
1348,3,1,148,8,0,0,1,1952
1349,3,1,149,8,0,0,1,870
1350,3,1,150,8,0,0,1,1736
1351,3,1,151,4,0,0,1,607
1352,3,1,152,8,1,1,1,1101
1353,3,1,153,4,1,1,1,1207
1354,3,1,154,4,1,1,1,685
1355,3,1,155,8,0,0,1,1700
1356,3,1,156,8,0,0,1,1251
1357,3,1,157,4,1,1,1,826
1358,3,1,158,4,0,0,1,1506
1359,3,1,159,4,0,0,1,516
1360,3,1,160,8,1,1,1,1025
1361,3,1,161,4,1,1,1,1004
1362,3,1,162,4,1,1,1,753
1363,3,1,163,4,0,0,1,1120
1364,3,1,164,8,1,1,1,789
1365,3,1,165,8,0,0,1,1087
1366,3,1,166,4,1,1,1,1134
1367,3,1,167,8,0,0,1,730
1368,3,1,168,8,1,1,1,1194
1369,3,1,169,4,0,0,1,1024
1370,3,1,170,8,1,1,1,966
1371,3,1,171,8,0,0,1,1025
1372,3,1,172,4,1,1,1,716
1373,3,1,173,8,1,1,1,1105
1374,3,1,174,4,1,1,1,575
1375,3,1,175,4,0,0,1,1053
1376,3,1,176,4,0,0,1,1645
1377,3,1,177,4,1,1,1,1047
1378,3,1,178,4,0,0,1,1244
1379,3,1,179,4,0,0,1,1092
1380,3,1,180,4,1,1,1,1457
1381,3,1,181,8,0,0,1,862
1382,3,1,182,4,0,0,1,746
1383,3,1,183,8,0,0,1,1043
1384,3,1,184,8,0,0,1,1441
1385,3,1,185,4,0,0,1,965
1386,3,1,186,4,0,0,1,1408
1387,3,1,187,4,0,0,1,770
1388,3,1,188,8,1,1,1,1253
1389,3,1,189,4,1,1,1,1174
1390,3,1,190,8,0,0,1,1045
1391,3,1,191,8,0,0,1,1334
1392,3,1,192,4,1,1,1,677
1393,3,1,193,4,0,0,1,901
1394,3,1,194,4,0,0,1,981
1395,3,1,195,8,0,0,1,687
1396,3,1,196,8,0,0,1,1021
1397,3,1,197,4,0,0,1,861
1398,3,1,198,4,1,1,1,576
1399,3,1,199,4,1,1,1,1001
1400,3,1,200,8,0,0,1,1226
1401,3,1,201,4,1,1,1,1006
1402,3,1,202,8,0,0,1,949
1403,3,1,203,8,0,0,1,1153
1404,3,1,204,4,0,0,1,863
1405,3,1,205,8,0,0,1,2614
1406,3,1,206,4,0,0,1,1042
1407,3,1,207,4,1,1,1,907
1408,3,1,208,4,1,1,1,859
1409,3,1,209,8,1,1,1,1377
1410,3,1,210,8,1,1,1,1346
1411,3,1,211,8,1,1,1,1365
1412,3,1,212,8,0,0,1,904
1413,3,1,213,8,1,1,1,1399
1414,3,1,214,8,0,0,1,1227
1415,3,1,215,4,1,1,1,695
1416,3,1,216,4,1,1,1,735
1417,3,1,217,4,1,1,1,1183
1418,3,1,218,8,1,1,1,1813
1419,3,1,219,8,0,0,1,1989
1420,3,1,220,8,1,1,1,604
1421,3,1,221,8,0,0,1,1689
1422,3,1,222,8,0,0,1,1372
1423,3,1,223,4,0,0,1,557
1424,3,1,224,4,1,1,1,1574
1425,3,1,225,4,0,0,1,884
1426,3,1,226,4,0,0,1,934
1427,3,1,227,8,1,1,1,1533
1428,3,1,228,4,0,0,1,693
1429,3,1,229,8,1,1,1,1772
1430,3,1,230,4,1,1,1,1671
1431,3,1,231,4,0,0,1,610
1432,3,1,232,8,0,0,1,1789
1433,3,1,233,4,0,0,1,1746
1434,3,1,234,4,0,0,1,588
1435,3,1,235,4,0,0,1,2240
1436,3,1,236,4,1,1,1,1549
1437,3,1,237,4,0,0,1,1427
1438,3,1,238,4,0,0,1,749
1439,3,1,239,4,0,0,1,1365
1440,3,1,240,8,0,0,1,1517
1441,3,1,241,8,1,1,1,1126
1442,3,1,242,4,0,0,1,1050
1443,3,1,243,4,1,1,1,2234
1444,3,1,244,8,0,0,1,1114
1445,3,1,245,4,0,0,1,716
1446,3,1,246,8,0,0,1,1824
1447,3,1,247,8,0,0,1,1487
1448,3,1,248,4,1,1,1,683
1449,3,1,249,8,0,0,1,1738
1450,3,1,250,8,1,1,1,1352
1451,3,1,251,8,1,1,1,1300
1452,3,1,252,8,1,1,1,921
1453,3,1,253,4,1,1,1,985
1454,3,1,254,4,0,0,1,1743
1455,3,1,255,4,0,0,1,1136
1456,3,1,256,4,1,1,1,1226
1457,3,1,257,8,1,1,1,1378
1458,3,1,258,4,1,1,1,1050
1459,3,1,259,8,1,1,1,1853
1460,3,1,260,8,0,0,1,1288
1461,3,1,261,8,0,0,1,1522
1462,3,1,262,8,1,1,1,1033
1463,3,1,263,8,1,1,1,1535
1464,3,1,264,8,1,1,1,1406
1465,3,1,265,4,1,1,1,1388
1466,3,1,266,8,1,1,1,1114
1467,3,1,267,8,0,0,1,1505
1468,3,1,268,8,1,1,1,1786
1469,3,1,269,8,1,1,1,986
1470,3,1,270,4,1,1,1,837
1471,3,1,271,8,0,0,1,821
1472,3,1,272,8,0,0,1,762
1473,3,1,273,4,1,1,1,912
1474,3,1,274,8,0,0,1,840
1475,3,1,275,8,1,1,1,740
1476,3,1,276,4,0,0,1,631
1477,3,1,277,8,1,1,1,833
1478,3,1,278,8,1,1,1,1291
1479,3,1,279,8,1,1,1,795
1480,3,1,280,8,1,1,1,819
1481,3,1,281,4,1,1,1,537
1482,3,1,282,4,1,1,1,674
1483,3,1,283,4,1,1,1,629
1484,3,1,284,8,0,0,1,1191
1485,3,1,285,4,1,1,1,939
1486,3,1,286,8,0,0,1,1155
1487,3,1,287,4,0,0,1,1090
1488,3,1,288,8,0,0,1,960
1489,3,1,289,8,1,1,1,1133
1490,3,1,290,4,1,1,1,570
1491,3,1,291,8,0,0,1,1186
1492,3,1,292,4,1,1,1,1098
1493,3,1,293,8,0,0,1,1835
1494,3,1,294,8,1,1,1,756
1495,3,1,295,4,0,0,1,1156
1496,3,1,296,8,0,0,1,1545
1497,3,1,297,8,0,0,1,955
1498,3,1,298,8,1,1,1,708
1499,3,1,299,4,1,1,1,807
1500,3,1,300,8,1,1,1,1109
1501,3,1,301,8,0,0,1,1689
1502,3,1,302,8,0,0,1,1254
1503,3,1,303,8,1,1,1,940
1504,3,1,304,4,1,1,1,674
1505,3,1,305,8,0,0,1,1400
1506,3,1,306,8,0,0,1,1502
1507,3,1,307,4,0,0,1,859
1508,3,1,308,8,0,0,1,884
1509,3,1,309,4,0,0,1,738
1510,3,1,310,8,1,1,1,733
1511,3,1,311,4,0,0,1,1509
1512,3,1,312,4,0,0,1,828
1513,3,1,313,8,0,0,1,1256
1514,3,1,314,8,0,0,1,1467
1515,3,1,315,8,0,0,1,1227
1516,3,1,316,4,1,1,1,788
1517,3,1,317,4,1,1,1,957
1518,3,1,318,4,0,0,1,880
1519,3,1,319,4,1,1,1,532
1520,3,1,320,8,1,1,1,657
1521,3,1,321,4,0,0,1,661
1522,3,1,322,4,1,1,1,533
1523,3,1,323,8,1,1,1,1103
1524,3,1,324,4,1,1,1,544
1525,3,1,325,8,1,1,1,1076
1526,3,1,326,4,1,1,1,596
1527,3,1,327,8,1,1,1,1217
1528,3,1,328,4,1,1,1,624
1529,3,1,329,4,1,1,1,715
1530,3,1,330,8,1,1,1,1086
1531,3,1,331,8,0,0,1,995
1532,3,1,332,4,0,0,1,538
1533,3,1,333,4,1,1,1,637
1534,3,1,334,4,0,0,1,815
1535,3,1,335,4,0,0,1,642
1536,3,1,336,4,0,0,1,576
1537,3,1,337,4,0,0,1,675
1538,3,1,338,8,0,0,1,577
1539,3,1,339,4,0,0,1,1127
1540,3,1,340,4,0,0,1,887
1541,3,1,341,8,1,1,1,1193
1542,3,1,342,4,0,0,1,689
1543,3,1,343,8,1,1,1,1140
1544,3,1,344,8,0,0,1,858
1545,3,1,345,8,0,0,1,637
1546,3,1,346,4,0,0,1,520
1547,3,1,347,4,1,1,1,543
1548,3,1,348,4,1,1,1,943
1549,3,1,349,4,1,1,1,1631
1550,3,1,350,8,1,1,1,950
1551,3,1,351,8,1,1,1,1515
1552,3,1,352,8,1,1,1,1135
1553,3,1,353,8,1,1,1,531
1554,3,1,354,4,0,0,1,1065
1555,3,1,355,4,0,0,1,830
1556,3,1,356,8,0,0,1,2405
1557,3,1,357,8,1,1,1,1378
1558,3,1,358,4,1,1,1,948
1559,3,1,359,4,1,1,1,1100
1560,3,1,360,8,0,0,1,1906
1561,3,1,361,4,0,0,1,1066
1562,3,1,362,4,0,0,1,1008
1563,3,1,363,4,1,1,1,925
1564,3,1,364,4,0,0,1,771
1565,3,1,365,8,0,0,1,1283
1566,3,1,366,8,0,0,1,1098
1567,3,1,367,8,1,1,1,851
1568,3,1,368,4,1,1,1,712
1569,3,1,369,8,0,0,1,681
1570,3,1,370,8,1,1,1,2277
1571,3,1,371,4,1,1,1,694
1572,3,1,372,4,1,1,1,1080
1573,3,1,373,8,0,0,1,1591
1574,3,1,374,8,1,1,1,1062
1575,3,1,375,8,1,1,1,900
1576,3,1,376,4,1,1,1,822
1577,3,1,377,4,0,0,1,574
1578,3,1,378,4,1,1,1,1236
1579,3,1,379,8,0,0,1,586
1580,3,1,380,4,1,1,1,1180
1581,3,1,381,4,1,1,1,513
1582,3,1,382,8,1,1,1,1158
1583,3,1,383,8,1,1,1,1643
1584,3,1,384,4,1,1,1,1125
1585,3,1,385,8,1,1,1,930
1586,3,1,386,4,0,0,1,1034
1587,3,1,387,4,0,0,1,1069
1588,3,1,388,4,0,0,1,1297
1589,3,1,389,4,1,1,1,863
1590,3,1,390,4,1,1,1,543
1591,3,1,391,8,1,1,1,1064
1592,3,1,392,4,1,1,1,1041
1593,3,1,393,8,1,1,1,855
1594,3,1,394,4,0,0,1,651
1595,3,1,395,8,0,0,1,1662
1596,3,1,396,4,1,1,1,727
1597,3,1,397,4,0,0,1,658
1598,3,1,398,8,0,0,1,922
1599,3,1,399,8,0,0,1,1016
1600,3,1,400,4,0,0,1,825
1601,3,1,401,8,0,0,1,971
1602,3,1,402,4,0,0,1,2051
1603,3,1,403,4,1,1,1,1196
1604,3,1,404,8,0,0,1,811
1605,3,1,405,8,1,1,1,927
1606,3,1,406,8,0,0,1,874
1607,3,1,407,4,1,1,1,1099
1608,3,1,408,4,0,0,1,1024
1609,3,1,409,4,1,1,1,625
1610,3,1,410,8,0,0,1,1972
1611,3,1,411,8,0,0,1,872
1612,3,1,412,8,0,0,1,741
1613,3,1,413,8,1,1,1,1041
1614,3,1,414,8,1,1,1,1307
1615,3,1,415,4,0,0,1,1452
1616,3,1,416,8,1,1,1,1136
1617,3,1,417,4,0,0,1,1616
1618,3,1,418,4,1,1,1,699
1619,3,1,419,8,0,0,1,928
1620,3,1,420,8,1,1,1,1100
1621,3,1,421,8,0,0,1,870
1622,3,1,422,4,0,0,1,536
1623,3,1,423,4,0,0,1,724
1624,3,1,424,8,0,0,1,564
1625,3,1,425,8,1,1,1,647
1626,3,1,426,8,0,0,1,732
1627,3,1,427,4,0,0,1,793
1628,3,1,428,4,0,0,1,649
1629,3,1,429,8,1,1,1,720
1630,3,1,430,4,1,1,1,884
1631,3,1,431,4,0,0,1,917
1632,3,1,432,8,1,1,1,938
1633,3,1,433,8,1,1,1,1275
1634,3,1,434,4,0,0,1,751
1635,3,1,435,4,1,1,1,557
1636,3,1,436,8,0,0,1,1101
1637,3,1,437,8,1,1,1,791
1638,3,1,438,4,1,1,1,560
1639,3,1,439,4,0,0,1,954
1640,3,1,440,8,1,1,1,1019
1641,3,1,441,4,1,1,1,806
1642,3,1,442,8,1,1,1,1332
1643,3,1,443,8,0,0,1,2282
1644,3,1,444,4,0,0,1,728
1645,3,1,445,4,1,1,1,724
1646,3,1,446,8,0,0,1,774
1647,3,1,447,4,0,0,1,544
1648,3,1,448,8,0,0,1,1397
1649,3,1,449,4,0,0,1,602
1650,3,1,450,4,1,1,1,641
1651,3,1,451,8,1,1,1,1922
1652,3,1,452,4,1,1,1,709
1653,3,1,453,8,0,0,1,1265
1654,3,1,454,8,0,0,1,1501
1655,3,1,455,4,1,1,1,595
1656,3,1,456,4,1,1,1,492
1657,3,1,457,8,1,1,1,974
1658,3,1,458,4,1,1,1,563
1659,3,1,459,4,0,0,1,798
1660,3,1,460,8,0,0,1,1060
1661,3,1,461,4,1,1,1,974
1662,3,1,462,8,1,1,1,1253
1663,3,1,463,8,0,0,1,781
1664,3,1,464,8,0,0,1,577
1665,3,1,465,8,1,1,1,1599
1666,3,1,466,8,0,0,1,746
1667,3,1,467,4,1,1,1,474
1668,3,1,468,8,0,0,1,942
1669,3,1,469,4,1,1,1,582
1670,3,1,470,8,1,1,1,488
1671,3,1,471,4,0,0,1,723
1672,3,1,472,8,1,1,1,929
1673,3,1,473,8,0,0,1,1202
1674,3,1,474,4,0,0,1,1114
1675,3,1,475,4,1,1,1,511
1676,3,1,476,8,1,1,1,1314
1677,3,1,477,8,1,1,1,649
1678,3,1,478,4,0,0,1,554
1679,3,1,479,8,0,0,1,1158
1680,3,1,480,8,1,1,1,931
1681,3,1,481,8,0,0,1,944
1682,3,1,482,8,1,1,1,546
1683,3,1,483,8,1,1,1,903
1684,3,1,484,4,0,0,1,547
1685,3,1,485,4,1,1,1,553
1686,3,1,486,8,1,1,1,500
1687,3,1,487,4,0,0,1,429
1688,3,1,488,4,0,0,1,536
1689,3,1,489,4,1,1,1,761
1690,3,1,490,4,1,1,1,713
1691,3,1,491,4,0,0,1,712
1692,3,1,492,8,0,0,1,1185
1693,3,1,493,4,0,0,1,635
1694,3,1,494,4,0,0,1,1087
1695,3,1,495,4,0,0,1,437
1696,3,1,496,4,0,0,1,502
1697,3,1,497,4,0,0,1,1034
1698,3,1,498,4,1,1,1,633
1699,3,1,499,4,0,0,1,1093
1700,3,1,500,4,0,0,1,500
1701,3,1,501,8,1,1,1,625
1702,3,1,502,8,1,1,1,1145
1703,3,1,503,4,0,0,1,849
1704,3,1,504,4,1,1,1,891
1705,3,1,505,4,1,1,1,800
1706,3,1,506,8,0,0,1,613
1707,3,1,507,8,0,0,1,781
1708,3,1,508,4,1,1,1,858
1709,3,1,509,4,1,1,1,867
1710,3,1,510,4,1,1,1,585
1711,3,1,511,8,1,1,1,589
1712,3,1,512,8,1,1,1,920
1713,3,1,513,4,1,1,1,689
1714,3,1,514,4,1,1,1,719
1715,3,1,515,4,1,1,1,902
1716,3,1,516,8,1,1,1,1650
1717,3,1,517,4,0,0,1,1024
1718,3,1,518,4,1,1,1,642
1719,3,1,519,4,0,0,1,1261
1720,3,1,520,8,0,0,1,790
1721,3,1,521,4,1,1,1,883
1722,3,1,522,4,0,0,1,502
1723,3,1,523,4,1,1,1,759
1724,3,1,524,8,0,0,1,1846
1725,3,1,525,8,0,0,1,1560
1726,3,1,526,8,1,1,1,1621
1727,3,1,527,4,0,0,1,608
1728,3,1,528,8,0,0,1,580
1729,3,1,529,4,0,0,1,833
1730,3,1,530,8,1,1,1,1180
1731,3,1,531,4,0,0,1,743
1732,3,1,532,8,0,0,1,1217
1733,3,1,533,8,0,0,1,937
1734,3,1,534,8,0,0,1,1187
1735,3,1,535,8,1,1,1,1160
1736,3,1,536,8,0,0,1,958
1737,3,1,537,8,1,1,1,1409
1738,3,1,538,4,1,1,1,812
1739,3,1,539,4,0,0,1,953
1740,3,1,540,8,1,1,1,1133
1741,3,1,541,8,1,1,1,1593
1742,3,1,542,4,1,1,1,974
1743,3,1,543,4,1,1,1,593
1744,3,1,544,8,0,0,1,722
1745,3,1,545,4,1,1,1,467
1746,3,1,546,8,1,1,1,779
1747,3,1,547,4,1,1,1,717
1748,3,1,548,4,1,1,1,977
1749,3,1,549,4,0,0,1,1067
1750,3,1,550,4,1,1,1,889
1751,3,1,551,4,0,0,1,1369
1752,3,1,552,8,1,1,1,1269
1753,3,1,553,4,1,1,1,620
1754,3,1,554,4,1,1,1,835
1755,3,1,555,8,0,0,1,1235
1756,3,1,556,8,0,0,1,980
1757,3,1,557,4,0,0,1,1125
1758,3,1,558,8,0,0,1,1184
1759,3,1,559,4,1,1,1,1132
1760,3,1,560,4,0,0,1,667
1761,3,1,561,4,1,1,1,620
1762,3,1,562,8,1,1,1,883
1763,3,1,563,4,0,0,1,796
1764,3,1,564,4,0,0,1,1144
1765,3,1,565,4,0,0,1,1026
1766,3,1,566,4,0,0,1,1336
1767,3,1,567,8,1,1,1,1028
1768,3,1,568,4,0,0,1,1000
1769,3,1,569,4,0,0,1,525
1770,3,1,570,8,1,1,1,695
1771,3,1,571,4,0,0,1,466
1772,3,1,572,4,0,0,1,567
1773,3,1,573,8,1,1,1,831
1774,3,1,574,4,0,0,1,566
1775,3,1,575,4,0,0,1,580
1776,3,1,576,4,0,0,1,950
1777,3,1,577,8,0,0,1,1007
1778,3,1,578,4,0,0,1,597
1779,3,1,579,8,1,1,1,2418
1780,3,1,580,8,1,1,1,1771
1781,3,1,581,4,1,1,1,772
1782,3,1,582,8,1,1,1,637
1783,3,1,583,8,1,1,1,1439
1784,3,1,584,4,0,0,1,1249
1785,3,1,585,8,0,0,1,1091
1786,3,1,586,4,1,1,1,709
1787,3,1,587,8,0,0,1,636
1788,3,1,588,8,0,0,1,559
1789,3,1,589,8,1,1,1,1350
1790,3,1,590,8,0,0,1,730
1791,3,1,591,8,0,0,1,1977
1792,3,1,592,4,0,0,1,553
1793,3,1,593,4,1,1,1,1015
1794,3,1,594,8,0,0,1,554
1795,3,1,595,4,1,1,1,745
1796,3,1,596,4,1,1,1,576
1797,3,1,597,8,0,0,1,491
1798,3,1,598,8,0,0,1,611
1799,3,1,599,4,0,0,1,683
1800,3,1,600,8,1,1,1,509
1801,4,1,1,4,0,0,1,1661
1802,4,1,2,8,1,1,1,1320
1803,4,1,3,4,1,1,1,1973
1804,4,1,4,8,1,1,1,4890
1805,4,1,5,8,0,0,1,2148
1806,4,1,6,4,0,0,1,2383
1807,4,1,7,4,0,0,1,1550
1808,4,1,8,4,0,0,1,1216
1809,4,1,9,4,1,1,1,1639
1810,4,1,10,8,0,0,1,1347
1811,4,1,11,8,1,1,1,925
1812,4,1,12,8,1,1,1,1142
1813,4,1,13,4,0,0,1,473
1814,4,1,14,8,1,1,1,1313
1815,4,1,15,8,1,1,1,1099
1816,4,1,16,8,0,0,1,1090
1817,4,1,17,4,0,0,1,1412
1818,4,1,18,8,1,1,1,3107
1819,4,1,19,4,1,1,1,1713
1820,4,1,20,4,1,1,1,1422
1821,4,1,21,4,0,0,1,1249
1822,4,1,22,4,1,1,1,1111
1823,4,1,23,4,0,0,1,1431
1824,4,1,24,4,1,1,1,646
1825,4,1,25,8,1,1,1,795
1826,4,1,26,4,1,1,1,627
1827,4,1,27,4,0,0,1,1534
1828,4,1,28,4,1,1,1,788
1829,4,1,29,4,0,0,1,1389
1830,4,1,30,8,0,0,1,2815
1831,4,1,31,4,1,1,1,2360
1832,4,1,32,4,1,1,1,854
1833,4,1,33,4,1,1,1,1261
1834,4,1,34,8,1,1,1,1327
1835,4,1,35,8,1,1,1,1939
1836,4,1,36,8,1,1,1,1720
1837,4,1,37,8,1,1,1,1698
1838,4,1,38,4,0,0,1,1788
1839,4,1,39,4,1,1,1,1151
1840,4,1,40,4,1,1,1,1262
1841,4,1,41,4,1,1,1,885
1842,4,1,42,4,1,1,1,796
1843,4,1,43,8,1,1,1,1627
1844,4,1,44,8,1,1,1,774
1845,4,1,45,4,0,0,1,1250
1846,4,1,46,4,1,1,1,1434
1847,4,1,47,8,1,1,1,914
1848,4,1,48,4,1,1,1,1007
1849,4,1,49,8,0,0,1,2753
1850,4,1,50,4,0,0,1,1917
1851,4,1,51,8,1,1,1,1626
1852,4,1,52,4,1,1,1,1378
1853,4,1,53,8,1,1,1,1138
1854,4,1,54,8,0,0,1,955
1855,4,1,55,8,1,1,1,1298
1856,4,1,56,4,1,1,1,1294
1857,4,1,57,4,1,1,1,1532
1858,4,1,58,4,1,1,1,946
1859,4,1,59,4,1,1,1,1453
1860,4,1,60,4,0,0,1,923
1861,4,1,61,8,0,0,1,939
1862,4,1,62,4,1,1,1,998
1863,4,1,63,8,1,1,1,1992
1864,4,1,64,8,0,0,1,921
1865,4,1,65,8,0,0,1,817
1866,4,1,66,8,1,1,1,1148
1867,4,1,67,8,0,0,1,1732
1868,4,1,68,8,1,1,1,1087
1869,4,1,69,8,0,0,1,782
1870,4,1,70,8,0,0,1,774
1871,4,1,71,4,1,1,1,784
1872,4,1,72,4,1,1,1,887
1873,4,1,73,8,0,0,1,2309
1874,4,1,74,4,1,1,1,1351
1875,4,1,75,8,0,0,1,1660
1876,4,1,76,8,1,1,1,732
1877,4,1,77,4,0,0,1,1088
1878,4,1,78,8,1,1,1,1677
1879,4,1,79,8,1,1,1,1465
1880,4,1,80,8,1,1,1,3076
1881,4,1,81,4,0,0,1,1268
1882,4,1,82,4,0,0,1,1158
1883,4,1,83,4,0,0,1,982
1884,4,1,84,4,1,1,1,700
1885,4,1,85,4,1,1,1,1468
1886,4,1,86,4,0,0,1,1244
1887,4,1,87,8,0,0,1,1059
1888,4,1,88,4,1,1,1,3308
1889,4,1,89,4,0,0,1,1087
1890,4,1,90,4,0,0,1,1001
1891,4,1,91,4,0,0,1,2038
1892,4,1,92,8,0,0,1,1526
1893,4,1,93,8,0,0,1,1478
1894,4,1,94,4,1,1,1,1415
1895,4,1,95,4,0,0,1,588
1896,4,1,96,8,1,1,1,2242
1897,4,1,97,8,1,1,1,1990
1898,4,1,98,4,0,0,1,2197
1899,4,1,99,4,1,1,1,691
1900,4,1,100,8,0,0,1,2121
1901,4,1,101,4,0,0,1,1219
1902,4,1,102,8,0,0,1,1606
1903,4,1,103,8,0,0,1,1261
1904,4,1,104,8,1,1,1,1093
1905,4,1,105,4,1,1,1,1506
1906,4,1,106,8,0,0,1,1470
1907,4,1,107,4,1,1,1,855
1908,4,1,108,8,0,0,1,2084
1909,4,1,109,8,0,0,1,1758
1910,4,1,110,8,1,1,1,1353
1911,4,1,111,4,0,0,1,868
1912,4,1,112,4,0,0,1,696
1913,4,1,113,8,1,1,1,1931
1914,4,1,114,4,0,0,1,618
1915,4,1,115,4,0,0,1,889
1916,4,1,116,4,1,1,1,545
1917,4,1,117,8,0,0,1,2123
1918,4,1,118,4,1,1,1,1036
1919,4,1,119,8,0,0,1,653
1920,4,1,120,8,0,0,1,761
1921,4,1,121,4,0,0,1,677
1922,4,1,122,4,1,1,1,744
1923,4,1,123,8,0,0,1,548
1924,4,1,124,8,0,0,1,663
1925,4,1,125,8,1,1,1,827
1926,4,1,126,4,1,1,1,1096
1927,4,1,127,4,1,1,1,715
1928,4,1,128,4,1,1,1,1956
1929,4,1,129,8,1,1,1,874
1930,4,1,130,8,1,1,1,810
1931,4,1,131,8,0,0,1,2027
1932,4,1,132,8,1,1,1,1098
1933,4,1,133,4,1,1,1,1335
1934,4,1,134,4,1,1,1,1315
1935,4,1,135,4,0,0,1,843
1936,4,1,136,4,0,0,1,888
1937,4,1,137,8,1,1,1,1095
1938,4,1,138,4,1,1,1,1349
1939,4,1,139,8,0,0,1,3149
1940,4,1,140,8,1,1,1,1918
1941,4,1,141,4,0,0,1,1469
1942,4,1,142,8,0,0,1,1697
1943,4,1,143,8,0,0,1,1522
1944,4,1,144,8,1,1,1,750
1945,4,1,145,8,0,0,1,1596
1946,4,1,146,8,0,0,1,2053
1947,4,1,147,4,0,0,1,587
1948,4,1,148,8,0,0,1,1339
1949,4,1,149,8,1,1,1,1398
1950,4,1,150,4,1,1,1,876
1951,4,1,151,8,0,0,1,954
1952,4,1,152,8,1,1,1,1784
1953,4,1,153,4,1,1,1,1231
1954,4,1,154,4,0,0,1,782
1955,4,1,155,8,0,0,1,2418
1956,4,1,156,8,0,0,1,1383
1957,4,1,157,8,1,1,1,1496
1958,4,1,158,8,0,0,1,719
1959,4,1,159,8,0,0,1,2259
1960,4,1,160,4,1,1,1,747
1961,4,1,161,8,1,1,1,1225
1962,4,1,162,8,0,0,1,1957
1963,4,1,163,8,1,1,1,624
1964,4,1,164,8,1,1,1,946
1965,4,1,165,8,1,1,1,2475
1966,4,1,166,4,1,1,1,688
1967,4,1,167,4,1,1,1,748
1968,4,1,168,4,0,0,1,1095
1969,4,1,169,8,1,1,1,1552
1970,4,1,170,4,1,1,1,1079
1971,4,1,171,8,1,1,1,2496
1972,4,1,172,8,1,1,1,917
1973,4,1,173,4,0,0,1,1100
1974,4,1,174,8,0,0,1,786
1975,4,1,175,4,1,1,1,1275
1976,4,1,176,4,0,0,1,955
1977,4,1,177,4,0,0,1,602
1978,4,1,178,8,1,1,1,854
1979,4,1,179,8,1,1,1,1768
1980,4,1,180,4,0,0,1,566
1981,4,1,181,8,1,1,1,1128
1982,4,1,182,4,0,0,1,489
1983,4,1,183,8,0,0,1,874
1984,4,1,184,8,1,1,1,823
1985,4,1,185,4,1,1,0,526
1986,4,1,186,4,1,1,1,1492
1987,4,1,187,8,1,1,1,1029
1988,4,1,188,8,1,1,1,1186
1989,4,1,189,4,1,1,1,617
1990,4,1,190,4,0,0,1,1103
1991,4,1,191,4,0,0,1,1179
1992,4,1,192,4,1,1,1,663
1993,4,1,193,8,1,1,1,1864
1994,4,1,194,4,0,0,1,563
1995,4,1,195,8,1,1,1,1274
1996,4,1,196,8,1,1,1,521
1997,4,1,197,8,1,1,1,934
1998,4,1,198,8,0,0,1,1117
1999,4,1,199,8,1,1,1,675
2000,4,1,200,4,0,0,1,960
2001,4,1,201,8,0,0,1,675
2002,4,1,202,8,1,1,1,771
2003,4,1,203,4,1,1,1,884
2004,4,1,204,4,0,0,1,909
2005,4,1,205,4,1,1,1,591
2006,4,1,206,8,0,0,1,1921
2007,4,1,207,4,0,0,1,923
2008,4,1,208,4,1,1,1,1244
2009,4,1,209,8,0,0,1,2078
2010,4,1,210,8,1,1,1,691
2011,4,1,211,4,1,1,1,1067
2012,4,1,212,4,0,0,1,658
2013,4,1,213,4,0,0,1,930
2014,4,1,214,4,0,0,1,1406
2015,4,1,215,8,0,0,1,1159
2016,4,1,216,4,0,0,1,585
2017,4,1,217,8,1,1,1,627
2018,4,1,218,4,1,1,1,976
2019,4,1,219,8,0,0,1,542
2020,4,1,220,4,0,0,1,1128
2021,4,1,221,8,0,0,1,1394
2022,4,1,222,4,1,1,1,611
2023,4,1,223,4,0,0,1,1554
2024,4,1,224,4,1,1,1,637
2025,4,1,225,4,1,1,1,808
2026,4,1,226,4,0,0,1,864
2027,4,1,227,8,0,0,1,1017
2028,4,1,228,4,0,0,1,1253
2029,4,1,229,4,0,0,1,1008
2030,4,1,230,8,0,0,1,2464
2031,4,1,231,4,0,0,1,521
2032,4,1,232,4,0,0,1,1260
2033,4,1,233,4,0,0,1,644
2034,4,1,234,8,1,1,1,989
2035,4,1,235,4,0,0,1,873
2036,4,1,236,4,1,1,1,835
2037,4,1,237,8,1,1,1,1175
2038,4,1,238,4,1,1,1,1238
2039,4,1,239,4,1,1,1,461
2040,4,1,240,8,0,0,1,559
2041,4,1,241,4,0,0,1,596
2042,4,1,242,4,0,0,1,1275
2043,4,1,243,8,1,1,1,651
2044,4,1,244,8,1,1,1,618
2045,4,1,245,4,0,0,1,1203
2046,4,1,246,4,0,0,1,859
2047,4,1,247,8,1,1,1,1031
2048,4,1,248,8,1,1,1,540
2049,4,1,249,4,1,1,1,747
2050,4,1,250,8,1,1,1,1607
2051,4,1,251,4,1,1,1,1272
2052,4,1,252,8,0,0,1,1524
2053,4,1,253,8,0,0,1,920
2054,4,1,254,8,0,0,1,534
2055,4,1,255,4,0,0,1,612
2056,4,1,256,4,1,1,1,1144
2057,4,1,257,8,0,0,1,948
2058,4,1,258,8,0,0,1,1654
2059,4,1,259,4,0,0,1,929
2060,4,1,260,4,0,0,1,764
2061,4,1,261,4,1,1,1,1211
2062,4,1,262,8,0,0,1,882
2063,4,1,263,4,1,1,1,621
2064,4,1,264,4,1,1,1,582
2065,4,1,265,4,1,1,1,896
2066,4,1,266,8,0,0,1,775
2067,4,1,267,8,0,0,1,1488
2068,4,1,268,8,0,0,1,1788
2069,4,1,269,8,1,1,1,1631
2070,4,1,270,8,1,1,1,653
2071,4,1,271,8,1,1,1,785
2072,4,1,272,8,0,0,1,2145
2073,4,1,273,4,0,0,1,740
2074,4,1,274,8,0,0,1,556
2075,4,1,275,4,0,0,1,1170
2076,4,1,276,8,1,1,1,1226
2077,4,1,277,4,1,1,1,1361
2078,4,1,278,8,1,1,1,2087
2079,4,1,279,8,0,0,1,1364
2080,4,1,280,4,1,1,1,1172
2081,4,1,281,4,1,1,1,1138
2082,4,1,282,4,0,0,1,686
2083,4,1,283,4,0,0,1,630
2084,4,1,284,8,0,0,1,1982
2085,4,1,285,8,0,0,1,1152
2086,4,1,286,8,1,1,1,1543
2087,4,1,287,4,0,0,1,514
2088,4,1,288,8,1,1,1,963
2089,4,1,289,8,0,0,1,1005
2090,4,1,290,4,0,0,1,1499
2091,4,1,291,4,0,0,1,1400
2092,4,1,292,4,1,1,1,1113
2093,4,1,293,8,0,0,1,969
2094,4,1,294,8,1,1,1,1344
2095,4,1,295,8,0,0,1,690
2096,4,1,296,8,0,0,1,666
2097,4,1,297,8,0,0,1,1789
2098,4,1,298,8,1,1,1,1351
2099,4,1,299,4,1,1,1,965
2100,4,1,300,8,0,0,1,2218
2101,4,1,301,8,1,1,1,844
2102,4,1,302,4,1,1,1,566
2103,4,1,303,8,1,1,1,1176
2104,4,1,304,8,1,1,1,1069
2105,4,1,305,8,0,0,1,2567
2106,4,1,306,8,1,1,1,1438
2107,4,1,307,4,0,0,1,1364
2108,4,1,308,4,0,0,1,545
2109,4,1,309,8,0,0,1,642
2110,4,1,310,8,1,1,1,1528
2111,4,1,311,8,1,1,1,4648
2112,4,1,312,8,0,0,1,1723
2113,4,1,313,8,1,1,1,1336
2114,4,1,314,8,1,1,1,1758
2115,4,1,315,8,1,1,1,1898
2116,4,1,316,4,1,1,1,1740
2117,4,1,317,8,0,0,1,3322
2118,4,1,318,4,1,1,1,1462
2119,4,1,319,8,0,0,1,1777
2120,4,1,320,8,0,0,1,597
2121,4,1,321,8,1,1,1,794
2122,4,1,322,4,0,0,1,1133
2123,4,1,323,8,0,0,1,2082
2124,4,1,324,8,1,1,1,1132
2125,4,1,325,8,1,1,1,648
2126,4,1,326,4,1,1,1,640
2127,4,1,327,8,0,0,1,1508
2128,4,1,328,4,0,0,1,569
2129,4,1,329,4,0,0,1,545
2130,4,1,330,4,1,1,1,1020
2131,4,1,331,4,0,0,1,1278
2132,4,1,332,4,1,1,1,774
2133,4,1,333,4,1,1,1,631
2134,4,1,334,8,0,0,1,469
2135,4,1,335,4,0,0,1,808
2136,4,1,336,4,0,0,1,1187
2137,4,1,337,4,1,1,1,924
2138,4,1,338,8,1,1,1,1993
2139,4,1,339,8,0,0,1,865
2140,4,1,340,4,0,0,1,1051
2141,4,1,341,8,0,0,1,1314
2142,4,1,342,4,1,1,1,788
2143,4,1,343,8,1,1,1,1085
2144,4,1,344,4,0,0,1,1423
2145,4,1,345,4,1,1,1,692
2146,4,1,346,4,0,0,1,1231
2147,4,1,347,8,0,0,1,721
2148,4,1,348,4,1,1,1,638
2149,4,1,349,4,0,0,1,1719
2150,4,1,350,8,1,1,1,2217
2151,4,1,351,4,1,1,1,1033
2152,4,1,352,8,1,1,1,799
2153,4,1,353,4,0,0,1,908
2154,4,1,354,8,1,1,1,903
2155,4,1,355,8,1,1,1,2099
2156,4,1,356,4,0,0,1,1138
2157,4,1,357,4,1,1,1,712
2158,4,1,358,4,0,0,1,817
2159,4,1,359,8,0,0,1,1188
2160,4,1,360,4,1,1,1,727
2161,4,1,361,8,0,0,1,876
2162,4,1,362,8,0,0,1,1505
2163,4,1,363,8,0,0,1,854
2164,4,1,364,4,0,0,1,914
2165,4,1,365,8,1,1,1,613
2166,4,1,366,4,1,1,1,1051
2167,4,1,367,4,1,1,1,1413
2168,4,1,368,8,0,0,1,1182
2169,4,1,369,8,1,1,1,905
2170,4,1,370,8,0,0,1,1332
2171,4,1,371,8,0,0,1,692
2172,4,1,372,4,1,1,1,987
2173,4,1,373,8,1,1,1,2519
2174,4,1,374,4,1,1,1,670
2175,4,1,375,8,1,1,1,918
2176,4,1,376,8,1,1,1,948
2177,4,1,377,8,0,0,1,1429
2178,4,1,378,4,1,1,1,1025
2179,4,1,379,8,1,1,1,1277
2180,4,1,380,8,1,1,1,667
2181,4,1,381,8,0,0,1,1253
2182,4,1,382,4,1,1,1,2161
2183,4,1,383,4,0,0,1,833
2184,4,1,384,4,0,0,1,904
2185,4,1,385,8,0,0,1,1477
2186,4,1,386,4,0,0,1,1278
2187,4,1,387,4,0,0,1,805
2188,4,1,388,8,1,1,1,625
2189,4,1,389,4,1,1,1,1033
2190,4,1,390,4,0,0,1,1858
2191,4,1,391,8,0,0,1,1249
2192,4,1,392,8,1,1,1,2065
2193,4,1,393,4,0,0,1,1375
2194,4,1,394,8,1,1,1,1639
2195,4,1,395,8,0,0,1,1118
2196,4,1,396,8,0,0,1,693
2197,4,1,397,4,0,0,1,1216
2198,4,1,398,8,0,0,1,1157
2199,4,1,399,4,0,0,1,1309
2200,4,1,400,8,0,0,1,855
2201,4,1,401,8,1,1,1,960
2202,4,1,402,8,0,0,1,1096
2203,4,1,403,4,1,1,1,521
2204,4,1,404,4,0,0,1,582
2205,4,1,405,4,1,1,1,727
2206,4,1,406,4,1,1,1,1571
2207,4,1,407,8,1,1,1,1190
2208,4,1,408,8,0,0,1,652
2209,4,1,409,8,1,1,1,846
2210,4,1,410,8,1,1,1,612
2211,4,1,411,8,0,0,1,693
2212,4,1,412,4,1,1,1,1276
2213,4,1,413,8,1,1,1,1466
2214,4,1,414,4,1,1,1,884
2215,4,1,415,4,0,0,1,850
2216,4,1,416,8,0,0,1,1341
2217,4,1,417,4,0,0,1,1288
2218,4,1,418,8,0,0,1,1466
2219,4,1,419,8,0,0,1,1350
2220,4,1,420,8,0,0,1,1273
2221,4,1,421,4,1,1,1,917
2222,4,1,422,8,1,1,1,1947
2223,4,1,423,4,0,0,1,883
2224,4,1,424,4,0,0,1,1029
2225,4,1,425,8,0,0,1,1328
2226,4,1,426,8,0,0,1,1336
2227,4,1,427,8,1,1,1,1306
2228,4,1,428,8,0,0,1,772
2229,4,1,429,8,1,1,1,842
2230,4,1,430,8,0,0,1,899
2231,4,1,431,4,1,1,1,1249
2232,4,1,432,4,1,1,1,826
2233,4,1,433,8,1,1,1,1567
2234,4,1,434,4,0,0,1,922
2235,4,1,435,4,1,1,1,1398
2236,4,1,436,4,1,1,1,890
2237,4,1,437,4,1,1,1,687
2238,4,1,438,8,0,0,1,1685
2239,4,1,439,8,1,1,1,593
2240,4,1,440,4,0,0,1,1105
2241,4,1,441,4,1,1,1,1088
2242,4,1,442,4,0,0,1,1171
2243,4,1,443,4,0,0,1,641
2244,4,1,444,8,0,0,1,2072
2245,4,1,445,8,0,0,1,1049
2246,4,1,446,8,0,0,1,2631
2247,4,1,447,4,1,1,1,1114
2248,4,1,448,8,1,1,1,1037
2249,4,1,449,4,1,1,1,1150
2250,4,1,450,4,1,1,1,720
2251,4,1,451,4,1,1,1,606
2252,4,1,452,4,0,0,1,1021
2253,4,1,453,4,0,0,1,1025
2254,4,1,454,4,0,0,1,540
2255,4,1,455,4,0,0,1,930
2256,4,1,456,8,0,0,1,945
2257,4,1,457,8,0,0,1,1706
2258,4,1,458,8,0,0,1,1212
2259,4,1,459,4,0,0,1,490
2260,4,1,460,8,1,1,1,1264
2261,4,1,461,8,1,1,1,2180
2262,4,1,462,8,1,1,1,1805
2263,4,1,463,4,0,0,1,785
2264,4,1,464,8,1,1,1,2186
2265,4,1,465,4,0,0,1,731
2266,4,1,466,4,1,1,1,1741
2267,4,1,467,4,1,1,1,736
2268,4,1,468,8,1,1,1,2261
2269,4,1,469,4,1,1,1,741
2270,4,1,470,4,1,1,1,1149
2271,4,1,471,8,1,1,1,1141
2272,4,1,472,8,1,1,1,780
2273,4,1,473,4,0,0,1,1212
2274,4,1,474,8,1,1,1,967
2275,4,1,475,4,0,0,1,872
2276,4,1,476,8,0,0,1,2907
2277,4,1,477,4,0,0,1,1155
2278,4,1,478,8,1,1,1,1351
2279,4,1,479,4,0,0,1,1602
2280,4,1,480,4,1,1,1,1313
2281,4,1,481,4,0,0,1,786
2282,4,1,482,4,1,1,1,931
2283,4,1,483,4,1,1,1,721
2284,4,1,484,4,1,1,1,1434
2285,4,1,485,4,0,0,1,1321
2286,4,1,486,8,0,0,1,758
2287,4,1,487,8,0,0,1,1064
2288,4,1,488,8,1,1,1,612
2289,4,1,489,4,1,1,1,1345
2290,4,1,490,4,0,0,1,1472
2291,4,1,491,8,0,0,1,1415
2292,4,1,492,4,0,0,1,1223
2293,4,1,493,8,1,1,1,1249
2294,4,1,494,4,1,1,1,930
2295,4,1,495,4,0,0,1,765
2296,4,1,496,4,1,1,1,1524
2297,4,1,497,8,1,1,1,1245
2298,4,1,498,4,0,0,1,840
2299,4,1,499,8,0,0,1,1748
2300,4,1,500,8,0,0,1,785
2301,4,1,501,4,1,1,1,1836
2302,4,1,502,4,1,1,1,1329
2303,4,1,503,4,0,0,1,662
2304,4,1,504,4,1,1,1,1231
2305,4,1,505,8,1,1,1,1593
2306,4,1,506,4,1,1,1,1805
2307,4,1,507,4,0,0,1,2021
2308,4,1,508,8,1,1,1,1117
2309,4,1,509,8,0,0,1,1464
2310,4,1,510,8,0,0,1,1433
2311,4,1,511,8,0,0,1,644
2312,4,1,512,4,1,1,1,648
2313,4,1,513,8,0,0,1,652
2314,4,1,514,8,0,0,1,1891
2315,4,1,515,8,0,0,1,1374
2316,4,1,516,4,0,0,1,1201
2317,4,1,517,8,1,1,1,620
2318,4,1,518,4,1,1,1,572
2319,4,1,519,8,0,0,1,1304
2320,4,1,520,8,0,0,1,926
2321,4,1,521,8,1,1,1,1179
2322,4,1,522,4,0,0,1,820
2323,4,1,523,4,1,1,1,1007
2324,4,1,524,8,0,0,1,608
2325,4,1,525,4,1,1,1,1065
2326,4,1,526,4,1,1,1,931
2327,4,1,527,8,0,0,1,1024
2328,4,1,528,4,1,1,1,1104
2329,4,1,529,4,0,0,1,694
2330,4,1,530,4,0,0,1,598
2331,4,1,531,4,1,1,1,707
2332,4,1,532,8,1,1,1,1728
2333,4,1,533,4,0,0,1,661
2334,4,1,534,8,1,1,1,832
2335,4,1,535,4,0,0,1,1092
2336,4,1,536,4,1,1,1,1065
2337,4,1,537,8,1,1,1,631
2338,4,1,538,8,1,1,1,997
2339,4,1,539,8,0,0,1,773
2340,4,1,540,4,0,0,1,562
2341,4,1,541,4,1,1,1,1250
2342,4,1,542,8,1,1,1,942
2343,4,1,543,4,1,1,1,773
2344,4,1,544,4,0,0,1,528
2345,4,1,545,8,1,1,1,588
2346,4,1,546,8,0,0,1,1270
2347,4,1,547,4,0,0,1,936
2348,4,1,548,8,0,0,1,818
2349,4,1,549,8,1,1,1,1448
2350,4,1,550,8,0,0,1,789
2351,4,1,551,8,0,0,1,2355
2352,4,1,552,8,0,0,1,1091
2353,4,1,553,8,1,1,1,1301
2354,4,1,554,8,0,0,1,1134
2355,4,1,555,8,0,0,1,1074
2356,4,1,556,4,0,0,1,986
2357,4,1,557,4,1,1,1,850
2358,4,1,558,4,0,0,1,637
2359,4,1,559,4,1,1,1,590
2360,4,1,560,4,1,1,1,1374
2361,4,1,561,8,0,0,1,975
2362,4,1,562,4,0,0,1,939
2363,4,1,563,8,1,1,1,972
2364,4,1,564,8,0,0,1,653
2365,4,1,565,8,1,1,1,581
2366,4,1,566,8,1,1,1,1480
2367,4,1,567,4,0,0,1,779
2368,4,1,568,8,1,1,1,1522
2369,4,1,569,8,1,1,1,1108
2370,4,1,570,4,0,0,1,873
2371,4,1,571,4,0,0,1,726
2372,4,1,572,8,1,1,1,845
2373,4,1,573,4,1,1,1,856
2374,4,1,574,4,0,0,1,720
2375,4,1,575,8,1,1,1,2261
2376,4,1,576,4,0,0,1,680
2377,4,1,577,8,0,0,1,1231
2378,4,1,578,4,1,1,1,1262
2379,4,1,579,4,1,1,1,670
2380,4,1,580,4,1,1,1,533
2381,4,1,581,4,0,0,1,625
2382,4,1,582,4,0,0,1,1061
2383,4,1,583,4,1,1,1,743
2384,4,1,584,8,1,1,1,1943
2385,4,1,585,4,0,0,1,917
2386,4,1,586,8,0,0,1,2137
2387,4,1,587,4,1,1,1,708
2388,4,1,588,4,1,1,1,1231
2389,4,1,589,4,0,0,1,692
2390,4,1,590,8,0,0,1,713
2391,4,1,591,8,0,0,1,1050
2392,4,1,592,4,0,0,1,890
2393,4,1,593,8,0,0,1,1695
2394,4,1,594,8,1,1,1,1156
2395,4,1,595,4,1,1,1,843
2396,4,1,596,4,0,0,1,658
2397,4,1,597,4,1,1,1,563
2398,4,1,598,8,0,0,1,707
2399,4,1,599,8,1,1,1,538
2400,4,1,600,4,0,0,1,462
2401,5,1,1,8,0,0,0,214
2402,5,1,2,8,0,0,1,3433
2403,5,1,3,8,1,1,1,2565
2404,5,1,4,4,1,1,1,1257
2405,5,1,5,8,0,0,1,1916
2406,5,1,6,8,1,1,1,1889
2407,5,1,7,4,1,1,1,1671
2408,5,1,8,4,0,0,1,759
2409,5,1,9,8,1,1,1,991
2410,5,1,10,8,0,0,1,1193
2411,5,1,11,4,0,0,1,1063
2412,5,1,12,8,0,0,1,723
2413,5,1,13,4,1,1,1,1098
2414,5,1,14,8,1,1,1,1759
2415,5,1,15,4,0,0,1,1407
2416,5,1,16,4,1,1,1,1634
2417,5,1,17,4,1,1,1,1461
2418,5,1,18,4,0,0,1,2643
2419,5,1,19,8,0,0,1,954
2420,5,1,20,8,1,1,1,774
2421,5,1,21,4,0,0,1,691
2422,5,1,22,8,0,0,1,2844
2423,5,1,23,4,1,1,1,772
2424,5,1,24,4,0,0,1,774
2425,5,1,25,8,1,1,1,2439
2426,5,1,26,8,0,0,1,948
2427,5,1,27,4,0,0,1,621
2428,5,1,28,8,1,1,1,2475
2429,5,1,29,4,1,1,1,988
2430,5,1,30,4,1,1,1,1656
2431,5,1,31,8,1,1,1,1427
2432,5,1,32,4,0,0,1,1290
2433,5,1,33,4,1,1,1,1834
2434,5,1,34,4,0,0,1,2345
2435,5,1,35,4,1,1,1,892
2436,5,1,36,8,1,1,1,827
2437,5,1,37,4,1,1,1,521
2438,5,1,38,4,1,1,1,707
2439,5,1,39,8,0,0,1,957
2440,5,1,40,8,0,0,1,2431
2441,5,1,41,8,0,0,1,1121
2442,5,1,42,4,1,1,1,1035
2443,5,1,43,4,1,1,1,2061
2444,5,1,44,4,0,0,1,589
2445,5,1,45,8,0,0,1,2570
2446,5,1,46,8,1,1,1,2395
2447,5,1,47,4,0,0,1,1073
2448,5,1,48,8,0,0,1,1664
2449,5,1,49,8,1,1,1,1123
2450,5,1,50,4,1,1,1,891
2451,5,1,51,4,1,1,0,708
2452,5,1,52,4,0,0,1,1558
2453,5,1,53,4,0,0,1,2050
2454,5,1,54,8,1,1,1,851
2455,5,1,55,8,1,1,1,2510
2456,5,1,56,4,1,1,1,722
2457,5,1,57,4,0,0,1,750
2458,5,1,58,8,1,1,1,681
2459,5,1,59,4,0,0,0,692
2460,5,1,60,8,1,1,1,1079
2461,5,1,61,4,0,0,1,1247
2462,5,1,62,8,0,0,1,979
2463,5,1,63,4,1,1,1,1017
2464,5,1,64,4,0,0,1,1602
2465,5,1,65,8,0,0,1,932
2466,5,1,66,4,0,0,1,759
2467,5,1,67,4,1,1,1,1245
2468,5,1,68,8,0,0,1,1433
2469,5,1,69,8,0,0,1,587
2470,5,1,70,4,0,0,1,933
2471,5,1,71,4,0,0,1,678
2472,5,1,72,4,1,1,1,718
2473,5,1,73,4,0,0,1,1545
2474,5,1,74,4,1,1,1,1347
2475,5,1,75,4,1,1,1,723
2476,5,1,76,8,1,1,1,793
2477,5,1,77,4,0,0,1,939
2478,5,1,78,4,1,1,1,611
2479,5,1,79,8,0,0,1,1680
2480,5,1,80,8,1,1,1,806
2481,5,1,81,8,0,0,1,1263
2482,5,1,82,8,0,0,1,1212
2483,5,1,83,4,1,1,1,1226
2484,5,1,84,4,0,0,1,968
2485,5,1,85,4,1,1,1,590
2486,5,1,86,8,1,1,1,611
2487,5,1,87,8,0,0,1,689
2488,5,1,88,4,0,0,1,1124
2489,5,1,89,8,1,1,1,910
2490,5,1,90,4,0,0,1,1812
2491,5,1,91,8,0,0,1,609
2492,5,1,92,4,1,1,1,1084
2493,5,1,93,8,1,1,1,984
2494,5,1,94,4,1,1,1,1570
2495,5,1,95,4,0,0,1,1113
2496,5,1,96,8,1,1,1,1157
2497,5,1,97,4,1,1,1,824
2498,5,1,98,8,0,0,1,985
2499,5,1,99,8,0,0,1,2058
2500,5,1,100,8,0,0,1,1581
2501,5,1,101,4,1,1,1,662
2502,5,1,102,4,0,0,1,1518
2503,5,1,103,4,0,0,1,1158
2504,5,1,104,8,0,0,1,1278
2505,5,1,105,8,0,0,1,1801
2506,5,1,106,4,1,1,1,1957
2507,5,1,107,8,0,0,1,936
2508,5,1,108,8,1,1,1,1319
2509,5,1,109,4,1,1,1,1079
2510,5,1,110,8,0,0,1,1045
2511,5,1,111,4,0,0,1,857
2512,5,1,112,4,1,1,1,983
2513,5,1,113,4,1,1,1,762
2514,5,1,114,8,1,1,1,1069
2515,5,1,115,8,0,0,1,1227
2516,5,1,116,4,0,0,1,766
2517,5,1,117,4,0,0,1,751
2518,5,1,118,8,1,1,1,1689
2519,5,1,119,4,0,0,1,776
2520,5,1,120,8,0,0,1,1067
2521,5,1,121,4,0,0,1,1359
2522,5,1,122,8,0,0,1,911
2523,5,1,123,8,1,1,1,760
2524,5,1,124,4,0,0,1,918
2525,5,1,125,8,1,1,1,988
2526,5,1,126,8,1,1,1,1119
2527,5,1,127,4,1,1,1,638
2528,5,1,128,8,0,0,1,1357
2529,5,1,129,8,0,0,1,1074
2530,5,1,130,8,0,0,1,980
2531,5,1,131,8,1,1,1,1051
2532,5,1,132,4,1,1,1,693
2533,5,1,133,4,0,0,1,677
2534,5,1,134,8,1,1,1,1245
2535,5,1,135,4,1,1,1,611
2536,5,1,136,8,1,1,1,1492
2537,5,1,137,8,1,1,1,1284
2538,5,1,138,4,0,0,1,953
2539,5,1,139,4,1,1,1,1224
2540,5,1,140,4,0,0,1,1056
2541,5,1,141,8,0,0,1,935
2542,5,1,142,4,0,0,1,1208
2543,5,1,143,4,1,1,1,1471
2544,5,1,144,4,0,0,1,970
2545,5,1,145,4,1,1,1,694
2546,5,1,146,4,0,0,1,662
2547,5,1,147,8,0,0,1,591
2548,5,1,148,8,0,0,1,1564
2549,5,1,149,4,1,1,1,1337
2550,5,1,150,4,1,1,1,845
2551,5,1,151,4,1,1,1,526
2552,5,1,152,4,1,1,1,990
2553,5,1,153,4,1,1,1,643
2554,5,1,154,4,0,0,1,591
2555,5,1,155,8,0,0,1,742
2556,5,1,156,8,0,0,1,842
2557,5,1,157,4,1,1,1,1080
2558,5,1,158,8,1,1,1,1263
2559,5,1,159,8,0,0,1,1093
2560,5,1,160,8,1,1,1,1425
2561,5,1,161,4,1,1,1,1760
2562,5,1,162,4,0,0,1,881
2563,5,1,163,8,1,1,1,1232
2564,5,1,164,4,1,1,1,732
2565,5,1,165,8,0,0,1,881
2566,5,1,166,8,0,0,1,675
2567,5,1,167,8,0,0,1,1521
2568,5,1,168,8,1,1,1,724
2569,5,1,169,8,0,0,1,1240
2570,5,1,170,4,0,0,1,1040
2571,5,1,171,4,1,1,1,886
2572,5,1,172,8,1,1,1,1308
2573,5,1,173,8,0,0,1,2140
2574,5,1,174,8,1,1,1,1240
2575,5,1,175,8,0,0,1,707
2576,5,1,176,8,1,1,1,844
2577,5,1,177,4,0,0,1,1133
2578,5,1,178,8,1,1,1,1089
2579,5,1,179,8,1,1,1,682
2580,5,1,180,4,0,0,1,758
2581,5,1,181,8,0,0,1,1475
2582,5,1,182,4,1,1,1,1016
2583,5,1,183,4,0,0,1,690
2584,5,1,184,4,0,0,1,594
2585,5,1,185,4,1,1,1,838
2586,5,1,186,8,0,0,1,509
2587,5,1,187,8,1,1,1,743
2588,5,1,188,4,0,0,1,921
2589,5,1,189,8,0,0,1,562
2590,5,1,190,4,1,1,1,594
2591,5,1,191,4,1,1,1,462
2592,5,1,192,8,1,1,1,640
2593,5,1,193,8,1,1,1,849
2594,5,1,194,8,0,0,1,1058
2595,5,1,195,8,1,1,1,460
2596,5,1,196,4,1,1,1,1002
2597,5,1,197,8,0,0,1,1106
2598,5,1,198,8,0,0,1,842
2599,5,1,199,4,1,1,1,511
2600,5,1,200,8,1,1,1,529
2601,5,1,201,8,1,1,1,649
2602,5,1,202,8,0,0,1,1388
2603,5,1,203,8,0,0,1,622
2604,5,1,204,8,0,0,1,2499
2605,5,1,205,4,0,0,1,533
2606,5,1,206,4,0,0,1,625
2607,5,1,207,4,1,1,1,572
2608,5,1,208,4,0,0,1,1255
2609,5,1,209,4,1,1,1,515
2610,5,1,210,8,1,1,1,877
2611,5,1,211,8,0,0,1,2127
2612,5,1,212,8,1,1,1,1453
2613,5,1,213,4,0,0,1,1303
2614,5,1,214,4,0,0,1,810
2615,5,1,215,4,1,1,1,649
2616,5,1,216,8,1,1,1,474
2617,5,1,217,8,0,0,1,802
2618,5,1,218,4,1,1,1,530
2619,5,1,219,8,0,0,1,1592
2620,5,1,220,4,1,1,1,527
2621,5,1,221,8,1,1,1,911
2622,5,1,222,8,1,1,1,1925
2623,5,1,223,4,0,0,1,769
2624,5,1,224,4,0,0,1,1400
2625,5,1,225,8,1,1,1,989
2626,5,1,226,4,1,1,1,902
2627,5,1,227,4,1,1,1,590
2628,5,1,228,8,0,0,1,688
2629,5,1,229,8,1,1,0,788
2630,5,1,230,8,1,1,1,1088
2631,5,1,231,4,0,0,1,593
2632,5,1,232,8,1,1,1,542
2633,5,1,233,8,0,0,1,2530
2634,5,1,234,8,1,1,1,1131
2635,5,1,235,8,0,0,1,1298
2636,5,1,236,4,0,0,1,558
2637,5,1,237,8,1,1,1,789
2638,5,1,238,8,0,0,1,812
2639,5,1,239,8,0,0,1,1561
2640,5,1,240,4,0,0,1,1204
2641,5,1,241,8,0,0,1,608
2642,5,1,242,4,0,0,1,603
2643,5,1,243,8,1,1,1,1708
2644,5,1,244,4,1,1,1,590
2645,5,1,245,4,0,0,1,1085
2646,5,1,246,8,1,1,1,740
2647,5,1,247,8,0,0,1,1689
2648,5,1,248,4,1,1,1,684
2649,5,1,249,4,1,1,1,829
2650,5,1,250,4,1,1,1,701
2651,5,1,251,4,0,0,1,897
2652,5,1,252,8,0,0,1,935
2653,5,1,253,4,1,1,1,2081
2654,5,1,254,4,1,1,1,724
2655,5,1,255,8,1,1,1,888
2656,5,1,256,4,1,1,1,583
2657,5,1,257,4,1,1,1,720
2658,5,1,258,8,1,1,1,615
2659,5,1,259,8,1,1,1,544
2660,5,1,260,8,0,0,1,992
2661,5,1,261,4,0,0,1,1813
2662,5,1,262,4,1,1,1,641
2663,5,1,263,4,1,1,1,1132
2664,5,1,264,4,0,0,1,832
2665,5,1,265,8,1,1,1,835
2666,5,1,266,8,0,0,1,853
2667,5,1,267,8,0,0,1,842
2668,5,1,268,4,1,1,1,810
2669,5,1,269,4,1,1,1,704
2670,5,1,270,4,0,0,1,579
2671,5,1,271,8,0,0,1,847
2672,5,1,272,4,0,0,1,464
2673,5,1,273,4,0,0,1,559
2674,5,1,274,4,1,1,1,1550
2675,5,1,275,8,1,1,1,640
2676,5,1,276,4,0,0,1,715
2677,5,1,277,4,0,0,1,1149
2678,5,1,278,8,0,0,1,1131
2679,5,1,279,8,1,1,1,1052
2680,5,1,280,8,0,0,1,885
2681,5,1,281,8,0,0,1,1091
2682,5,1,282,8,0,0,1,1481
2683,5,1,283,4,0,0,1,732
2684,5,1,284,8,1,1,1,2255
2685,5,1,285,8,0,0,1,1856
2686,5,1,286,4,0,0,1,810
2687,5,1,287,8,1,1,1,543
2688,5,1,288,8,0,0,1,512
2689,5,1,289,8,0,0,1,1425
2690,5,1,290,8,0,0,1,731
2691,5,1,291,4,0,0,1,972
2692,5,1,292,8,1,1,1,1506
2693,5,1,293,4,0,0,1,1053
2694,5,1,294,4,1,1,1,537
2695,5,1,295,4,1,1,1,730
2696,5,1,296,8,0,0,1,736
2697,5,1,297,8,1,1,1,1480
2698,5,1,298,8,1,1,1,581
2699,5,1,299,8,0,0,1,1720
2700,5,1,300,4,1,1,1,1240
2701,5,1,301,4,0,0,1,663
2702,5,1,302,4,1,1,1,470
2703,5,1,303,8,1,1,1,1293
2704,5,1,304,4,0,0,1,568
2705,5,1,305,4,0,0,1,674
2706,5,1,306,8,0,0,1,2007
2707,5,1,307,8,0,0,1,1294
2708,5,1,308,8,1,1,1,1216
2709,5,1,309,4,0,0,1,550
2710,5,1,310,8,1,1,1,722
2711,5,1,311,8,1,1,1,2192
2712,5,1,312,4,0,0,1,669
2713,5,1,313,4,1,1,1,532
2714,5,1,314,4,1,1,1,892
2715,5,1,315,4,1,1,1,1039
2716,5,1,316,4,0,0,1,600
2717,5,1,317,8,0,0,1,631
2718,5,1,318,8,1,1,1,835
2719,5,1,319,8,0,0,1,810
2720,5,1,320,8,0,0,1,573
2721,5,1,321,4,1,1,1,529
2722,5,1,322,8,0,0,1,1247
2723,5,1,323,8,1,1,1,1449
2724,5,1,324,8,1,1,1,1243
2725,5,1,325,4,0,0,1,764
2726,5,1,326,8,1,1,1,537
2727,5,1,327,8,1,1,1,706
2728,5,1,328,4,0,0,1,813
2729,5,1,329,8,1,1,1,683
2730,5,1,330,4,0,0,1,1176
2731,5,1,331,8,1,1,1,1141
2732,5,1,332,8,0,0,1,903
2733,5,1,333,8,1,1,1,2505
2734,5,1,334,8,0,0,1,700
2735,5,1,335,8,1,1,1,1062
2736,5,1,336,4,0,0,1,729
2737,5,1,337,8,1,1,1,1280
2738,5,1,338,4,0,0,1,1670
2739,5,1,339,4,0,0,1,663
2740,5,1,340,8,1,1,1,968
2741,5,1,341,8,0,0,1,861
2742,5,1,342,4,1,1,1,619
2743,5,1,343,8,0,0,1,726
2744,5,1,344,4,0,0,1,952
2745,5,1,345,8,1,1,1,782
2746,5,1,346,4,1,1,1,659
2747,5,1,347,8,0,0,1,1172
2748,5,1,348,4,0,0,1,584
2749,5,1,349,8,0,0,1,539
2750,5,1,350,4,1,1,1,811
2751,5,1,351,8,1,1,1,2016
2752,5,1,352,4,1,1,1,922
2753,5,1,353,8,0,0,1,767
2754,5,1,354,8,1,1,1,1550
2755,5,1,355,8,1,1,1,636
2756,5,1,356,4,1,1,1,915
2757,5,1,357,8,1,1,1,543
2758,5,1,358,8,0,0,1,767
2759,5,1,359,4,0,0,1,885
2760,5,1,360,4,0,0,1,1262
2761,5,1,361,4,1,1,1,1227
2762,5,1,362,8,0,0,1,660
2763,5,1,363,4,1,1,1,1261
2764,5,1,364,8,0,0,1,468
2765,5,1,365,4,1,1,1,455
2766,5,1,366,4,1,1,1,538
2767,5,1,367,4,0,0,1,604
2768,5,1,368,8,1,1,0,752
2769,5,1,369,4,1,1,1,535
2770,5,1,370,4,1,1,1,430
2771,5,1,371,4,1,1,1,622
2772,5,1,372,8,1,1,1,523
2773,5,1,373,8,0,0,1,676
2774,5,1,374,4,0,0,1,671
2775,5,1,375,8,1,1,1,679
2776,5,1,376,4,1,1,1,647
2777,5,1,377,4,0,0,1,495
2778,5,1,378,8,0,0,1,689
2779,5,1,379,4,0,0,1,545
2780,5,1,380,8,0,0,1,617
2781,5,1,381,4,1,1,1,776
2782,5,1,382,4,0,0,1,616
2783,5,1,383,8,0,0,1,740
2784,5,1,384,4,0,3,0,656
2785,5,1,385,4,1,1,1,771
2786,5,1,386,4,1,1,1,1186
2787,5,1,387,4,0,0,1,635
2788,5,1,388,8,1,1,1,1913
2789,5,1,389,8,0,0,1,1029
2790,5,1,390,8,1,1,1,1068
2791,5,1,391,8,1,1,1,653
2792,5,1,392,8,0,0,1,2255
2793,5,1,393,8,1,1,1,774
2794,5,1,394,8,0,0,1,1008
2795,5,1,395,4,1,1,1,876
2796,5,1,396,8,0,0,1,569
2797,5,1,397,4,0,0,1,666
2798,5,1,398,4,0,0,1,916
2799,5,1,399,4,0,0,0,551
2800,5,1,400,8,1,1,1,569
2801,5,1,401,8,0,0,1,1128
2802,5,1,402,4,0,0,1,673
2803,5,1,403,8,1,1,1,1008
2804,5,1,404,4,1,1,1,578
2805,5,1,405,4,1,1,1,588
2806,5,1,406,4,1,1,1,825
2807,5,1,407,8,0,0,1,508
2808,5,1,408,4,1,1,1,814
2809,5,1,409,8,0,0,1,689
2810,5,1,410,4,0,0,1,574
2811,5,1,411,8,1,1,1,2026
2812,5,1,412,8,0,0,1,1135
2813,5,1,413,8,1,1,1,765
2814,5,1,414,4,1,1,1,521
2815,5,1,415,8,1,1,1,1513
2816,5,1,416,4,1,1,1,612
2817,5,1,417,4,1,1,1,592
2818,5,1,418,4,0,0,1,1496
2819,5,1,419,4,0,0,1,583
2820,5,1,420,4,0,0,1,698
2821,5,1,421,4,0,0,1,584
2822,5,1,422,8,1,1,1,673
2823,5,1,423,8,1,1,1,793
2824,5,1,424,8,0,0,1,927
2825,5,1,425,4,1,1,1,485
2826,5,1,426,4,1,1,1,573
2827,5,1,427,8,0,0,1,1110
2828,5,1,428,4,1,1,1,564
2829,5,1,429,4,0,0,1,1048
2830,5,1,430,8,1,1,1,1471
2831,5,1,431,4,1,1,1,827
2832,5,1,432,8,1,1,1,1376
2833,5,1,433,8,0,0,1,699
2834,5,1,434,8,1,1,1,772
2835,5,1,435,8,0,0,1,672
2836,5,1,436,4,1,1,1,1168
2837,5,1,437,4,1,1,1,623
2838,5,1,438,4,0,0,1,586
2839,5,1,439,4,0,0,1,557
2840,5,1,440,8,0,0,0,2109
2841,5,1,441,8,0,0,1,1118
2842,5,1,442,8,1,1,1,1036
2843,5,1,443,4,0,0,1,611
2844,5,1,444,4,0,0,1,835
2845,5,1,445,4,0,0,1,557
2846,5,1,446,4,1,1,1,1242
2847,5,1,447,8,0,0,1,1093
2848,5,1,448,4,0,0,1,541
2849,5,1,449,8,1,1,1,1030
2850,5,1,450,4,0,0,1,722
2851,5,1,451,4,0,0,1,617
2852,5,1,452,8,1,1,1,1607
2853,5,1,453,8,0,0,1,1328
2854,5,1,454,4,1,1,1,521
2855,5,1,455,4,0,0,1,1054
2856,5,1,456,8,0,0,1,950
2857,5,1,457,8,0,0,1,810
2858,5,1,458,4,0,0,1,643
2859,5,1,459,4,1,1,1,493
2860,5,1,460,8,1,1,1,732
2861,5,1,461,8,1,1,1,1707
2862,5,1,462,8,0,0,1,1874
2863,5,1,463,8,1,1,1,871
2864,5,1,464,8,1,1,1,960
2865,5,1,465,8,1,1,1,603
2866,5,1,466,4,1,1,1,1151
2867,5,1,467,4,1,1,1,583
2868,5,1,468,4,1,1,1,555
2869,5,1,469,8,1,1,1,657
2870,5,1,470,8,0,0,1,1120
2871,5,1,471,8,1,1,1,874
2872,5,1,472,8,0,0,1,1170
2873,5,1,473,8,0,0,1,1281
2874,5,1,474,4,1,1,1,560
2875,5,1,475,4,0,0,1,511
2876,5,1,476,4,0,0,1,813
2877,5,1,477,8,1,1,1,695
2878,5,1,478,8,0,0,1,645
2879,5,1,479,4,1,1,1,951
2880,5,1,480,8,1,1,1,1121
2881,5,1,481,8,0,0,1,1811
2882,5,1,482,4,0,0,1,691
2883,5,1,483,8,1,1,1,2290
2884,5,1,484,4,0,0,1,657
2885,5,1,485,4,1,1,1,675
2886,5,1,486,8,0,0,1,558
2887,5,1,487,8,0,0,1,972
2888,5,1,488,4,0,0,1,589
2889,5,1,489,4,1,1,1,896
2890,5,1,490,4,0,0,1,608
2891,5,1,491,8,1,1,1,1638
2892,5,1,492,4,0,0,1,674
2893,5,1,493,4,1,1,1,1727
2894,5,1,494,8,1,1,1,871
2895,5,1,495,8,1,1,1,1227
2896,5,1,496,8,1,1,1,1831
2897,5,1,497,8,0,0,1,686
2898,5,1,498,8,0,0,1,795
2899,5,1,499,8,1,1,1,895
2900,5,1,500,4,1,1,1,1025
2901,5,1,501,4,0,0,1,630
2902,5,1,502,4,0,0,1,1534
2903,5,1,503,8,0,0,1,636
2904,5,1,504,8,0,0,1,929
2905,5,1,505,8,1,1,1,559
2906,5,1,506,4,0,0,1,925
2907,5,1,507,4,1,1,1,620
2908,5,1,508,8,1,1,1,1088
2909,5,1,509,4,1,1,1,1050
2910,5,1,510,4,0,0,1,531
2911,5,1,511,4,0,0,1,474
2912,5,1,512,8,1,1,1,472
2913,5,1,513,8,1,1,1,570
2914,5,1,514,4,1,1,1,1051
2915,5,1,515,8,0,0,1,663
2916,5,1,516,4,1,1,1,747
2917,5,1,517,8,0,0,1,1117
2918,5,1,518,4,0,0,1,716
2919,5,1,519,4,0,0,1,656
2920,5,1,520,4,0,0,1,588
2921,5,1,521,4,0,0,1,677
2922,5,1,522,4,1,1,1,876
2923,5,1,523,4,1,1,1,880
2924,5,1,524,4,0,0,1,486
2925,5,1,525,4,0,0,1,835
2926,5,1,526,4,0,0,1,554
2927,5,1,527,8,1,1,1,572
2928,5,1,528,4,0,0,1,483
2929,5,1,529,8,0,0,1,692
2930,5,1,530,8,1,1,1,1356
2931,5,1,531,8,1,1,1,1999
2932,5,1,532,8,1,1,1,723
2933,5,1,533,4,0,0,1,574
2934,5,1,534,4,1,1,1,1399
2935,5,1,535,8,0,0,1,1688
2936,5,1,536,8,0,0,1,1132
2937,5,1,537,4,1,1,1,485
2938,5,1,538,4,0,0,1,602
2939,5,1,539,8,0,0,1,971
2940,5,1,540,8,0,0,1,675
2941,5,1,541,4,0,0,1,717
2942,5,1,542,8,0,0,1,1154
2943,5,1,543,4,1,1,1,756
2944,5,1,544,4,1,1,1,535
2945,5,1,545,4,1,1,1,816
2946,5,1,546,4,1,1,1,456
2947,5,1,547,8,1,1,1,475
2948,5,1,548,8,0,0,1,885
2949,5,1,549,4,0,0,1,1225
2950,5,1,550,8,1,1,1,567
2951,5,1,551,4,0,0,1,546
2952,5,1,552,8,0,0,1,1381
2953,5,1,553,8,1,1,1,1208
2954,5,1,554,8,1,1,0,737
2955,5,1,555,4,0,0,1,541
2956,5,1,556,4,0,0,1,505
2957,5,1,557,4,1,1,1,575
2958,5,1,558,4,0,0,1,1500
2959,5,1,559,4,1,1,1,548
2960,5,1,560,4,1,1,1,721
2961,5,1,561,8,0,0,1,2095
2962,5,1,562,4,1,1,1,810
2963,5,1,563,8,1,1,1,1004
2964,5,1,564,4,1,1,1,530
2965,5,1,565,4,1,1,1,1318
2966,5,1,566,4,1,1,1,533
2967,5,1,567,8,0,0,1,1371
2968,5,1,568,8,1,1,1,979
2969,5,1,569,4,0,0,1,632
2970,5,1,570,4,1,1,1,785
2971,5,1,571,8,1,1,1,819
2972,5,1,572,8,1,1,1,1608
2973,5,1,573,4,0,0,1,510
2974,5,1,574,8,0,0,1,1443
2975,5,1,575,8,1,1,1,606
2976,5,1,576,4,1,1,1,514
2977,5,1,577,8,1,1,1,845
2978,5,1,578,8,0,0,1,513
2979,5,1,579,4,0,0,1,383
2980,5,1,580,4,1,1,1,492
2981,5,1,581,4,0,0,1,706
2982,5,1,582,4,0,0,1,857
2983,5,1,583,8,1,1,1,1660
2984,5,1,584,8,1,1,1,908
2985,5,1,585,4,0,0,1,844
2986,5,1,586,8,0,0,1,922
2987,5,1,587,8,0,0,1,1425
2988,5,1,588,8,1,1,1,1054
2989,5,1,589,8,0,0,1,1701
2990,5,1,590,4,0,0,1,1089
2991,5,1,591,8,0,0,1,519
2992,5,1,592,8,1,1,1,512
2993,5,1,593,4,1,1,1,486
2994,5,1,594,8,0,0,1,1172
2995,5,1,595,8,1,1,1,588
2996,5,1,596,4,1,1,1,535
2997,5,1,597,4,1,1,1,456
2998,5,1,598,8,1,1,1,1492
2999,5,1,599,4,1,1,1,459
3000,5,1,600,8,1,1,1,1002
3001,6,1,1,4,0,3,0,4997
3002,6,1,2,8,0,0,1,1445
3003,6,1,3,8,0,0,1,2586
3004,6,1,4,8,1,1,1,2659
3005,6,1,5,8,1,1,1,1542
3006,6,1,6,8,1,1,1,1669
3007,6,1,7,4,1,1,1,1287
3008,6,1,8,8,1,1,1,1513
3009,6,1,9,8,0,0,1,1301
3010,6,1,10,4,1,1,1,882
3011,6,1,11,8,0,0,1,1546
3012,6,1,12,4,0,0,1,1281
3013,6,1,13,8,0,0,1,1203
3014,6,1,14,4,1,1,1,688
3015,6,1,15,4,1,1,1,720
3016,6,1,16,8,0,0,1,1308
3017,6,1,17,4,0,0,1,1217
3018,6,1,18,8,1,1,1,1146
3019,6,1,19,4,1,1,1,1133
3020,6,1,20,8,1,1,1,3008
3021,6,1,21,4,1,1,1,857
3022,6,1,22,4,1,1,1,724
3023,6,1,23,8,1,1,1,802
3024,6,1,24,4,0,0,1,1275
3025,6,1,25,8,0,0,1,607
3026,6,1,26,4,0,0,1,821
3027,6,1,27,8,0,0,1,1575
3028,6,1,28,8,0,0,1,583
3029,6,1,29,8,0,0,1,1426
3030,6,1,30,4,0,0,1,954
3031,6,1,31,4,0,0,1,573
3032,6,1,32,4,0,0,1,911
3033,6,1,33,8,0,0,1,1119
3034,6,1,34,8,0,0,1,1377
3035,6,1,35,4,0,0,1,1726
3036,6,1,36,8,1,1,1,1160
3037,6,1,37,8,0,0,1,675
3038,6,1,38,4,1,1,1,723
3039,6,1,39,4,1,1,1,1019
3040,6,1,40,4,1,1,1,1628
3041,6,1,41,8,1,1,1,2424
3042,6,1,42,8,1,1,1,1059
3043,6,1,43,8,0,0,1,508
3044,6,1,44,4,1,1,1,1123
3045,6,1,45,8,1,1,1,1128
3046,6,1,46,8,1,1,1,1133
3047,6,1,47,8,0,0,1,830
3048,6,1,48,8,1,1,1,780
3049,6,1,49,4,1,1,1,968
3050,6,1,50,8,0,0,1,589
3051,6,1,51,4,0,0,1,834
3052,6,1,52,4,1,1,1,560
3053,6,1,53,4,1,1,1,787
3054,6,1,54,8,0,0,1,1860
3055,6,1,55,8,0,0,1,1534
3056,6,1,56,8,0,0,1,2638
3057,6,1,57,8,1,1,1,1745
3058,6,1,58,8,1,1,1,759
3059,6,1,59,8,0,0,1,712
3060,6,1,60,4,0,0,1,1820
3061,6,1,61,4,1,1,1,854
3062,6,1,62,8,0,0,1,1099
3063,6,1,63,4,1,1,1,1366
3064,6,1,64,4,0,0,1,549
3065,6,1,65,4,0,0,1,922
3066,6,1,66,8,1,1,1,1080
3067,6,1,67,4,1,1,1,1119
3068,6,1,68,4,1,1,1,1645
3069,6,1,69,4,0,0,1,1516
3070,6,1,70,8,1,1,1,701
3071,6,1,71,4,1,1,1,689
3072,6,1,72,8,1,1,1,562
3073,6,1,73,8,1,1,1,3505
3074,6,1,74,4,1,1,1,1072
3075,6,1,75,4,1,1,1,812
3076,6,1,76,8,1,1,1,1010
3077,6,1,77,8,1,1,1,932
3078,6,1,78,8,0,0,1,873
3079,6,1,79,8,1,1,1,441
3080,6,1,80,4,0,0,1,681
3081,6,1,81,4,1,1,1,1048
3082,6,1,82,8,0,0,1,1130
3083,6,1,83,8,1,1,1,940
3084,6,1,84,8,1,1,1,1558
3085,6,1,85,4,0,0,1,761
3086,6,1,86,4,0,0,1,909
3087,6,1,87,8,1,1,1,1688
3088,6,1,88,8,0,0,1,2133
3089,6,1,89,4,0,0,1,746
3090,6,1,90,8,1,1,1,1479
3091,6,1,91,8,0,0,1,554
3092,6,1,92,8,0,0,1,821
3093,6,1,93,4,0,0,1,704
3094,6,1,94,8,0,0,1,746
3095,6,1,95,4,0,0,1,630
3096,6,1,96,4,1,1,1,747
3097,6,1,97,8,0,0,1,1369
3098,6,1,98,4,1,1,1,805
3099,6,1,99,4,0,0,1,661
3100,6,1,100,4,0,0,1,738
3101,6,1,101,8,0,0,1,552
3102,6,1,102,8,1,1,1,860
3103,6,1,103,8,1,1,1,2024
3104,6,1,104,4,1,1,1,482
3105,6,1,105,8,0,0,1,1202
3106,6,1,106,8,0,0,1,600
3107,6,1,107,4,0,0,1,1352
3108,6,1,108,4,0,0,1,1400
3109,6,1,109,4,0,0,1,510
3110,6,1,110,8,0,0,1,3135
3111,6,1,111,4,0,0,1,839
3112,6,1,112,4,1,1,1,1591
3113,6,1,113,8,0,0,1,1413
3114,6,1,114,4,1,1,1,1630
3115,6,1,115,8,1,1,1,2059
3116,6,1,116,8,0,0,1,701
3117,6,1,117,4,1,1,1,1102
3118,6,1,118,8,0,0,1,883
3119,6,1,119,4,0,0,1,766
3120,6,1,120,4,0,0,1,1545
3121,6,1,121,8,1,1,1,573
3122,6,1,122,4,1,1,1,947
3123,6,1,123,8,1,1,1,1387
3124,6,1,124,8,0,0,1,3906
3125,6,1,125,4,0,0,1,1163
3126,6,1,126,8,1,1,1,3207
3127,6,1,127,8,1,1,1,1117
3128,6,1,128,8,0,0,1,1371
3129,6,1,129,4,0,0,1,817
3130,6,1,130,4,1,1,1,646
3131,6,1,131,8,0,0,1,827
3132,6,1,132,8,1,1,1,2248
3133,6,1,133,8,1,1,1,2922
3134,6,1,134,4,1,1,1,568
3135,6,1,135,4,1,1,1,697
3136,6,1,136,4,0,0,1,1041
3137,6,1,137,4,0,0,1,533
3138,6,1,138,8,0,0,1,733
3139,6,1,139,4,0,0,1,2015
3140,6,1,140,4,1,1,1,419
3141,6,1,141,4,0,0,1,760
3142,6,1,142,8,0,0,1,620
3143,6,1,143,8,0,0,1,935
3144,6,1,144,4,0,0,1,691
3145,6,1,145,8,1,1,1,826
3146,6,1,146,8,1,1,1,662
3147,6,1,147,4,1,1,1,1502
3148,6,1,148,8,0,0,1,1458
3149,6,1,149,8,0,0,1,1948
3150,6,1,150,8,1,1,1,1877
3151,6,1,151,4,1,1,1,955
3152,6,1,152,4,0,0,1,511
3153,6,1,153,8,1,1,1,639
3154,6,1,154,4,0,0,1,953
3155,6,1,155,8,0,0,1,1406
3156,6,1,156,4,0,0,1,832
3157,6,1,157,4,1,1,1,559
3158,6,1,158,8,1,1,1,1385
3159,6,1,159,4,0,0,0,527
3160,6,1,160,8,1,1,1,1960
3161,6,1,161,4,1,1,1,1125
3162,6,1,162,4,0,0,1,491
3163,6,1,163,8,1,1,1,1465
3164,6,1,164,4,0,0,1,527
3165,6,1,165,8,1,1,1,982
3166,6,1,166,4,1,1,1,1053
3167,6,1,167,8,0,0,1,1618
3168,6,1,168,8,0,0,1,1605
3169,6,1,169,4,1,1,1,613
3170,6,1,170,4,1,1,1,1050
3171,6,1,171,4,0,0,1,451
3172,6,1,172,4,1,1,1,1661
3173,6,1,173,8,0,0,1,780
3174,6,1,174,8,1,1,1,1947
3175,6,1,175,8,0,0,1,1885
3176,6,1,176,4,1,1,1,916
3177,6,1,177,8,0,0,1,637
3178,6,1,178,4,1,1,1,928
3179,6,1,179,4,0,0,1,1225
3180,6,1,180,4,0,0,1,655
3181,6,1,181,4,0,0,1,636
3182,6,1,182,4,0,0,1,772
3183,6,1,183,4,1,1,1,666
3184,6,1,184,4,1,1,1,966
3185,6,1,185,8,0,0,1,1471
3186,6,1,186,4,1,1,1,1262
3187,6,1,187,4,1,1,1,988
3188,6,1,188,4,0,0,1,750
3189,6,1,189,4,0,0,1,1769
3190,6,1,190,8,0,0,1,1335
3191,6,1,191,4,1,1,1,2075
3192,6,1,192,8,1,1,1,768
3193,6,1,193,4,0,0,1,1314
3194,6,1,194,4,0,0,1,1458
3195,6,1,195,4,0,0,1,1018
3196,6,1,196,8,1,1,0,1016
3197,6,1,197,8,1,1,1,1270
3198,6,1,198,4,1,1,1,1463
3199,6,1,199,4,1,1,1,651
3200,6,1,200,8,1,1,1,819
3201,6,1,201,4,0,0,1,1039
3202,6,1,202,8,1,1,1,1410
3203,6,1,203,4,1,1,1,569
3204,6,1,204,8,0,0,1,763
3205,6,1,205,8,1,1,1,930
3206,6,1,206,8,0,0,1,761
3207,6,1,207,8,0,0,1,949
3208,6,1,208,8,1,1,1,522
3209,6,1,209,4,1,1,1,814
3210,6,1,210,8,1,1,1,1543
3211,6,1,211,4,1,1,1,1188
3212,6,1,212,8,1,1,1,1872
3213,6,1,213,8,0,0,1,1856
3214,6,1,214,8,1,1,1,963
3215,6,1,215,4,0,0,1,909
3216,6,1,216,8,0,0,1,1208
3217,6,1,217,4,0,0,1,642
3218,6,1,218,8,1,1,1,1085
3219,6,1,219,8,1,1,1,1266
3220,6,1,220,8,1,1,1,887
3221,6,1,221,4,0,0,1,538
3222,6,1,222,8,0,0,1,1042
3223,6,1,223,8,0,0,1,506
3224,6,1,224,8,0,0,1,1276
3225,6,1,225,8,1,1,1,722
3226,6,1,226,4,0,0,1,917
3227,6,1,227,8,1,1,1,1445
3228,6,1,228,8,0,0,1,765
3229,6,1,229,8,1,1,1,1139
3230,6,1,230,8,0,0,1,810
3231,6,1,231,4,1,1,1,803
3232,6,1,232,4,1,1,1,858
3233,6,1,233,8,0,0,1,2447
3234,6,1,234,4,1,1,1,801
3235,6,1,235,8,1,1,1,1232
3236,6,1,236,4,0,0,1,1039
3237,6,1,237,4,1,1,1,952
3238,6,1,238,8,1,1,1,1262
3239,6,1,239,8,1,1,1,1393
3240,6,1,240,8,0,0,1,1206
3241,6,1,241,4,1,1,1,511
3242,6,1,242,8,0,0,1,1517
3243,6,1,243,8,0,0,1,662
3244,6,1,244,8,1,1,1,1181
3245,6,1,245,8,0,0,1,825
3246,6,1,246,4,1,1,1,864
3247,6,1,247,4,0,0,1,539
3248,6,1,248,4,1,1,1,838
3249,6,1,249,8,0,0,1,495
3250,6,1,250,8,0,0,1,574
3251,6,1,251,8,0,0,1,1443
3252,6,1,252,8,0,0,1,848
3253,6,1,253,8,1,1,1,1797
3254,6,1,254,8,1,1,1,935
3255,6,1,255,4,0,0,1,646
3256,6,1,256,8,1,1,1,1007
3257,6,1,257,4,0,0,1,1332
3258,6,1,258,8,0,0,1,892
3259,6,1,259,8,0,0,1,793
3260,6,1,260,8,0,0,1,652
3261,6,1,261,4,1,1,1,503
3262,6,1,262,8,1,1,0,459
3263,6,1,263,4,0,0,1,1092
3264,6,1,264,8,0,0,1,1183
3265,6,1,265,8,1,1,1,1157
3266,6,1,266,4,0,0,1,1072
3267,6,1,267,4,1,1,1,672
3268,6,1,268,8,0,0,1,744
3269,6,1,269,4,1,1,1,994
3270,6,1,270,8,1,1,1,1240
3271,6,1,271,4,1,1,1,1448
3272,6,1,272,8,1,1,1,1454
3273,6,1,273,8,0,0,1,556
3274,6,1,274,4,1,1,1,704
3275,6,1,275,8,1,1,1,872
3276,6,1,276,4,0,0,1,773
3277,6,1,277,4,0,0,1,893
3278,6,1,278,4,0,0,1,980
3279,6,1,279,4,0,0,1,777
3280,6,1,280,8,1,1,1,593
3281,6,1,281,4,1,1,1,1282
3282,6,1,282,4,0,0,1,983
3283,6,1,283,4,1,1,1,995
3284,6,1,284,8,0,0,1,2574
3285,6,1,285,4,0,0,1,770
3286,6,1,286,8,1,1,1,1991
3287,6,1,287,8,0,0,1,1479
3288,6,1,288,8,0,0,1,1891
3289,6,1,289,8,1,1,1,1094
3290,6,1,290,8,0,0,1,517
3291,6,1,291,8,0,0,1,525
3292,6,1,292,4,1,1,1,1029
3293,6,1,293,8,1,1,1,1456
3294,6,1,294,4,1,1,1,1598
3295,6,1,295,4,1,1,1,1108
3296,6,1,296,8,1,1,1,731
3297,6,1,297,8,0,0,1,2227
3298,6,1,298,8,1,1,1,872
3299,6,1,299,4,0,0,1,1082
3300,6,1,300,4,1,1,1,697
3301,6,1,301,4,1,1,1,1085
3302,6,1,302,8,1,1,1,783
3303,6,1,303,8,0,0,1,773
3304,6,1,304,4,1,1,1,1305
3305,6,1,305,8,1,1,1,640
3306,6,1,306,4,0,0,1,921
3307,6,1,307,8,1,1,1,1435
3308,6,1,308,4,1,1,1,853
3309,6,1,309,4,0,0,1,975
3310,6,1,310,4,1,1,1,783
3311,6,1,311,8,1,1,1,627
3312,6,1,312,4,0,0,1,674
3313,6,1,313,4,1,1,1,838
3314,6,1,314,8,0,0,1,803
3315,6,1,315,8,1,1,1,1725
3316,6,1,316,4,1,1,1,509
3317,6,1,317,4,0,0,1,700
3318,6,1,318,8,0,0,1,571
3319,6,1,319,8,0,0,1,1487
3320,6,1,320,4,0,0,1,702
3321,6,1,321,8,1,1,1,874
3322,6,1,322,4,1,1,1,1004
3323,6,1,323,4,0,0,1,623
3324,6,1,324,4,0,0,1,576
3325,6,1,325,4,0,0,1,476
3326,6,1,326,8,0,0,1,651
3327,6,1,327,4,0,0,1,523
3328,6,1,328,4,0,0,1,1061
3329,6,1,329,8,0,0,1,1132
3330,6,1,330,4,0,0,1,558
3331,6,1,331,8,1,1,1,976
3332,6,1,332,8,1,1,1,797
3333,6,1,333,8,0,0,1,1241
3334,6,1,334,4,1,1,1,1118
3335,6,1,335,8,1,1,1,2763
3336,6,1,336,4,1,1,1,612
3337,6,1,337,8,0,0,1,972
3338,6,1,338,4,1,1,1,506
3339,6,1,339,4,0,0,1,771
3340,6,1,340,4,0,0,1,740
3341,6,1,341,4,0,0,1,611
3342,6,1,342,4,1,1,1,829
3343,6,1,343,8,1,1,1,1733
3344,6,1,344,8,0,0,1,1744
3345,6,1,345,8,0,0,1,1497
3346,6,1,346,4,0,0,1,754
3347,6,1,347,4,0,0,1,529
3348,6,1,348,4,1,1,1,590
3349,6,1,349,4,1,1,1,1567
3350,6,1,350,8,0,0,1,611
3351,6,1,351,8,0,0,1,562
3352,6,1,352,4,1,1,1,826
3353,6,1,353,8,1,1,1,831
3354,6,1,354,4,0,0,1,479
3355,6,1,355,8,1,1,1,869
3356,6,1,356,8,0,0,1,1746
3357,6,1,357,4,1,1,1,891
3358,6,1,358,8,0,0,1,1124
3359,6,1,359,4,1,1,1,870
3360,6,1,360,8,1,1,1,957
3361,6,1,361,8,0,0,1,975
3362,6,1,362,4,0,0,1,526
3363,6,1,363,4,1,1,1,439
3364,6,1,364,8,0,0,1,1356
3365,6,1,365,4,0,0,1,452
3366,6,1,366,8,0,0,1,1461
3367,6,1,367,4,1,1,1,465
3368,6,1,368,8,0,0,1,918
3369,6,1,369,4,1,1,1,680
3370,6,1,370,4,0,0,1,498
3371,6,1,371,8,0,0,1,1007
3372,6,1,372,4,1,1,1,570
3373,6,1,373,4,0,0,1,867
3374,6,1,374,4,1,1,1,951
3375,6,1,375,8,1,1,1,834
3376,6,1,376,8,0,0,1,1440
3377,6,1,377,8,0,0,1,511
3378,6,1,378,4,1,1,1,809
3379,6,1,379,4,1,1,1,508
3380,6,1,380,8,1,1,1,519
3381,6,1,381,8,1,1,1,1665
3382,6,1,382,8,1,1,1,961
3383,6,1,383,4,0,0,1,852
3384,6,1,384,4,0,0,1,622
3385,6,1,385,8,1,1,1,672
3386,6,1,386,4,1,1,1,597
3387,6,1,387,4,0,0,1,460
3388,6,1,388,8,0,0,1,1726
3389,6,1,389,8,1,1,1,1442
3390,6,1,390,8,0,0,1,727
3391,6,1,391,4,1,1,1,870
3392,6,1,392,8,0,0,1,1254
3393,6,1,393,4,1,1,1,720
3394,6,1,394,8,1,1,1,1802
3395,6,1,395,4,0,0,1,807
3396,6,1,396,8,1,1,1,1696
3397,6,1,397,4,0,0,1,614
3398,6,1,398,4,0,0,1,1038
3399,6,1,399,4,1,1,1,928
3400,6,1,400,8,1,1,1,764
3401,6,1,401,4,0,0,1,573
3402,6,1,402,4,1,1,1,579
3403,6,1,403,8,0,0,1,680
3404,6,1,404,8,1,1,1,1399
3405,6,1,405,4,1,1,1,684
3406,6,1,406,4,1,1,1,497
3407,6,1,407,4,0,0,1,1018
3408,6,1,408,8,0,0,1,1383
3409,6,1,409,4,0,0,1,768
3410,6,1,410,4,0,0,1,557
3411,6,1,411,4,0,0,1,534
3412,6,1,412,4,0,0,1,565
3413,6,1,413,4,1,1,1,664
3414,6,1,414,4,1,1,1,415
3415,6,1,415,8,0,0,1,1846
3416,6,1,416,8,1,1,1,848
3417,6,1,417,4,1,1,1,1182
3418,6,1,418,8,0,0,1,1378
3419,6,1,419,4,1,1,1,1383
3420,6,1,420,8,1,1,1,1438
3421,6,1,421,4,1,1,1,710
3422,6,1,422,4,0,0,1,847
3423,6,1,423,8,1,1,1,718
3424,6,1,424,4,0,0,1,1040
3425,6,1,425,8,1,1,1,1064
3426,6,1,426,8,1,1,1,929
3427,6,1,427,8,0,0,1,1491
3428,6,1,428,8,1,1,1,873
3429,6,1,429,4,1,1,1,1151
3430,6,1,430,4,1,1,1,668
3431,6,1,431,4,1,1,1,893
3432,6,1,432,8,1,1,1,484
3433,6,1,433,8,1,1,1,682
3434,6,1,434,8,0,0,1,2142
3435,6,1,435,4,1,1,1,638
3436,6,1,436,4,0,0,1,725
3437,6,1,437,4,1,1,1,781
3438,6,1,438,4,0,0,1,860
3439,6,1,439,8,1,1,1,844
3440,6,1,440,8,1,1,1,1113
3441,6,1,441,4,1,1,1,726
3442,6,1,442,8,0,0,1,1947
3443,6,1,443,8,0,0,1,870
3444,6,1,444,4,1,1,1,718
3445,6,1,445,4,0,0,1,739
3446,6,1,446,4,0,0,1,1361
3447,6,1,447,8,1,1,1,539
3448,6,1,448,8,0,0,1,480
3449,6,1,449,8,0,0,1,1404
3450,6,1,450,4,0,0,1,543
3451,6,1,451,4,1,1,1,764
3452,6,1,452,8,1,1,1,1127
3453,6,1,453,8,0,0,1,1023
3454,6,1,454,8,0,0,1,706
3455,6,1,455,4,0,0,1,984
3456,6,1,456,8,0,0,1,847
3457,6,1,457,4,1,1,1,432
3458,6,1,458,4,0,0,1,725
3459,6,1,459,8,1,1,1,1070
3460,6,1,460,8,1,1,1,745
3461,6,1,461,8,1,1,1,1311
3462,6,1,462,8,0,0,1,2902
3463,6,1,463,4,0,0,1,706
3464,6,1,464,8,1,1,1,1965
3465,6,1,465,8,1,1,1,794
3466,6,1,466,8,1,1,1,632
3467,6,1,467,8,0,0,1,992
3468,6,1,468,8,1,1,1,1273
3469,6,1,469,8,0,0,1,2354
3470,6,1,470,8,0,0,1,799
3471,6,1,471,8,1,1,1,606
3472,6,1,472,4,1,1,1,1309
3473,6,1,473,4,1,1,1,862
3474,6,1,474,8,1,1,1,1594
3475,6,1,475,4,0,0,1,664
3476,6,1,476,8,0,0,1,678
3477,6,1,477,8,0,0,1,884
3478,6,1,478,4,0,0,1,586
3479,6,1,479,4,0,0,1,522
3480,6,1,480,8,1,1,1,825
3481,6,1,481,8,1,1,1,809
3482,6,1,482,8,1,1,1,854
3483,6,1,483,4,1,1,1,1617
3484,6,1,484,8,0,0,1,618
3485,6,1,485,4,1,1,1,919
3486,6,1,486,4,1,1,1,679
3487,6,1,487,8,0,0,1,847
3488,6,1,488,4,1,1,1,428
3489,6,1,489,8,1,1,1,1348
3490,6,1,490,4,0,0,1,591
3491,6,1,491,4,1,1,1,449
3492,6,1,492,4,1,1,1,427
3493,6,1,493,4,0,0,1,690
3494,6,1,494,4,0,0,1,1065
3495,6,1,495,8,1,1,1,1500
3496,6,1,496,8,0,0,1,1128
3497,6,1,497,8,0,0,1,1548
3498,6,1,498,4,0,0,1,800
3499,6,1,499,4,0,0,1,1150
3500,6,1,500,8,0,0,1,1148
3501,6,1,501,4,1,1,1,1004
3502,6,1,502,8,1,1,1,1034
3503,6,1,503,4,0,0,1,892
3504,6,1,504,4,0,0,1,660
3505,6,1,505,8,1,1,1,809
3506,6,1,506,4,0,0,1,452
3507,6,1,507,4,0,0,1,1261
3508,6,1,508,4,0,0,1,473
3509,6,1,509,4,0,0,1,799
3510,6,1,510,4,0,0,1,532
3511,6,1,511,4,0,0,1,716
3512,6,1,512,8,1,1,1,1142
3513,6,1,513,8,1,1,1,1759
3514,6,1,514,4,1,1,1,884
3515,6,1,515,8,0,0,1,583
3516,6,1,516,8,1,1,1,497
3517,6,1,517,8,1,1,1,921
3518,6,1,518,4,1,1,1,725
3519,6,1,519,8,0,0,1,844
3520,6,1,520,8,0,0,1,1802
3521,6,1,521,4,0,0,1,1114
3522,6,1,522,4,1,1,0,758
3523,6,1,523,4,0,0,1,1329
3524,6,1,524,8,1,1,1,756
3525,6,1,525,4,1,1,1,495
3526,6,1,526,8,0,0,1,652
3527,6,1,527,4,0,0,1,503
3528,6,1,528,8,0,0,1,619
3529,6,1,529,4,0,0,1,516
3530,6,1,530,4,0,0,1,509
3531,6,1,531,4,1,1,1,520
3532,6,1,532,4,1,1,1,460
3533,6,1,533,8,1,1,1,584
3534,6,1,534,8,1,1,1,1409
3535,6,1,535,4,0,0,1,823
3536,6,1,536,4,0,0,1,837
3537,6,1,537,8,1,1,1,981
3538,6,1,538,4,1,1,1,874
3539,6,1,539,8,0,0,1,811
3540,6,1,540,4,0,0,1,1105
3541,6,1,541,8,0,0,1,1345
3542,6,1,542,4,1,1,1,925
3543,6,1,543,4,0,0,1,784
3544,6,1,544,8,1,1,1,1573
3545,6,1,545,4,0,0,1,422
3546,6,1,546,8,1,1,1,1003
3547,6,1,547,4,0,0,1,494
3548,6,1,548,8,1,1,1,786
3549,6,1,549,8,0,0,1,653
3550,6,1,550,4,0,0,1,1128
3551,6,1,551,4,0,0,1,559
3552,6,1,552,8,1,1,1,737
3553,6,1,553,8,1,1,1,1623
3554,6,1,554,4,1,1,1,845
3555,6,1,555,8,0,0,1,915
3556,6,1,556,4,1,1,1,651
3557,6,1,557,4,1,1,1,1284
3558,6,1,558,8,0,0,1,1446
3559,6,1,559,8,0,0,1,1090
3560,6,1,560,4,1,1,1,640
3561,6,1,561,8,0,0,1,668
3562,6,1,562,8,1,1,1,835
3563,6,1,563,4,1,1,0,983
3564,6,1,564,4,0,0,1,764
3565,6,1,565,8,0,0,1,2053
3566,6,1,566,4,1,1,1,1142
3567,6,1,567,8,0,0,1,1369
3568,6,1,568,4,0,0,1,696
3569,6,1,569,4,1,1,1,566
3570,6,1,570,4,1,1,1,776
3571,6,1,571,8,1,1,1,1309
3572,6,1,572,8,0,0,1,666
3573,6,1,573,4,0,0,1,788
3574,6,1,574,8,0,0,1,1134
3575,6,1,575,8,1,1,1,1502
3576,6,1,576,4,1,1,1,757
3577,6,1,577,8,1,1,1,1869
3578,6,1,578,8,1,1,1,683
3579,6,1,579,4,0,0,1,1007
3580,6,1,580,4,0,0,1,688
3581,6,1,581,8,1,1,1,814
3582,6,1,582,8,1,1,1,1064
3583,6,1,583,4,1,1,1,901
3584,6,1,584,4,1,1,1,993
3585,6,1,585,4,1,1,1,747
3586,6,1,586,4,1,1,1,564
3587,6,1,587,8,1,1,1,544
3588,6,1,588,4,1,1,1,576
3589,6,1,589,4,0,0,1,767
3590,6,1,590,4,1,1,1,708
3591,6,1,591,8,0,0,1,2037
3592,6,1,592,4,0,0,1,1485
3593,6,1,593,4,1,1,1,1096
3594,6,1,594,4,0,0,1,966
3595,6,1,595,8,0,0,1,1079
3596,6,1,596,4,1,1,1,656
3597,6,1,597,4,0,0,1,775
3598,6,1,598,4,1,1,1,1370
3599,6,1,599,8,0,0,1,1177
3600,6,1,600,8,0,0,1,502
3601,7,1,1,4,0,0,1,4051
3602,7,1,2,4,0,3,0,10393
3603,7,1,3,8,0,0,1,2531
3604,7,1,4,4,0,3,0,7095
3605,7,1,5,4,1,3,0,8886
3606,7,1,6,4,1,3,0,7605
3607,7,1,7,8,1,1,1,1124
3608,7,1,8,4,0,0,1,1772
3609,7,1,9,8,1,1,1,859
3610,7,1,10,8,1,1,1,2901
3611,7,1,11,8,1,1,1,1761
3612,7,1,12,8,0,0,1,1450
3613,7,1,13,4,0,0,1,1640
3614,7,1,14,8,1,1,1,842
3615,7,1,15,8,1,1,1,1206
3616,7,1,16,4,0,0,1,747
3617,7,1,17,8,1,1,1,1771
3618,7,1,18,4,1,1,1,655
3619,7,1,19,8,0,0,1,780
3620,7,1,20,8,1,1,1,1475
3621,7,1,21,8,1,1,1,1954
3622,7,1,22,4,0,0,1,931
3623,7,1,23,4,0,0,1,547
3624,7,1,24,8,1,1,1,1695
3625,7,1,25,8,1,1,1,1295
3626,7,1,26,8,0,0,1,2207
3627,7,1,27,4,1,1,1,2183
3628,7,1,28,4,1,1,1,550
3629,7,1,29,4,0,0,1,768
3630,7,1,30,8,1,1,1,1117
3631,7,1,31,4,1,1,1,743
3632,7,1,32,4,0,0,1,1548
3633,7,1,33,8,0,0,1,1223
3634,7,1,34,4,1,1,1,1152
3635,7,1,35,8,0,0,1,1990
3636,7,1,36,8,1,1,1,1603
3637,7,1,37,4,0,0,1,871
3638,7,1,38,4,1,1,1,930
3639,7,1,39,4,0,0,1,1768
3640,7,1,40,8,0,0,1,1667
3641,7,1,41,8,1,1,1,1079
3642,7,1,42,4,1,1,1,735
3643,7,1,43,8,0,0,1,560
3644,7,1,44,4,1,1,1,1359
3645,7,1,45,4,1,1,1,722
3646,7,1,46,4,0,0,1,1857
3647,7,1,47,8,0,0,1,992
3648,7,1,48,8,1,1,1,603
3649,7,1,49,8,1,1,1,845
3650,7,1,50,8,0,3,0,4993
3651,7,1,51,8,0,0,1,2035
3652,7,1,52,4,0,0,1,620
3653,7,1,53,8,0,0,1,1287
3654,7,1,54,8,1,1,1,1203
3655,7,1,55,8,1,1,1,959
3656,7,1,56,8,1,1,1,1575
3657,7,1,57,4,0,0,1,624
3658,7,1,58,4,1,1,1,1136
3659,7,1,59,8,1,1,1,1755
3660,7,1,60,8,1,1,1,872
3661,7,1,61,4,0,0,1,1072
3662,7,1,62,4,1,1,1,1094
3663,7,1,63,4,0,0,1,646
3664,7,1,64,4,0,0,1,989
3665,7,1,65,4,1,1,1,487
3666,7,1,66,8,0,0,1,487
3667,7,1,67,4,1,1,1,551
3668,7,1,68,4,0,0,1,880
3669,7,1,69,8,0,0,1,795
3670,7,1,70,4,1,1,1,997
3671,7,1,71,4,1,1,1,1758
3672,7,1,72,8,0,0,1,1271
3673,7,1,73,4,0,0,1,766
3674,7,1,74,8,0,0,1,1248
3675,7,1,75,8,0,0,1,771
3676,7,1,76,4,0,0,1,1920
3677,7,1,77,4,1,1,1,1183
3678,7,1,78,4,0,0,1,669
3679,7,1,79,4,1,1,1,1023
3680,7,1,80,4,0,0,1,1136
3681,7,1,81,8,1,1,1,1472
3682,7,1,82,4,0,0,1,708
3683,7,1,83,8,0,0,1,2243
3684,7,1,84,4,0,0,1,837
3685,7,1,85,8,0,0,1,1862
3686,7,1,86,8,1,1,1,975
3687,7,1,87,4,0,0,1,886
3688,7,1,88,4,0,0,1,981
3689,7,1,89,8,1,1,1,704
3690,7,1,90,4,0,0,1,761
3691,7,1,91,8,1,1,1,910
3692,7,1,92,8,0,0,1,1602
3693,7,1,93,4,1,1,1,1536
3694,7,1,94,8,0,0,1,1766
3695,7,1,95,4,0,0,1,720
3696,7,1,96,4,0,0,1,485
3697,7,1,97,8,0,0,1,606
3698,7,1,98,4,1,1,1,1475
3699,7,1,99,4,1,1,1,949
3700,7,1,100,8,0,0,1,1162
3701,7,1,101,8,1,1,1,1021
3702,7,1,102,4,1,1,1,1423
3703,7,1,103,8,1,1,1,821
3704,7,1,104,4,1,1,1,526
3705,7,1,105,8,1,1,1,821
3706,7,1,106,8,0,0,1,871
3707,7,1,107,8,1,1,1,2316
3708,7,1,108,4,1,1,1,710
3709,7,1,109,8,1,1,1,582
3710,7,1,110,8,0,0,1,688
3711,7,1,111,4,1,1,1,881
3712,7,1,112,4,1,1,1,1032
3713,7,1,113,8,1,1,1,2011
3714,7,1,114,8,0,0,1,1888
3715,7,1,115,4,0,0,1,681
3716,7,1,116,8,1,1,1,1717
3717,7,1,117,8,0,0,1,1224
3718,7,1,118,4,0,0,1,1242
3719,7,1,119,8,0,0,1,1602
3720,7,1,120,4,0,0,1,863
3721,7,1,121,8,1,1,1,729
3722,7,1,122,4,0,0,1,1061
3723,7,1,123,4,1,1,1,2651
3724,7,1,124,4,1,1,1,815
3725,7,1,125,4,1,1,1,709
3726,7,1,126,8,0,0,1,872
3727,7,1,127,8,1,1,1,893
3728,7,1,128,4,0,0,1,710
3729,7,1,129,8,0,0,1,1202
3730,7,1,130,8,0,0,1,1344
3731,7,1,131,8,1,1,1,1832
3732,7,1,132,8,1,1,1,1449
3733,7,1,133,4,0,0,1,656
3734,7,1,134,8,0,0,1,1148
3735,7,1,135,8,0,0,1,678
3736,7,1,136,4,0,0,1,749
3737,7,1,137,8,0,0,1,3076
3738,7,1,138,4,0,0,1,1001
3739,7,1,139,8,1,1,1,1073
3740,7,1,140,8,1,1,1,2758
3741,7,1,141,4,1,1,1,1165
3742,7,1,142,8,1,1,1,1661
3743,7,1,143,4,0,0,1,1259
3744,7,1,144,8,0,0,1,2091
3745,7,1,145,8,0,0,1,1520
3746,7,1,146,8,0,0,1,955
3747,7,1,147,4,1,1,1,1600
3748,7,1,148,4,0,0,1,1106
3749,7,1,149,8,1,1,1,960
3750,7,1,150,4,1,1,1,1246
3751,7,1,151,4,1,1,1,865
3752,7,1,152,8,1,1,1,1390
3753,7,1,153,4,1,1,1,740
3754,7,1,154,4,0,0,1,756
3755,7,1,155,4,1,1,1,829
3756,7,1,156,8,0,0,1,834
3757,7,1,157,4,0,0,1,932
3758,7,1,158,8,0,0,1,1733
3759,7,1,159,4,1,1,1,830
3760,7,1,160,8,1,1,1,2232
3761,7,1,161,4,1,1,1,1320
3762,7,1,162,4,0,0,1,1485
3763,7,1,163,8,0,0,1,1679
3764,7,1,164,4,0,0,1,723
3765,7,1,165,8,0,0,1,803
3766,7,1,166,4,0,0,1,691
3767,7,1,167,8,0,0,1,1764
3768,7,1,168,8,0,0,1,942
3769,7,1,169,8,1,1,1,796
3770,7,1,170,8,1,1,1,2021
3771,7,1,171,8,0,0,1,1110
3772,7,1,172,4,1,1,1,1554
3773,7,1,173,4,1,1,1,575
3774,7,1,174,8,1,1,1,760
3775,7,1,175,8,1,1,1,941
3776,7,1,176,8,0,0,1,1067
3777,7,1,177,8,1,1,1,943
3778,7,1,178,8,1,1,1,1036
3779,7,1,179,4,0,0,1,1041
3780,7,1,180,8,0,0,1,1487
3781,7,1,181,4,0,0,1,867
3782,7,1,182,8,1,1,1,1199
3783,7,1,183,4,0,0,1,950
3784,7,1,184,8,0,0,1,764
3785,7,1,185,8,0,0,1,2555
3786,7,1,186,4,0,0,1,560
3787,7,1,187,8,0,0,1,1424
3788,7,1,188,4,0,0,1,1580
3789,7,1,189,8,1,1,1,1574
3790,7,1,190,4,1,1,1,612
3791,7,1,191,8,1,1,1,527
3792,7,1,192,8,0,0,1,553
3793,7,1,193,8,1,1,1,2152
3794,7,1,194,4,0,0,1,1701
3795,7,1,195,4,1,1,1,1439
3796,7,1,196,8,0,0,1,1426
3797,7,1,197,8,1,1,1,2238
3798,7,1,198,8,1,3,0,4995
3799,7,1,199,4,0,0,1,780
3800,7,1,200,8,0,0,1,1022
3801,7,1,201,4,1,1,1,540
3802,7,1,202,8,1,1,1,1342
3803,7,1,203,4,1,1,1,659
3804,7,1,204,8,1,1,1,1247
3805,7,1,205,4,1,1,1,473
3806,7,1,206,4,1,1,1,877
3807,7,1,207,8,0,0,1,985
3808,7,1,208,8,0,0,1,1209
3809,7,1,209,4,0,0,1,1572
3810,7,1,210,8,0,0,1,1158
3811,7,1,211,4,0,0,1,1103
3812,7,1,212,8,1,1,1,761
3813,7,1,213,8,1,1,1,1294
3814,7,1,214,8,1,1,1,1115
3815,7,1,215,8,1,1,1,1424
3816,7,1,216,4,0,0,1,522
3817,7,1,217,8,0,0,1,705
3818,7,1,218,4,0,0,1,1267
3819,7,1,219,4,0,0,1,1024
3820,7,1,220,8,1,1,1,1669
3821,7,1,221,8,1,1,1,1916
3822,7,1,222,8,1,1,1,894
3823,7,1,223,8,1,1,1,3252
3824,7,1,224,4,0,0,1,658
3825,7,1,225,4,0,0,1,668
3826,7,1,226,4,1,1,1,916
3827,7,1,227,4,1,1,1,1280
3828,7,1,228,8,0,0,1,1095
3829,7,1,229,4,0,0,1,1478
3830,7,1,230,4,0,0,1,645
3831,7,1,231,4,1,1,1,821
3832,7,1,232,4,1,1,1,509
3833,7,1,233,8,1,1,1,1395
3834,7,1,234,8,1,1,1,967
3835,7,1,235,8,0,0,1,1315
3836,7,1,236,8,0,0,1,1062
3837,7,1,237,4,1,1,1,1132
3838,7,1,238,8,1,1,1,955
3839,7,1,239,4,0,0,1,1123
3840,7,1,240,4,1,1,1,2112
3841,7,1,241,4,0,0,1,580
3842,7,1,242,4,1,1,1,1190
3843,7,1,243,4,0,0,1,1190
3844,7,1,244,4,1,1,1,947
3845,7,1,245,8,1,1,1,578
3846,7,1,246,8,1,1,1,816
3847,7,1,247,8,0,0,1,1869
3848,7,1,248,4,1,1,1,1175
3849,7,1,249,4,1,1,1,759
3850,7,1,250,8,1,1,1,895
3851,7,1,251,8,0,0,1,2203
3852,7,1,252,8,0,0,1,484
3853,7,1,253,8,1,1,1,1443
3854,7,1,254,8,0,0,1,610
3855,7,1,255,4,0,0,1,1494
3856,7,1,256,8,0,0,1,3519
3857,7,1,257,8,0,0,1,1642
3858,7,1,258,8,1,1,1,1238
3859,7,1,259,4,0,0,1,2124
3860,7,1,260,4,1,1,1,1131
3861,7,1,261,8,1,1,1,1415
3862,7,1,262,8,0,0,1,1653
3863,7,1,263,8,1,1,1,490
3864,7,1,264,4,0,0,1,1396
3865,7,1,265,4,0,0,1,517
3866,7,1,266,4,1,1,1,676
3867,7,1,267,4,1,1,1,612
3868,7,1,268,4,0,0,1,924
3869,7,1,269,4,0,0,1,3099
3870,7,1,270,4,1,1,1,805
3871,7,1,271,4,1,1,1,887
3872,7,1,272,8,1,1,1,3515
3873,7,1,273,8,0,0,1,640
3874,7,1,274,8,0,0,1,897
3875,7,1,275,8,1,1,1,1936
3876,7,1,276,4,1,1,1,2518
3877,7,1,277,4,0,0,1,1025
3878,7,1,278,8,1,1,1,1444
3879,7,1,279,4,1,1,1,1116
3880,7,1,280,4,0,0,1,1907
3881,7,1,281,4,0,0,1,904
3882,7,1,282,4,1,1,1,1512
3883,7,1,283,8,1,1,1,657
3884,7,1,284,8,1,1,1,1982
3885,7,1,285,4,1,1,1,1511
3886,7,1,286,4,1,1,1,596
3887,7,1,287,4,0,0,1,1457
3888,7,1,288,8,0,0,1,1630
3889,7,1,289,8,1,1,1,1786
3890,7,1,290,8,1,1,1,531
3891,7,1,291,4,1,1,1,1626
3892,7,1,292,4,1,1,1,2465
3893,7,1,293,4,0,0,1,1164
3894,7,1,294,8,0,0,1,1176
3895,7,1,295,4,1,1,1,852
3896,7,1,296,4,1,1,1,581
3897,7,1,297,4,0,0,1,1199
3898,7,1,298,8,0,0,1,783
3899,7,1,299,4,1,1,1,567
3900,7,1,300,8,1,1,1,815
3901,7,1,301,8,1,1,1,923
3902,7,1,302,8,1,1,1,922
3903,7,1,303,8,1,1,1,666
3904,7,1,304,8,0,0,1,439
3905,7,1,305,4,0,0,1,1224
3906,7,1,306,4,1,1,1,2735
3907,7,1,307,8,1,1,1,495
3908,7,1,308,4,1,1,1,817
3909,7,1,309,4,0,3,0,4989
3910,7,1,310,4,1,1,1,973
3911,7,1,311,4,0,0,1,1523
3912,7,1,312,8,1,1,1,1208
3913,7,1,313,4,0,0,1,1111
3914,7,1,314,8,1,1,1,1607
3915,7,1,315,8,1,1,1,3374
3916,7,1,316,4,1,3,0,4994
3917,7,1,317,4,0,0,1,975
3918,7,1,318,4,0,0,1,1099
3919,7,1,319,8,0,3,0,4995
3920,7,1,320,8,1,1,1,1371
3921,7,1,321,8,1,1,1,1149
3922,7,1,322,8,1,3,0,4994
3923,7,1,323,4,0,0,1,585
3924,7,1,324,8,0,0,1,1304
3925,7,1,325,4,1,1,1,524
3926,7,1,326,4,1,1,1,1416
3927,7,1,327,8,1,1,1,3153
3928,7,1,328,8,1,1,1,1094
3929,7,1,329,8,0,3,0,4999
3930,7,1,330,8,0,0,1,1475
3931,7,1,331,8,1,3,0,4996
3932,7,1,332,8,0,0,1,1393
3933,7,1,333,8,0,0,1,1512
3934,7,1,334,4,0,3,0,4994
3935,7,1,335,4,0,3,0,4993
3936,7,1,336,8,0,0,1,1243
3937,7,1,337,4,0,3,0,4995
3938,7,1,338,4,0,3,0,4995
3939,7,1,339,8,1,1,1,1053
3940,7,1,340,4,0,0,1,703
3941,7,1,341,8,1,3,0,4997
3942,7,1,342,4,1,1,1,1366
3943,7,1,343,4,1,3,0,4993
3944,7,1,344,8,1,1,0,3162
3945,7,1,345,8,0,0,1,836
3946,7,1,346,4,0,0,1,1958
3947,7,1,347,8,1,1,1,682
3948,7,1,348,4,0,3,0,4993
3949,7,1,349,4,1,1,1,1055
3950,7,1,350,4,0,3,0,4996
3951,7,1,351,4,0,0,1,1595
3952,7,1,352,4,1,3,0,4998
3953,7,1,353,8,1,1,1,1772
3954,7,1,354,4,0,3,0,4996
3955,7,1,355,8,0,0,1,1553
3956,7,1,356,8,0,3,0,4995
3957,7,1,357,8,0,3,0,4995
3958,7,1,358,4,1,3,0,4995
3959,7,1,359,4,1,3,0,4997
3960,7,1,360,4,1,1,1,1554
3961,7,1,361,4,1,1,1,1186
3962,7,1,362,4,0,0,1,1794
3963,7,1,363,4,1,1,1,2036
3964,7,1,364,4,0,0,1,530
3965,7,1,365,4,1,1,1,1246
3966,7,1,366,8,1,1,1,1629
3967,7,1,367,8,0,0,1,2558
3968,7,1,368,4,0,0,1,3634
3969,7,1,369,8,1,3,0,4998
3970,7,1,370,4,0,0,1,852
3971,7,1,371,8,0,0,1,1353
3972,7,1,372,4,0,0,1,970
3973,7,1,373,8,1,1,1,1106
3974,7,1,374,4,0,0,1,2417
3975,7,1,375,8,0,0,1,1301
3976,7,1,376,8,1,1,1,1320
3977,7,1,377,8,0,0,1,2741
3978,7,1,378,8,0,0,1,1015
3979,7,1,379,4,1,3,0,4993
3980,7,1,380,4,0,0,1,1080
3981,7,1,381,8,0,0,1,1351
3982,7,1,382,4,0,0,1,601
3983,7,1,383,8,1,1,1,3645
3984,7,1,384,8,1,3,0,4998
3985,7,1,385,4,1,3,0,4996
3986,7,1,386,8,1,1,1,1255
3987,7,1,387,4,0,0,1,627
3988,7,1,388,8,0,0,1,922
3989,7,1,389,8,1,1,1,886
3990,7,1,390,8,0,0,1,1183
3991,7,1,391,8,0,0,1,1219
3992,7,1,392,4,1,1,1,817
3993,7,1,393,8,0,0,1,749
3994,7,1,394,4,1,1,1,931
3995,7,1,395,4,0,0,1,759
3996,7,1,396,4,1,1,1,682
