trial_id,Subject,block_n,Trial,set_size,correctResponse,condition,keyResponse,acc,RT
1,1,1,1,5,0,4 distractors,0,1,2149
2,1,1,2,5,1,4 distractors,1,1,1160
3,1,1,3,21,1,4 distractors,1,1,1907
4,1,1,4,17,1,8 distractors,1,1,1333
5,1,1,5,17,1,8 distractors,1,1,1233
6,1,1,6,37,1,8 distractors,1,1,1024
7,1,1,7,33,0,4 distractors,0,1,1027
8,1,1,8,21,0,4 distractors,0,1,1257
9,1,1,9,33,0,4 distractors,0,1,1063
10,1,1,10,13,0,8 distractors,0,1,2237
11,1,1,11,13,0,8 distractors,0,1,1243
12,1,1,12,37,0,8 distractors,0,1,2686
13,1,1,13,37,1,8 distractors,1,1,2957
14,1,1,14,37,0,8 distractors,0,1,827
15,1,1,15,25,0,8 distractors,0,1,1622
16,1,1,16,33,0,4 distractors,0,1,1153
17,1,1,17,9,1,8 distractors,1,1,3309
18,1,1,18,9,0,4 distractors,0,1,1131
19,1,1,19,9,1,4 distractors,1,1,701
20,1,1,20,9,0,8 distractors,0,1,1555
21,1,1,21,5,1,4 distractors,1,1,1257
22,1,1,22,13,0,8 distractors,0,0,1764
23,1,1,23,17,1,8 distractors,1,1,734
24,1,1,24,9,0,4 distractors,0,1,794
25,1,1,25,9,0,4 distractors,0,1,937
26,1,1,26,9,1,4 distractors,1,1,769
27,1,1,27,21,1,4 distractors,1,1,512
28,1,1,28,9,1,8 distractors,1,1,1332
29,1,1,29,9,0,4 distractors,0,1,873
30,1,1,30,5,1,4 distractors,1,1,476
31,1,1,31,13,1,4 distractors,1,1,1161
32,1,1,32,21,1,4 distractors,1,1,1218
33,1,1,33,9,0,4 distractors,0,1,1225
34,1,1,34,9,1,8 distractors,1,1,2043
35,1,1,35,5,0,4 distractors,0,1,1003
36,1,1,36,9,0,4 distractors,0,1,1103
37,1,1,37,9,1,8 distractors,1,1,921
38,1,1,38,25,1,8 distractors,1,1,1156
39,1,1,39,25,1,8 distractors,1,1,1837
40,1,1,40,25,0,8 distractors,0,1,1129
41,1,1,41,33,1,4 distractors,1,1,793
42,1,1,42,21,1,4 distractors,1,1,651
43,1,1,43,13,0,4 distractors,0,1,1888
44,1,1,44,33,0,4 distractors,0,1,1013
45,1,1,45,9,0,4 distractors,0,1,893
46,1,1,46,17,1,8 distractors,1,1,1941
47,1,1,47,13,1,4 distractors,1,1,1380
48,1,1,48,13,0,8 distractors,0,1,1934
49,1,1,49,21,1,4 distractors,1,1,1107
50,1,1,50,21,1,4 distractors,1,1,1464
51,1,1,51,9,1,4 distractors,1,1,889
52,1,1,52,9,1,4 distractors,1,1,1556
53,1,1,53,37,1,8 distractors,1,1,1008
54,1,1,54,25,1,8 distractors,1,1,1059
55,1,1,55,13,1,8 distractors,1,1,1056
56,1,1,56,17,1,8 distractors,1,1,1066
57,1,1,57,5,1,4 distractors,1,1,985
58,1,1,58,17,1,8 distractors,1,1,836
59,1,1,59,33,1,4 distractors,1,1,1156
60,1,1,60,21,1,4 distractors,1,1,799
61,1,1,61,25,0,8 distractors,0,1,2583
62,1,1,62,5,0,4 distractors,0,1,939
63,1,1,63,21,0,4 distractors,0,1,1297
64,1,1,64,13,0,4 distractors,0,1,1059
65,1,1,65,13,0,4 distractors,0,1,1084
66,1,1,66,33,0,4 distractors,0,1,1430
67,1,1,67,37,0,8 distractors,0,1,1002
68,1,1,68,5,0,4 distractors,0,1,672
69,1,1,69,9,1,4 distractors,1,1,725
70,1,1,70,37,1,8 distractors,1,1,2416
71,1,1,71,17,0,8 distractors,0,1,1128
72,1,1,72,25,1,8 distractors,1,1,1984
73,1,1,73,33,1,4 distractors,1,1,1011
74,1,1,74,5,0,4 distractors,0,1,1014
75,1,1,75,21,1,4 distractors,1,1,1048
76,1,1,76,5,1,4 distractors,1,1,665
77,1,1,77,13,1,8 distractors,1,1,1851
78,1,1,78,13,1,8 distractors,1,1,1329
79,1,1,79,9,0,8 distractors,0,1,802
80,1,1,80,5,0,4 distractors,0,1,603
81,1,1,81,37,1,8 distractors,1,1,1738
82,1,1,82,13,1,4 distractors,1,1,938
83,1,1,83,13,0,8 distractors,0,1,1059
84,1,1,84,9,0,8 distractors,0,1,1881
85,1,1,85,25,0,8 distractors,0,1,1590
86,1,1,86,13,0,8 distractors,0,1,1075
87,1,1,87,25,0,8 distractors,0,1,1024
88,1,1,88,5,0,4 distractors,0,1,1024
89,1,1,89,33,1,4 distractors,1,1,843
90,1,1,90,9,0,4 distractors,0,1,797
91,1,1,91,5,1,4 distractors,1,1,817
92,1,1,92,25,1,8 distractors,1,1,1372
93,1,1,93,25,1,8 distractors,1,1,838
94,1,1,94,13,0,8 distractors,0,1,2118
95,1,1,95,9,0,8 distractors,0,1,2190
96,1,1,96,9,0,4 distractors,0,1,906
97,1,1,97,21,1,4 distractors,1,1,606
98,1,1,98,9,0,4 distractors,0,1,605
99,1,1,99,37,0,8 distractors,0,1,2106
100,1,1,100,17,0,8 distractors,0,1,701
101,1,1,101,25,1,8 distractors,1,1,734
102,1,1,102,13,0,8 distractors,0,1,875
103,1,1,103,17,1,8 distractors,1,1,1271
104,1,1,104,37,1,8 distractors,1,1,1159
105,1,1,105,9,0,4 distractors,0,1,568
106,1,1,106,25,0,8 distractors,0,1,2123
107,1,1,107,13,1,8 distractors,1,1,501
108,1,1,108,33,1,4 distractors,1,1,1547
109,1,1,109,5,0,4 distractors,0,1,820
110,1,1,110,37,1,8 distractors,1,1,1041
111,1,1,111,9,1,8 distractors,1,1,876
112,1,1,112,17,1,8 distractors,1,1,1387
113,1,1,113,5,1,4 distractors,1,1,556
114,1,1,114,21,1,4 distractors,1,1,726
115,1,1,115,17,0,8 distractors,0,1,1632
116,1,1,116,13,1,4 distractors,1,1,737
117,1,1,117,17,0,8 distractors,0,1,1143
118,1,1,118,9,0,8 distractors,0,1,1406
119,1,1,119,33,0,4 distractors,0,1,893
120,1,1,120,33,1,4 distractors,1,1,863
121,1,1,121,33,1,4 distractors,1,1,885
122,1,1,122,13,1,8 distractors,1,1,951
123,1,1,123,9,1,8 distractors,1,1,2487
124,1,1,124,5,1,4 distractors,1,1,1178
125,1,1,125,25,1,8 distractors,1,1,1078
126,1,1,126,25,1,8 distractors,1,1,1864
127,1,1,127,21,1,4 distractors,1,1,1176
128,1,1,128,9,1,4 distractors,1,1,816
129,1,1,129,9,1,8 distractors,1,1,1076
130,1,1,130,17,1,8 distractors,1,1,821
131,1,1,131,37,1,8 distractors,1,1,563
132,1,1,132,21,0,4 distractors,0,1,1041
133,1,1,133,13,1,4 distractors,1,1,510
134,1,1,134,25,1,8 distractors,1,1,1037
135,1,1,135,37,1,8 distractors,1,1,992
136,1,1,136,33,0,4 distractors,0,1,1118
137,1,1,137,5,0,4 distractors,0,1,862
138,1,1,138,5,0,4 distractors,0,1,666
139,1,1,139,13,1,4 distractors,1,1,748
140,1,1,140,9,1,8 distractors,1,1,546
141,1,1,141,13,1,4 distractors,1,1,988
142,1,1,142,13,0,8 distractors,0,1,980
143,1,1,143,17,1,8 distractors,1,1,1450
144,1,1,144,25,1,8 distractors,1,1,641
145,1,1,145,33,1,4 distractors,1,1,1287
146,1,1,146,5,1,4 distractors,1,1,772
147,1,1,147,33,1,4 distractors,1,1,909
148,1,1,148,13,0,8 distractors,0,1,1745
149,1,1,149,13,0,8 distractors,0,1,648
150,1,1,150,13,0,8 distractors,0,1,612
151,1,1,151,9,0,4 distractors,0,1,1030
152,1,1,152,25,1,8 distractors,1,1,857
153,1,1,153,13,0,4 distractors,0,1,656
154,1,1,154,17,0,8 distractors,0,0,887
155,1,1,155,37,1,8 distractors,1,1,1379
156,1,1,156,13,1,4 distractors,1,1,580
157,1,1,157,9,0,4 distractors,0,1,1534
158,1,1,158,37,1,8 distractors,1,1,2235
159,1,1,159,9,1,8 distractors,1,1,805
160,1,1,160,33,0,4 distractors,0,1,1078
161,1,1,161,25,0,8 distractors,0,1,870
162,1,1,162,25,0,8 distractors,0,1,924
163,1,1,163,5,0,4 distractors,0,0,603
164,1,1,164,5,0,4 distractors,0,1,758
165,1,1,165,9,0,8 distractors,0,1,879
166,1,1,166,13,1,4 distractors,1,1,987
167,1,1,167,21,1,4 distractors,1,1,682
168,1,1,168,5,1,4 distractors,1,1,816
169,1,1,169,9,0,8 distractors,0,1,1003
170,1,1,170,25,1,8 distractors,1,1,911
171,1,1,171,13,0,8 distractors,0,1,1147
172,1,1,172,21,0,4 distractors,0,1,831
173,1,1,173,9,1,4 distractors,1,1,715
174,1,1,174,37,0,8 distractors,0,1,816
175,1,1,175,5,1,4 distractors,1,1,591
176,1,1,176,17,1,8 distractors,1,1,1163
177,1,1,177,25,0,8 distractors,0,1,638
178,1,1,178,5,0,4 distractors,0,1,896
179,1,1,179,13,1,4 distractors,1,1,823
180,1,1,180,25,0,8 distractors,0,1,1008
181,1,1,181,13,0,8 distractors,0,1,647
182,1,1,182,21,1,4 distractors,1,1,753
183,1,1,183,21,0,4 distractors,0,1,1193
184,1,1,184,37,1,8 distractors,1,1,1059
185,1,1,185,37,1,8 distractors,1,1,689
186,1,1,186,13,0,4 distractors,0,1,994
187,1,1,187,33,0,4 distractors,0,1,900
188,1,1,188,21,0,4 distractors,0,1,854
189,1,1,189,33,0,4 distractors,0,1,585
190,1,1,190,9,0,4 distractors,0,1,455
191,1,1,191,13,1,8 distractors,1,1,849
192,1,1,192,33,1,4 distractors,1,1,751
193,1,1,193,13,1,8 distractors,1,1,1373
194,1,1,194,33,0,4 distractors,0,1,874
195,1,1,195,9,0,8 distractors,0,1,1058
196,1,1,196,9,1,8 distractors,1,1,613
197,1,1,197,13,1,8 distractors,1,1,1861
198,1,1,198,17,0,8 distractors,0,1,2511
199,1,1,199,21,0,4 distractors,0,1,837
200,1,1,200,25,1,8 distractors,1,1,1185
201,1,1,201,25,0,8 distractors,0,1,1625
202,1,1,202,9,0,8 distractors,0,1,1414
203,1,1,203,9,0,8 distractors,0,1,1188
204,1,1,204,9,0,8 distractors,0,1,776
205,1,1,205,17,0,8 distractors,0,1,901
206,1,1,206,9,0,8 distractors,0,1,1510
207,1,1,207,33,1,4 distractors,1,1,589
208,1,1,208,9,1,4 distractors,1,1,768
209,1,1,209,9,1,4 distractors,1,1,1029
210,1,1,210,9,0,4 distractors,0,1,562
211,1,1,211,13,0,8 distractors,0,1,846
212,1,1,212,13,0,4 distractors,0,1,1369
213,1,1,213,37,0,8 distractors,0,1,652
214,1,1,214,37,0,8 distractors,0,1,1030
215,1,1,215,21,0,4 distractors,0,1,1125
216,1,1,216,21,0,4 distractors,0,1,961
217,1,1,217,37,0,8 distractors,0,1,903
218,1,1,218,33,1,4 distractors,1,1,1460
219,1,1,219,9,0,4 distractors,0,1,1293
220,1,1,220,9,1,4 distractors,1,1,1180
221,1,1,221,33,0,4 distractors,0,1,1337
222,1,1,222,21,0,4 distractors,0,1,609
223,1,1,223,5,1,4 distractors,1,1,585
224,1,1,224,13,1,8 distractors,1,1,652
225,1,1,225,5,1,4 distractors,1,1,601
226,1,1,226,9,0,8 distractors,0,1,542
227,1,1,227,25,0,8 distractors,0,1,1205
228,1,1,228,13,0,4 distractors,0,1,782
229,1,1,229,13,1,8 distractors,1,1,863
230,1,1,230,13,1,4 distractors,1,1,541
231,1,1,231,37,1,8 distractors,1,1,673
232,1,1,232,17,1,8 distractors,1,1,1991
233,1,1,233,9,0,4 distractors,0,1,634
234,1,1,234,21,1,4 distractors,1,1,746
235,1,1,235,33,0,4 distractors,0,1,742
236,1,1,236,37,1,8 distractors,1,1,1568
237,1,1,237,5,1,4 distractors,1,1,604
238,1,1,238,21,1,4 distractors,1,1,1143
239,1,1,239,21,1,4 distractors,1,1,607
240,1,1,240,9,0,8 distractors,0,1,790
241,1,1,241,17,1,8 distractors,1,1,681
242,1,1,242,21,1,4 distractors,1,1,632
243,1,1,243,13,1,8 distractors,1,1,1298
244,1,1,244,37,0,8 distractors,0,1,1350
245,1,1,245,17,1,8 distractors,1,1,738
246,1,1,246,9,1,4 distractors,1,1,1110
247,1,1,247,13,0,8 distractors,0,1,1870
248,1,1,248,37,0,8 distractors,0,1,1028
249,1,1,249,5,0,4 distractors,0,1,834
250,1,1,250,25,1,8 distractors,1,1,1046
251,1,1,251,37,0,8 distractors,0,1,1478
252,1,1,252,5,1,4 distractors,1,1,1004
253,1,1,253,25,0,8 distractors,0,1,1595
254,1,1,254,13,1,4 distractors,1,1,1152
255,1,1,255,25,0,8 distractors,0,1,1537
256,1,1,256,33,1,4 distractors,1,1,1234
257,1,1,257,13,1,4 distractors,1,1,1222
258,1,1,258,17,0,8 distractors,0,1,764
259,1,1,259,9,0,8 distractors,0,1,1868
260,1,1,260,13,1,8 distractors,1,1,839
261,1,1,261,9,0,8 distractors,0,1,1006
262,1,1,262,5,1,4 distractors,1,1,964
263,1,1,263,9,1,8 distractors,1,1,1016
264,1,1,264,5,0,4 distractors,0,1,1138
265,1,1,265,9,1,8 distractors,1,1,759
266,1,1,266,13,0,8 distractors,0,1,1094
267,1,1,267,33,1,4 distractors,1,1,593
268,1,1,268,25,1,8 distractors,1,1,1033
269,1,1,269,25,0,8 distractors,0,1,1479
270,1,1,270,9,1,4 distractors,1,1,549
271,1,1,271,33,1,4 distractors,1,1,569
272,1,1,272,17,1,8 distractors,1,1,907
273,1,1,273,5,0,4 distractors,0,1,668
274,1,1,274,9,1,8 distractors,1,1,1145
275,1,1,275,17,0,8 distractors,0,1,1253
276,1,1,276,17,1,8 distractors,1,1,1710
277,1,1,277,33,0,4 distractors,0,1,616
278,1,1,278,13,0,4 distractors,0,1,1276
279,1,1,279,17,0,8 distractors,0,1,1334
280,1,1,280,25,0,8 distractors,0,1,761
281,1,1,281,21,1,4 distractors,1,1,622
282,1,1,282,9,0,4 distractors,0,1,734
283,1,1,283,25,0,8 distractors,0,1,2778
284,1,1,284,9,0,8 distractors,0,1,915
285,1,1,285,9,0,8 distractors,0,1,1458
286,1,1,286,37,1,8 distractors,1,1,1153
287,1,1,287,17,1,8 distractors,1,1,2103
288,1,1,288,13,1,4 distractors,1,1,922
289,1,1,289,25,0,8 distractors,0,1,1029
290,1,1,290,5,0,4 distractors,0,1,878
291,1,1,291,17,1,8 distractors,1,1,560
292,1,1,292,9,0,8 distractors,0,1,764
293,1,1,293,37,1,8 distractors,1,1,1312
294,1,1,294,9,1,4 distractors,1,1,875
295,1,1,295,37,1,8 distractors,1,1,1057
296,1,1,296,9,1,8 distractors,1,1,2410
297,1,1,297,9,0,4 distractors,0,1,1443
298,1,1,298,21,0,4 distractors,0,1,1044
299,1,1,299,9,1,4 distractors,1,1,1028
300,1,1,300,17,0,8 distractors,0,1,1265
301,1,1,301,5,0,4 distractors,0,1,1238
302,1,1,302,17,1,8 distractors,1,1,1111
303,1,1,303,13,0,4 distractors,0,1,886
304,1,1,304,13,1,4 distractors,1,1,819
305,1,1,305,17,0,8 distractors,0,1,755
306,1,1,306,9,0,4 distractors,0,1,736
307,1,1,307,17,0,8 distractors,0,1,716
308,1,1,308,25,0,8 distractors,0,1,1563
309,1,1,309,13,1,4 distractors,1,1,758
310,1,1,310,33,0,4 distractors,0,1,687
311,1,1,311,37,0,8 distractors,0,1,1132
312,1,1,312,33,0,4 distractors,0,1,679
313,1,1,313,37,0,8 distractors,0,1,1161
314,1,1,314,33,1,4 distractors,1,1,691
315,1,1,315,37,1,8 distractors,1,1,1155
316,1,1,316,21,1,4 distractors,1,1,814
317,1,1,317,25,0,8 distractors,0,1,2393
318,1,1,318,9,1,4 distractors,1,1,1092
319,1,1,319,37,0,8 distractors,0,1,1523
320,1,1,320,33,1,4 distractors,1,1,1376
321,1,1,321,25,0,8 distractors,0,1,1012
322,1,1,322,13,0,8 distractors,0,1,1134
323,1,1,323,17,0,8 distractors,0,1,1256
324,1,1,324,21,0,4 distractors,0,1,977
325,1,1,325,17,1,8 distractors,1,1,655
326,1,1,326,37,0,8 distractors,0,1,675
327,1,1,327,13,1,8 distractors,1,1,891
328,1,1,328,17,1,8 distractors,1,1,976
329,1,1,329,9,0,8 distractors,0,1,883
330,1,1,330,5,1,4 distractors,1,1,825
331,1,1,331,21,0,4 distractors,0,1,640
332,1,1,332,13,1,4 distractors,1,1,396
333,1,1,333,5,1,4 distractors,1,1,900
334,1,1,334,9,0,4 distractors,0,1,487
335,1,1,335,21,0,4 distractors,0,0,623
336,1,1,336,37,0,8 distractors,0,1,1248
337,1,1,337,37,1,8 distractors,1,1,1364
338,1,1,338,13,0,4 distractors,0,1,844
339,1,1,339,13,1,4 distractors,1,1,696
340,1,1,340,5,0,4 distractors,0,1,677
341,1,1,341,33,0,4 distractors,0,1,833
342,1,1,342,13,1,4 distractors,1,1,868
343,1,1,343,17,0,8 distractors,0,1,1583
344,1,1,344,17,0,8 distractors,0,1,611
345,1,1,345,13,0,4 distractors,0,1,766
346,1,1,346,25,1,8 distractors,1,1,1830
347,1,1,347,5,0,4 distractors,0,1,549
348,1,1,348,37,1,8 distractors,1,1,927
349,1,1,349,9,1,4 distractors,1,1,568
350,1,1,350,13,1,4 distractors,1,1,892
351,1,1,351,5,0,4 distractors,0,1,1015
352,1,1,352,33,0,4 distractors,0,1,918
353,1,1,353,13,0,4 distractors,0,1,658
354,1,1,354,33,0,4 distractors,0,1,631
355,1,1,355,5,1,4 distractors,1,1,574
356,1,1,356,13,1,4 distractors,1,1,673
357,1,1,357,9,1,8 distractors,1,1,771
358,1,1,358,13,1,8 distractors,1,1,1886
359,1,1,359,33,0,4 distractors,0,1,1051
360,1,1,360,5,1,4 distractors,1,1,544
361,1,1,361,9,1,8 distractors,1,1,1070
362,1,1,362,33,1,4 distractors,1,1,1279
363,1,1,363,21,0,4 distractors,0,1,744
364,1,1,364,33,0,4 distractors,0,1,710
365,1,1,365,37,1,8 distractors,1,1,1132
366,1,1,366,33,0,4 distractors,0,1,667
367,1,1,367,37,0,8 distractors,0,1,606
368,1,1,368,13,1,4 distractors,1,1,1046
369,1,1,369,13,0,4 distractors,0,1,1120
370,1,1,370,9,1,4 distractors,1,1,878
371,1,1,371,17,0,8 distractors,0,1,1719
372,1,1,372,9,1,4 distractors,1,1,626
373,1,1,373,17,0,8 distractors,0,1,631
374,1,1,374,25,1,8 distractors,1,1,1464
375,1,1,375,25,0,8 distractors,0,1,1962
376,1,1,376,37,1,8 distractors,1,1,893
377,1,1,377,37,1,8 distractors,1,1,912
378,1,1,378,25,1,8 distractors,1,1,705
379,1,1,379,33,1,4 distractors,1,1,870
380,1,1,380,13,1,4 distractors,1,1,765
381,1,1,381,9,0,8 distractors,0,1,910
382,1,1,382,21,0,4 distractors,0,1,746
383,1,1,383,17,0,8 distractors,0,1,1495
384,1,1,384,13,1,8 distractors,1,1,992
385,1,1,385,33,1,4 distractors,1,1,793
386,1,1,386,13,0,4 distractors,0,1,837
387,1,1,387,9,0,8 distractors,0,1,1335
388,1,1,388,33,1,4 distractors,1,1,665
389,1,1,389,13,0,4 distractors,0,1,760
390,1,1,390,5,0,4 distractors,0,1,530
391,1,1,391,33,1,4 distractors,1,1,627
392,1,1,392,17,0,8 distractors,0,1,1017
393,1,1,393,17,0,8 distractors,0,1,1252
394,1,1,394,25,0,8 distractors,0,1,962
395,1,1,395,21,1,4 distractors,1,1,575
396,1,1,396,9,1,8 distractors,1,1,801
397,1,1,397,13,0,8 distractors,0,1,825
398,1,1,398,33,0,4 distractors,0,1,997
399,1,1,399,21,0,4 distractors,0,1,619
400,1,1,400,21,0,4 distractors,0,1,1055
401,1,1,401,13,0,8 distractors,0,1,1853
402,1,1,402,21,1,4 distractors,1,1,1207
403,1,1,403,5,0,4 distractors,0,1,751
404,1,1,404,13,0,8 distractors,0,1,856
405,1,1,405,9,0,4 distractors,0,1,598
406,1,1,406,9,1,8 distractors,1,1,833
407,1,1,407,13,0,4 distractors,0,1,740
408,1,1,408,33,1,4 distractors,1,1,1035
409,1,1,409,13,0,4 distractors,0,1,569
410,1,1,410,5,0,4 distractors,0,0,603
411,1,1,411,33,1,4 distractors,1,1,926
412,1,1,412,37,0,8 distractors,0,1,1428
413,1,1,413,9,1,8 distractors,1,1,876
414,1,1,414,9,0,8 distractors,0,1,551
415,1,1,415,17,0,8 distractors,0,1,819
416,1,1,416,33,0,4 distractors,0,1,673
417,1,1,417,13,1,4 distractors,1,1,857
418,1,1,418,17,1,8 distractors,1,1,1166
419,1,1,419,9,1,8 distractors,1,1,1746
420,1,1,420,37,0,8 distractors,0,1,1001
421,1,1,421,37,1,8 distractors,1,1,695
422,1,1,422,25,1,8 distractors,1,1,1253
423,1,1,423,37,0,8 distractors,0,1,1135
424,1,1,424,13,1,8 distractors,1,1,520
425,1,1,425,21,1,4 distractors,1,1,938
426,1,1,426,13,1,4 distractors,1,1,948
427,1,1,427,21,0,4 distractors,0,1,809
428,1,1,428,13,1,4 distractors,1,1,1149
429,1,1,429,25,0,8 distractors,0,0,904
430,1,1,430,9,0,4 distractors,0,1,775
431,1,1,431,9,0,8 distractors,0,1,771
432,1,1,432,9,1,8 distractors,1,1,2187
433,1,1,433,33,1,4 distractors,1,1,786
434,1,1,434,13,0,8 distractors,0,1,844
435,1,1,435,13,1,8 distractors,1,1,1334
436,1,1,436,17,0,8 distractors,0,1,780
437,1,1,437,9,1,8 distractors,1,1,666
438,1,1,438,13,0,4 distractors,0,1,1048
439,1,1,439,13,1,8 distractors,1,1,1496
440,1,1,440,5,0,4 distractors,0,1,596
441,1,1,441,21,1,4 distractors,1,1,671
442,1,1,442,21,1,4 distractors,1,1,550
443,1,1,443,21,1,4 distractors,1,1,522
444,1,1,444,33,0,4 distractors,0,1,487
445,1,1,445,17,1,8 distractors,1,1,767
446,1,1,446,9,0,4 distractors,0,1,634
447,1,1,447,13,1,8 distractors,1,1,1044
448,1,1,448,33,1,4 distractors,1,1,801
449,1,1,449,5,1,4 distractors,1,1,1197
450,1,1,450,17,1,8 distractors,1,1,1517
451,1,1,451,13,0,8 distractors,0,1,1544
452,1,1,452,37,1,8 distractors,1,1,741
453,1,1,453,37,0,8 distractors,0,1,1390
454,1,1,454,13,0,4 distractors,0,1,943
455,1,1,455,21,0,4 distractors,0,1,783
456,1,1,456,25,1,8 distractors,1,1,907
457,1,1,457,5,0,4 distractors,0,1,741
458,1,1,458,25,1,8 distractors,1,1,1586
459,1,1,459,21,0,4 distractors,0,1,819
460,1,1,460,25,1,8 distractors,1,1,1242
461,1,1,461,21,1,4 distractors,1,1,1961
462,1,1,462,17,0,8 distractors,0,1,603
463,1,1,463,13,0,4 distractors,0,1,873
464,1,1,464,9,1,4 distractors,1,1,808
465,1,1,465,13,0,8 distractors,0,1,1514
466,1,1,466,17,1,8 distractors,1,1,717
467,1,1,467,21,1,4 distractors,1,1,690
468,1,1,468,9,1,8 distractors,1,1,758
469,1,1,469,9,1,4 distractors,1,1,1011
470,1,1,470,13,0,4 distractors,0,1,532
471,1,1,471,13,0,4 distractors,0,1,686
472,1,1,472,37,1,8 distractors,1,1,1368
473,1,1,473,21,0,4 distractors,0,1,1425
474,1,1,474,25,0,8 distractors,0,1,946
475,1,1,475,37,0,8 distractors,0,1,1136
476,1,1,476,9,1,4 distractors,1,1,765
477,1,1,477,33,1,4 distractors,1,1,572
478,1,1,478,5,0,4 distractors,0,1,473
479,1,1,479,9,0,4 distractors,0,1,560
480,1,1,480,5,1,4 distractors,1,1,897
481,1,1,481,9,0,4 distractors,0,1,1070
482,1,1,482,33,0,4 distractors,0,1,1132
483,1,1,483,9,0,4 distractors,0,1,1257
484,1,1,484,21,0,4 distractors,0,1,964
485,1,1,485,13,1,8 distractors,1,1,1183
486,1,1,486,5,0,4 distractors,0,1,622
487,1,1,487,9,1,4 distractors,1,0,626
488,1,1,488,13,1,4 distractors,1,1,807
489,1,1,489,37,1,8 distractors,1,1,1964
490,1,1,490,13,0,4 distractors,0,1,1682
491,1,1,491,9,1,4 distractors,1,1,1150
492,1,1,492,13,1,8 distractors,1,1,1011
493,1,1,493,37,0,8 distractors,0,1,1224
494,1,1,494,9,0,8 distractors,0,1,886
495,1,1,495,9,0,4 distractors,0,1,544
496,1,1,496,9,1,4 distractors,1,1,1946
497,1,1,497,13,0,8 distractors,0,1,1188
498,1,1,498,13,1,8 distractors,1,1,2248
499,1,1,499,13,1,8 distractors,1,1,1896
500,1,1,500,9,0,4 distractors,0,1,470
501,1,1,501,25,0,8 distractors,0,1,1594
502,1,1,502,37,0,8 distractors,0,1,2416
503,1,1,503,13,0,8 distractors,0,1,2395
504,1,1,504,33,1,4 distractors,1,1,819
505,1,1,505,13,0,8 distractors,0,1,1426
506,1,1,506,25,1,8 distractors,1,1,1506
507,1,1,507,13,1,4 distractors,1,1,854
508,1,1,508,33,1,4 distractors,1,1,1199
509,1,1,509,9,1,4 distractors,1,1,1497
510,1,1,510,9,1,8 distractors,1,1,2025
511,1,1,511,9,1,8 distractors,1,1,1463
512,1,1,512,13,1,8 distractors,1,1,545
513,1,1,513,21,1,4 distractors,1,1,700
514,1,1,514,9,1,4 distractors,1,1,549
515,1,1,515,25,1,8 distractors,1,1,1669
516,1,1,516,13,1,8 distractors,1,1,1347
517,1,1,517,33,0,4 distractors,0,1,1038
518,1,1,518,25,1,8 distractors,1,1,784
519,1,1,519,25,1,8 distractors,1,1,737
520,1,1,520,13,0,4 distractors,0,1,631
521,1,1,521,9,0,8 distractors,0,1,2214
522,1,1,522,5,0,4 distractors,0,1,618
523,1,1,523,5,0,4 distractors,0,1,573
524,1,1,524,9,1,8 distractors,1,1,2231
525,1,1,525,13,0,4 distractors,0,1,733
526,1,1,526,9,0,4 distractors,0,1,1194
527,1,1,527,17,1,8 distractors,1,1,1170
528,1,1,528,13,0,4 distractors,0,1,996
529,1,1,529,21,0,4 distractors,0,1,716
530,1,1,530,21,0,4 distractors,0,1,900
531,1,1,531,13,0,8 distractors,0,1,1417
532,1,1,532,25,0,8 distractors,0,1,1612
533,1,1,533,21,1,4 distractors,1,1,755
534,1,1,534,9,1,8 distractors,1,1,2781
535,1,1,535,25,1,8 distractors,1,1,909
536,1,1,536,17,0,8 distractors,0,1,1108
537,1,1,537,13,0,4 distractors,0,1,1070
538,1,1,538,17,1,8 distractors,1,1,694
539,1,1,539,13,1,8 distractors,1,1,1046
540,1,1,540,17,1,8 distractors,1,1,710
541,1,1,541,37,0,8 distractors,0,1,1630
542,1,1,542,13,0,8 distractors,0,1,950
543,1,1,543,9,1,8 distractors,1,1,2247
544,1,1,544,33,0,4 distractors,0,1,719
545,1,1,545,17,0,8 distractors,0,1,941
546,1,1,546,9,1,4 distractors,1,1,880
547,1,1,547,25,0,8 distractors,0,1,1526
548,1,1,548,5,1,4 distractors,1,1,656
549,1,1,549,37,0,8 distractors,0,1,3517
550,1,1,550,37,1,8 distractors,1,1,1314
551,1,1,551,13,1,4 distractors,1,1,793
552,1,1,552,13,0,4 distractors,0,1,899
553,1,1,553,37,1,8 distractors,1,1,1273
554,1,1,554,5,1,4 distractors,1,1,706
555,1,1,555,9,0,8 distractors,0,1,812
556,1,1,556,13,1,4 distractors,1,1,1663
557,1,1,557,5,1,4 distractors,1,1,857
558,1,1,558,17,0,8 distractors,0,1,2841
559,1,1,559,5,1,4 distractors,1,1,838
560,1,1,560,25,0,8 distractors,0,1,1123
561,1,1,561,9,0,8 distractors,0,1,953
562,1,1,562,13,1,8 distractors,1,1,1665
563,1,1,563,17,1,8 distractors,1,1,1755
564,1,1,564,9,1,4 distractors,1,1,1071
565,1,1,565,33,1,4 distractors,1,1,864
566,1,1,566,5,1,4 distractors,1,1,799
567,1,1,567,37,0,8 distractors,0,1,1136
568,1,1,568,9,1,4 distractors,1,1,1141
569,1,1,569,21,0,4 distractors,0,1,1213
570,1,1,570,9,0,8 distractors,0,1,1711
571,1,1,571,37,0,8 distractors,0,1,1393
572,1,1,572,5,1,4 distractors,1,1,601
573,1,1,573,13,0,4 distractors,0,1,810
574,1,1,574,17,0,8 distractors,0,1,2170
575,1,1,575,9,0,8 distractors,0,1,1177
576,1,1,576,9,1,8 distractors,1,1,1071
577,1,1,577,21,0,4 distractors,0,1,901
578,1,1,578,21,1,4 distractors,1,1,591
579,1,1,579,13,0,4 distractors,0,1,896
580,1,1,580,13,1,8 distractors,1,1,772
581,1,1,581,5,1,4 distractors,1,1,702
582,1,1,582,17,0,8 distractors,0,1,1685
583,1,1,583,17,1,8 distractors,1,1,1886
584,1,1,584,13,1,8 distractors,1,1,810
585,1,1,585,9,1,8 distractors,1,1,724
586,1,1,586,13,1,8 distractors,1,1,610
587,1,1,587,37,0,8 distractors,0,1,1093
588,1,1,588,21,0,4 distractors,0,1,678
589,1,1,589,33,0,4 distractors,0,1,703
590,1,1,590,25,1,8 distractors,1,1,1268
591,1,1,591,9,1,4 distractors,1,1,880
592,1,1,592,5,1,4 distractors,1,1,783
593,1,1,593,21,0,4 distractors,0,1,1186
594,1,1,594,21,0,4 distractors,0,1,760
595,1,1,595,37,0,8 distractors,0,1,1690
596,1,1,596,13,0,8 distractors,0,1,1504
597,1,1,597,25,1,8 distractors,1,1,2613
598,1,1,598,17,0,8 distractors,0,1,3490
599,1,1,599,25,0,8 distractors,0,1,1087
600,1,1,600,33,0,4 distractors,0,1,773
601,2,1,1,21,1,4 distractors,1,1,3139
602,2,1,2,25,1,8 distractors,1,1,1340
603,2,1,3,33,0,4 distractors,0,1,1086
604,2,1,4,9,0,4 distractors,0,1,980
605,2,1,5,17,1,8 distractors,1,1,2351
606,2,1,6,37,1,8 distractors,1,1,1694
607,2,1,7,13,1,4 distractors,1,1,1269
608,2,1,8,33,1,4 distractors,1,1,1043
609,2,1,9,37,1,8 distractors,1,1,472
610,2,1,10,9,1,8 distractors,1,1,637
611,2,1,11,9,0,8 distractors,0,1,900
612,2,1,12,17,0,8 distractors,0,1,912
613,2,1,13,37,0,8 distractors,0,0,1011
614,2,1,14,17,0,8 distractors,0,1,1189
615,2,1,15,9,0,4 distractors,0,1,1215
616,2,1,16,13,1,8 distractors,1,1,1052
617,2,1,17,37,1,8 distractors,1,1,2130
618,2,1,18,33,1,4 distractors,1,1,1075
619,2,1,19,25,1,8 distractors,1,1,1850
620,2,1,20,33,1,4 distractors,1,1,1016
621,2,1,21,9,0,4 distractors,0,1,1422
622,2,1,22,17,0,8 distractors,0,1,628
623,2,1,23,33,0,4 distractors,0,1,684
624,2,1,24,33,1,4 distractors,1,1,1555
625,2,1,25,21,0,4 distractors,0,1,1220
626,2,1,26,5,1,4 distractors,1,1,617
627,2,1,27,25,0,8 distractors,0,1,913
628,2,1,28,9,0,8 distractors,0,1,1014
629,2,1,29,9,0,8 distractors,0,1,820
630,2,1,30,37,0,8 distractors,0,1,2014
631,2,1,31,9,1,8 distractors,1,1,912
632,2,1,32,13,1,4 distractors,1,1,801
633,2,1,33,37,1,8 distractors,1,1,772
634,2,1,34,17,0,8 distractors,0,1,628
635,2,1,35,9,0,8 distractors,0,1,1713
636,2,1,36,17,1,8 distractors,1,1,946
637,2,1,37,25,0,8 distractors,0,1,943
638,2,1,38,37,0,8 distractors,0,1,2100
639,2,1,39,13,0,4 distractors,0,1,597
640,2,1,40,5,1,4 distractors,1,1,625
641,2,1,41,17,0,8 distractors,0,1,2143
642,2,1,42,9,0,4 distractors,0,1,648
643,2,1,43,37,0,8 distractors,0,1,1678
644,2,1,44,17,1,8 distractors,1,1,1776
645,2,1,45,17,1,8 distractors,1,1,1974
646,2,1,46,21,1,4 distractors,1,1,1128
647,2,1,47,9,0,8 distractors,0,1,1563
648,2,1,48,25,1,8 distractors,1,1,1123
649,2,1,49,25,0,8 distractors,0,1,1324
650,2,1,50,9,1,4 distractors,1,1,1433
651,2,1,51,9,1,8 distractors,1,1,809
652,2,1,52,21,1,4 distractors,1,1,1263
653,2,1,53,17,1,8 distractors,1,1,883
654,2,1,54,37,1,8 distractors,1,1,1274
655,2,1,55,25,0,8 distractors,0,1,910
656,2,1,56,17,0,8 distractors,0,1,2797
657,2,1,57,17,1,8 distractors,1,1,616
658,2,1,58,13,0,4 distractors,0,1,826
659,2,1,59,5,1,4 distractors,1,1,672
660,2,1,60,37,1,8 distractors,1,1,1667
661,2,1,61,9,1,4 distractors,1,1,1248
662,2,1,62,5,0,4 distractors,0,1,633
663,2,1,63,33,1,4 distractors,1,1,1155
664,2,1,64,33,1,4 distractors,1,1,1405
665,2,1,65,21,1,4 distractors,1,1,760
666,2,1,66,37,1,8 distractors,1,1,1892
667,2,1,67,5,1,4 distractors,1,1,1076
668,2,1,68,33,1,4 distractors,1,1,596
669,2,1,69,17,0,8 distractors,0,1,1016
670,2,1,70,37,1,8 distractors,1,1,1158
671,2,1,71,9,0,8 distractors,0,1,754
672,2,1,72,33,0,4 distractors,0,1,815
673,2,1,73,25,0,8 distractors,0,1,583
674,2,1,74,9,1,4 distractors,1,1,464
675,2,1,75,25,0,8 distractors,0,1,474
676,2,1,76,33,1,4 distractors,1,1,1046
677,2,1,77,9,1,8 distractors,1,1,541
678,2,1,78,9,0,4 distractors,0,1,763
679,2,1,79,37,0,8 distractors,0,1,590
680,2,1,80,33,0,4 distractors,0,1,793
681,2,1,81,13,0,4 distractors,0,1,1181
682,2,1,82,9,0,4 distractors,0,1,499
683,2,1,83,21,1,4 distractors,1,1,579
684,2,1,84,37,0,8 distractors,0,1,885
685,2,1,85,9,0,8 distractors,0,1,1918
686,2,1,86,5,0,4 distractors,0,1,607
687,2,1,87,25,0,8 distractors,0,1,1685
688,2,1,88,13,0,8 distractors,0,1,1183
689,2,1,89,17,1,8 distractors,1,0,1694
690,2,1,90,13,1,8 distractors,1,1,1417
691,2,1,91,37,0,8 distractors,0,1,1270
692,2,1,92,9,1,4 distractors,1,1,824
693,2,1,93,25,0,8 distractors,0,1,805
694,2,1,94,9,0,8 distractors,0,1,1719
695,2,1,95,21,1,4 distractors,1,1,670
696,2,1,96,9,1,4 distractors,1,1,924
697,2,1,97,37,1,8 distractors,1,1,1580
698,2,1,98,25,0,8 distractors,0,1,667
699,2,1,99,33,1,4 distractors,1,1,696
700,2,1,100,13,0,4 distractors,0,1,925
701,2,1,101,33,1,4 distractors,1,1,880
702,2,1,102,17,0,8 distractors,0,1,513
703,2,1,103,25,0,8 distractors,0,1,483
704,2,1,104,21,1,4 distractors,1,1,847
705,2,1,105,33,0,4 distractors,0,1,686
706,2,1,106,9,1,4 distractors,1,1,711
707,2,1,107,21,0,4 distractors,0,1,769
708,2,1,108,13,1,4 distractors,1,1,1080
709,2,1,109,9,0,8 distractors,0,1,2070
710,2,1,110,13,1,8 distractors,1,1,1035
711,2,1,111,17,0,8 distractors,0,1,665
712,2,1,112,9,1,8 distractors,1,1,670
713,2,1,113,5,1,4 distractors,1,1,806
714,2,1,114,5,0,4 distractors,0,1,1065
715,2,1,115,9,0,8 distractors,0,1,910
716,2,1,116,9,0,8 distractors,0,0,1582
717,2,1,117,17,0,8 distractors,0,1,803
718,2,1,118,5,1,4 distractors,1,1,858
719,2,1,119,21,0,4 distractors,0,1,679
720,2,1,120,17,1,8 distractors,1,1,1174
721,2,1,121,9,1,8 distractors,1,1,1649
722,2,1,122,25,0,8 distractors,0,1,702
723,2,1,123,13,1,8 distractors,1,1,1014
724,2,1,124,37,0,8 distractors,0,1,1898
725,2,1,125,13,0,4 distractors,0,1,771
726,2,1,126,13,1,4 distractors,1,1,939
727,2,1,127,5,1,4 distractors,1,1,666
728,2,1,128,17,1,8 distractors,1,1,911
729,2,1,129,25,1,8 distractors,1,1,1680
730,2,1,130,33,0,4 distractors,0,1,469
731,2,1,131,13,1,4 distractors,1,1,465
732,2,1,132,21,0,4 distractors,0,1,760
733,2,1,133,33,0,4 distractors,0,1,1275
734,2,1,134,13,0,4 distractors,0,1,756
735,2,1,135,25,1,8 distractors,1,1,895
736,2,1,136,9,0,4 distractors,0,1,511
737,2,1,137,21,0,4 distractors,0,1,758
738,2,1,138,5,0,4 distractors,0,1,465
739,2,1,139,17,0,8 distractors,0,1,1389
740,2,1,140,25,1,8 distractors,1,1,778
741,2,1,141,17,1,8 distractors,1,1,1118
742,2,1,142,9,1,8 distractors,1,1,535
743,2,1,143,37,1,8 distractors,1,1,795
744,2,1,144,17,1,8 distractors,1,1,803
745,2,1,145,5,1,4 distractors,1,1,464
746,2,1,146,25,1,8 distractors,1,1,1181
747,2,1,147,25,0,8 distractors,0,1,1008
748,2,1,148,13,1,8 distractors,1,1,1264
749,2,1,149,13,0,8 distractors,0,1,694
750,2,1,150,17,1,8 distractors,1,1,709
751,2,1,151,5,0,4 distractors,0,1,1066
752,2,1,152,33,0,4 distractors,0,1,705
753,2,1,153,13,0,8 distractors,0,1,1557
754,2,1,154,9,1,8 distractors,1,1,1636
755,2,1,155,21,0,4 distractors,0,1,663
756,2,1,156,33,1,4 distractors,1,1,469
757,2,1,157,37,0,8 distractors,0,1,1945
758,2,1,158,9,0,8 distractors,0,1,537
759,2,1,159,25,1,8 distractors,1,1,719
760,2,1,160,9,0,8 distractors,0,1,1087
761,2,1,161,13,1,8 distractors,1,1,1236
762,2,1,162,13,0,4 distractors,0,1,458
763,2,1,163,9,1,4 distractors,1,1,640
764,2,1,164,9,1,8 distractors,1,1,1036
765,2,1,165,33,1,4 distractors,1,1,1803
766,2,1,166,9,1,4 distractors,1,1,1118
767,2,1,167,25,1,8 distractors,1,1,924
768,2,1,168,37,1,8 distractors,1,1,469
769,2,1,169,13,0,8 distractors,0,1,999
770,2,1,170,13,1,8 distractors,1,1,912
771,2,1,171,37,1,8 distractors,1,1,666
772,2,1,172,33,0,4 distractors,0,1,1920
773,2,1,173,13,1,8 distractors,1,1,1007
774,2,1,174,33,1,4 distractors,1,1,1072
775,2,1,175,25,1,8 distractors,1,1,905
776,2,1,176,9,0,4 distractors,0,1,1063
777,2,1,177,9,1,8 distractors,1,1,427
778,2,1,178,13,0,8 distractors,0,1,1455
779,2,1,179,13,1,4 distractors,1,0,952
780,2,1,180,21,1,4 distractors,1,1,1931
781,2,1,181,37,0,8 distractors,0,1,846
782,2,1,182,17,1,8 distractors,1,1,1610
783,2,1,183,33,1,4 distractors,1,1,1046
784,2,1,184,5,0,4 distractors,0,1,735
785,2,1,185,13,1,4 distractors,1,1,1247
786,2,1,186,13,0,8 distractors,0,1,1651
787,2,1,187,9,1,4 distractors,1,1,550
788,2,1,188,33,0,4 distractors,0,1,692
789,2,1,189,17,0,8 distractors,0,1,791
790,2,1,190,13,0,4 distractors,0,1,655
791,2,1,191,37,1,8 distractors,1,1,1049
792,2,1,192,13,0,4 distractors,0,1,615
793,2,1,193,5,0,4 distractors,0,1,587
794,2,1,194,9,1,8 distractors,1,1,1292
795,2,1,195,25,1,8 distractors,1,1,1427
796,2,1,196,9,1,8 distractors,1,1,906
797,2,1,197,5,0,4 distractors,0,1,584
798,2,1,198,33,0,4 distractors,0,1,686
799,2,1,199,25,1,8 distractors,1,1,806
800,2,1,200,5,0,4 distractors,0,1,732
801,2,1,201,17,1,8 distractors,1,1,884
802,2,1,202,21,1,4 distractors,1,1,752
803,2,1,203,37,0,8 distractors,0,1,975
804,2,1,204,25,1,8 distractors,1,1,1009
805,2,1,205,9,1,4 distractors,1,1,572
806,2,1,206,25,1,8 distractors,1,1,853
807,2,1,207,9,0,4 distractors,0,1,503
808,2,1,208,21,0,4 distractors,0,1,654
809,2,1,209,13,0,8 distractors,0,1,1288
810,2,1,210,13,1,8 distractors,1,1,1116
811,2,1,211,21,0,4 distractors,0,1,776
812,2,1,212,9,1,4 distractors,1,1,770
813,2,1,213,17,0,8 distractors,0,1,2626
814,2,1,214,9,0,8 distractors,0,1,762
815,2,1,215,25,1,8 distractors,1,1,1435
816,2,1,216,25,0,8 distractors,0,1,572
817,2,1,217,21,1,4 distractors,1,1,959
818,2,1,218,5,1,4 distractors,1,1,568
819,2,1,219,9,1,4 distractors,1,1,606
820,2,1,220,9,1,4 distractors,1,1,487
821,2,1,221,21,0,4 distractors,0,1,548
822,2,1,222,13,1,4 distractors,1,1,793
823,2,1,223,17,0,8 distractors,0,1,850
824,2,1,224,25,0,8 distractors,0,1,663
825,2,1,225,25,1,8 distractors,1,1,749
826,2,1,226,33,0,4 distractors,0,1,1280
827,2,1,227,9,0,4 distractors,0,1,904
828,2,1,228,13,0,4 distractors,0,1,897
829,2,1,229,17,0,8 distractors,0,1,484
830,2,1,230,17,1,8 distractors,1,1,864
831,2,1,231,9,1,8 distractors,1,1,1292
832,2,1,232,5,1,4 distractors,1,1,569
833,2,1,233,5,1,4 distractors,1,1,1273
834,2,1,234,33,1,4 distractors,1,1,996
835,2,1,235,33,0,4 distractors,0,1,1181
836,2,1,236,13,0,4 distractors,0,1,536
837,2,1,237,9,0,8 distractors,0,1,1169
838,2,1,238,9,1,8 distractors,1,1,1394
839,2,1,239,9,0,4 distractors,0,1,1427
840,2,1,240,9,0,4 distractors,0,1,893
841,2,1,241,21,1,4 distractors,1,1,596
842,2,1,242,25,0,8 distractors,0,1,596
843,2,1,243,21,1,4 distractors,1,1,706
844,2,1,244,13,0,8 distractors,0,1,540
845,2,1,245,5,0,4 distractors,0,1,1196
846,2,1,246,13,0,8 distractors,0,1,591
847,2,1,247,13,1,8 distractors,1,1,639
848,2,1,248,9,0,8 distractors,0,1,527
849,2,1,249,13,1,4 distractors,1,1,542
850,2,1,250,21,1,4 distractors,1,1,471
851,2,1,251,13,0,8 distractors,0,1,1211
852,2,1,252,17,0,8 distractors,0,1,994
853,2,1,253,5,0,4 distractors,0,1,528
854,2,1,254,33,1,4 distractors,1,1,765
855,2,1,255,13,0,8 distractors,0,1,1706
856,2,1,256,37,1,8 distractors,1,1,653
857,2,1,257,21,0,4 distractors,0,1,1028
858,2,1,258,5,1,4 distractors,1,1,646
859,2,1,259,5,1,4 distractors,1,1,451
860,2,1,260,37,0,8 distractors,0,1,798
861,2,1,261,25,0,8 distractors,0,1,995
862,2,1,262,17,1,8 distractors,1,1,427
863,2,1,263,9,1,8 distractors,1,1,476
864,2,1,264,21,1,4 distractors,1,1,603
865,2,1,265,9,0,4 distractors,0,1,565
866,2,1,266,13,0,4 distractors,0,1,644
867,2,1,267,37,1,8 distractors,1,1,2078
868,2,1,268,9,1,8 distractors,1,1,951
869,2,1,269,9,1,4 distractors,1,1,1313
870,2,1,270,33,1,4 distractors,1,1,1106
871,2,1,271,25,1,8 distractors,1,1,560
872,2,1,272,37,1,8 distractors,1,1,1644
873,2,1,273,13,1,4 distractors,1,1,786
874,2,1,274,13,0,8 distractors,0,1,509
875,2,1,275,5,0,4 distractors,0,0,616
876,2,1,276,37,0,8 distractors,0,1,765
877,2,1,277,33,0,4 distractors,0,1,544
878,2,1,278,5,0,4 distractors,0,1,645
879,2,1,279,9,0,8 distractors,0,1,791
880,2,1,280,25,0,8 distractors,0,1,829
881,2,1,281,33,0,4 distractors,0,1,503
882,2,1,282,9,1,8 distractors,1,1,1910
883,2,1,283,5,1,4 distractors,1,1,927
884,2,1,284,33,0,4 distractors,0,1,1122
885,2,1,285,9,0,8 distractors,0,1,1322
886,2,1,286,21,1,4 distractors,1,1,595
887,2,1,287,13,1,4 distractors,1,1,529
888,2,1,288,17,1,8 distractors,1,1,1166
889,2,1,289,33,0,4 distractors,0,1,767
890,2,1,290,17,0,8 distractors,0,1,1054
891,2,1,291,5,0,4 distractors,0,1,514
892,2,1,292,5,0,4 distractors,0,1,428
893,2,1,293,25,1,8 distractors,1,1,1479
894,2,1,294,13,0,8 distractors,0,1,1330
895,2,1,295,17,1,8 distractors,1,1,1114
896,2,1,296,17,0,8 distractors,0,1,953
897,2,1,297,21,1,4 distractors,1,1,805
898,2,1,298,21,0,4 distractors,0,1,842
899,2,1,299,9,0,4 distractors,0,1,724
900,2,1,300,25,0,8 distractors,0,1,591
901,2,1,301,17,0,8 distractors,0,1,939
902,2,1,302,25,0,8 distractors,0,1,822
903,2,1,303,9,0,8 distractors,0,1,948
904,2,1,304,9,0,8 distractors,0,1,1132
905,2,1,305,13,0,8 distractors,0,1,1110
906,2,1,306,37,0,8 distractors,0,1,909
907,2,1,307,37,1,8 distractors,1,1,1094
908,2,1,308,37,0,8 distractors,0,1,1347
909,2,1,309,9,0,4 distractors,0,1,634
910,2,1,310,33,0,4 distractors,0,1,563
911,2,1,311,13,0,8 distractors,0,1,665
912,2,1,312,5,0,4 distractors,0,1,617
913,2,1,313,13,0,4 distractors,0,1,587
914,2,1,314,33,0,4 distractors,0,1,648
915,2,1,315,21,0,4 distractors,0,1,614
916,2,1,316,17,0,8 distractors,0,1,392
917,2,1,317,13,1,8 distractors,1,1,521
918,2,1,318,25,0,8 distractors,0,1,846
919,2,1,319,37,1,8 distractors,1,1,1404
920,2,1,320,37,1,8 distractors,1,1,1088
921,2,1,321,9,0,4 distractors,0,1,1172
922,2,1,322,21,0,4 distractors,0,1,589
923,2,1,323,33,1,4 distractors,1,1,1126
924,2,1,324,37,1,8 distractors,1,1,549
925,2,1,325,9,1,8 distractors,1,1,1557
926,2,1,326,13,1,8 distractors,1,1,1659
927,2,1,327,33,1,4 distractors,1,1,1063
928,2,1,328,5,1,4 distractors,1,1,839
929,2,1,329,21,1,4 distractors,1,1,657
930,2,1,330,13,1,4 distractors,1,1,647
931,2,1,331,17,0,8 distractors,0,1,2119
932,2,1,332,9,0,4 distractors,0,1,864
933,2,1,333,17,1,8 distractors,1,1,1090
934,2,1,334,13,0,4 distractors,0,1,752
935,2,1,335,13,0,8 distractors,0,1,1213
936,2,1,336,21,1,4 distractors,1,1,639
937,2,1,337,9,1,4 distractors,1,1,708
938,2,1,338,37,1,8 distractors,1,1,1131
939,2,1,339,13,1,4 distractors,1,1,674
940,2,1,340,9,0,4 distractors,0,1,716
941,2,1,341,33,0,4 distractors,0,1,752
942,2,1,342,9,1,8 distractors,1,1,1904
943,2,1,343,17,1,8 distractors,1,1,1289
944,2,1,344,33,1,4 distractors,1,1,594
945,2,1,345,25,1,8 distractors,1,1,546
946,2,1,346,25,0,8 distractors,0,1,760
947,2,1,347,37,1,8 distractors,1,1,1108
948,2,1,348,37,0,8 distractors,0,1,740
949,2,1,349,9,1,8 distractors,1,1,1260
950,2,1,350,13,0,8 distractors,0,1,744
951,2,1,351,17,1,8 distractors,1,1,1815
952,2,1,352,5,1,4 distractors,1,1,591
953,2,1,353,13,1,4 distractors,1,1,1007
954,2,1,354,21,1,4 distractors,1,1,573
955,2,1,355,33,0,4 distractors,0,1,965
956,2,1,356,17,0,8 distractors,0,1,702
957,2,1,357,9,1,4 distractors,1,1,818
958,2,1,358,13,1,8 distractors,1,1,1237
959,2,1,359,13,1,8 distractors,1,1,747
960,2,1,360,25,0,8 distractors,0,1,1096
961,2,1,361,21,1,4 distractors,1,1,1118
962,2,1,362,13,0,8 distractors,0,1,612
963,2,1,363,9,1,4 distractors,1,1,697
964,2,1,364,33,0,4 distractors,0,1,658
965,2,1,365,9,1,8 distractors,1,1,803
966,2,1,366,5,1,4 distractors,1,1,656
967,2,1,367,33,1,4 distractors,1,1,838
968,2,1,368,17,1,8 distractors,1,1,616
969,2,1,369,13,1,8 distractors,1,1,1628
970,2,1,370,17,1,8 distractors,1,1,691
971,2,1,371,21,1,4 distractors,1,1,638
972,2,1,372,17,1,8 distractors,1,1,1068
973,2,1,373,5,1,4 distractors,1,1,572
974,2,1,374,33,0,4 distractors,0,1,1417
975,2,1,375,21,0,4 distractors,0,1,738
976,2,1,376,25,1,8 distractors,1,1,1470
977,2,1,377,9,0,4 distractors,0,1,592
978,2,1,378,5,0,4 distractors,0,1,545
979,2,1,379,13,0,8 distractors,0,1,1563
980,2,1,380,13,1,4 distractors,1,1,502
981,2,1,381,13,1,4 distractors,1,1,797
982,2,1,382,17,0,8 distractors,0,1,1279
983,2,1,383,33,1,4 distractors,1,1,1119
984,2,1,384,13,0,4 distractors,0,1,1451
985,2,1,385,13,0,4 distractors,0,1,1014
986,2,1,386,13,1,8 distractors,1,1,591
987,2,1,387,13,1,8 distractors,1,1,564
988,2,1,388,37,1,8 distractors,1,1,649
989,2,1,389,5,0,4 distractors,0,1,740
990,2,1,390,37,1,8 distractors,1,1,616
991,2,1,391,25,0,8 distractors,0,1,1142
992,2,1,392,9,1,4 distractors,1,1,775
993,2,1,393,17,0,8 distractors,0,1,1158
994,2,1,394,25,1,8 distractors,1,1,2448
995,2,1,395,33,1,4 distractors,1,1,1499
996,2,1,396,33,1,4 distractors,1,1,1127
997,2,1,397,13,0,4 distractors,0,1,512
998,2,1,398,5,1,4 distractors,1,1,676
999,2,1,399,13,1,8 distractors,1,1,1285
1000,2,1,400,21,0,4 distractors,0,1,553
1001,2,1,401,9,1,4 distractors,1,1,2013
1002,2,1,402,13,1,4 distractors,1,1,694
1003,2,1,403,9,1,4 distractors,1,1,1005
1004,2,1,404,21,0,4 distractors,0,1,614
1005,2,1,405,9,1,8 distractors,1,1,804
1006,2,1,406,13,1,8 distractors,1,1,1248
1007,2,1,407,9,0,8 distractors,0,1,2235
1008,2,1,408,13,1,4 distractors,1,1,790
1009,2,1,409,9,0,8 distractors,0,1,786
1010,2,1,410,37,1,8 distractors,1,1,781
1011,2,1,411,33,0,4 distractors,0,1,817
1012,2,1,412,17,0,8 distractors,0,1,662
1013,2,1,413,5,0,4 distractors,0,1,1382
1014,2,1,414,13,0,8 distractors,0,1,1270
1015,2,1,415,21,0,4 distractors,0,1,586
1016,2,1,416,5,1,4 distractors,1,1,1069
1017,2,1,417,9,1,4 distractors,1,1,843
1018,2,1,418,21,0,4 distractors,0,1,809
1019,2,1,419,33,1,4 distractors,1,1,1106
1020,2,1,420,37,0,8 distractors,0,1,1430
1021,2,1,421,13,1,4 distractors,1,1,635
1022,2,1,422,13,1,4 distractors,1,1,546
1023,2,1,423,17,1,8 distractors,1,1,1240
1024,2,1,424,13,0,4 distractors,0,1,1084
1025,2,1,425,13,0,4 distractors,0,1,1633
1026,2,1,426,21,0,4 distractors,0,1,1036
1027,2,1,427,9,1,4 distractors,1,1,637
1028,2,1,428,21,0,4 distractors,0,1,512
1029,2,1,429,9,0,4 distractors,0,1,817
1030,2,1,430,21,0,4 distractors,0,1,503
1031,2,1,431,13,0,8 distractors,0,1,606
1032,2,1,432,25,0,8 distractors,0,1,668
1033,2,1,433,37,0,8 distractors,0,1,710
1034,2,1,434,13,1,8 distractors,1,1,927
1035,2,1,435,5,0,4 distractors,0,1,552
1036,2,1,436,9,0,4 distractors,0,1,575
1037,2,1,437,21,1,4 distractors,1,1,581
1038,2,1,438,13,1,4 distractors,1,1,840
1039,2,1,439,9,1,8 distractors,1,1,738
1040,2,1,440,37,1,8 distractors,1,1,1531
1041,2,1,441,33,0,4 distractors,0,1,675
1042,2,1,442,21,0,4 distractors,0,1,1359
1043,2,1,443,9,0,8 distractors,0,1,1191
1044,2,1,444,37,0,8 distractors,0,1,962
1045,2,1,445,21,0,4 distractors,0,1,660
1046,2,1,446,9,1,4 distractors,1,1,827
1047,2,1,447,13,1,4 distractors,1,1,705
1048,2,1,448,5,0,4 distractors,0,1,961
1049,2,1,449,33,1,4 distractors,1,1,1675
1050,2,1,450,5,1,4 distractors,1,1,626
1051,2,1,451,25,0,8 distractors,0,1,1301
1052,2,1,452,21,0,4 distractors,0,1,1007
1053,2,1,453,13,0,4 distractors,0,1,688
1054,2,1,454,5,0,4 distractors,0,1,537
1055,2,1,455,13,1,8 distractors,1,1,2137
1056,2,1,456,21,0,4 distractors,0,1,1178
1057,2,1,457,5,0,4 distractors,0,1,586
1058,2,1,458,17,1,8 distractors,1,1,1418
1059,2,1,459,13,1,8 distractors,1,1,790
1060,2,1,460,9,0,4 distractors,0,1,825
1061,2,1,461,17,0,8 distractors,0,1,824
1062,2,1,462,33,1,4 distractors,1,1,751
1063,2,1,463,37,1,8 distractors,1,1,655
1064,2,1,464,9,1,4 distractors,1,1,479
1065,2,1,465,37,0,8 distractors,0,1,773
1066,2,1,466,5,1,4 distractors,1,1,681
1067,2,1,467,13,0,4 distractors,0,1,780
1068,2,1,468,21,1,4 distractors,1,1,892
1069,2,1,469,13,1,8 distractors,1,1,1805
1070,2,1,470,9,0,8 distractors,0,1,672
1071,2,1,471,9,1,8 distractors,1,1,1341
1072,2,1,472,13,0,4 distractors,0,1,851
1073,2,1,473,21,0,4 distractors,0,1,1130
1074,2,1,474,33,1,4 distractors,1,1,712
1075,2,1,475,17,0,8 distractors,0,1,1437
1076,2,1,476,13,0,8 distractors,0,1,546
1077,2,1,477,5,1,4 distractors,1,1,1060
1078,2,1,478,21,1,4 distractors,1,1,1153
1079,2,1,479,13,1,8 distractors,1,1,1965
1080,2,1,480,13,1,8 distractors,1,1,1088
1081,2,1,481,9,1,8 distractors,1,1,910
1082,2,1,482,21,0,4 distractors,0,1,961
1083,2,1,483,9,0,4 distractors,0,1,565
1084,2,1,484,13,1,8 distractors,1,1,1425
1085,2,1,485,5,1,4 distractors,1,1,754
1086,2,1,486,13,0,8 distractors,0,1,861
1087,2,1,487,9,0,8 distractors,0,1,1031
1088,2,1,488,13,0,8 distractors,0,1,2765
1089,2,1,489,21,0,4 distractors,0,1,596
1090,2,1,490,13,0,4 distractors,0,1,1427
1091,2,1,491,25,1,8 distractors,1,1,574
1092,2,1,492,33,0,4 distractors,0,1,1836
1093,2,1,493,9,0,4 distractors,0,1,599
1094,2,1,494,13,1,4 distractors,1,1,1078
1095,2,1,495,17,0,8 distractors,0,1,1403
1096,2,1,496,37,1,8 distractors,1,1,809
1097,2,1,497,33,1,4 distractors,1,1,1190
1098,2,1,498,13,0,8 distractors,0,1,995
1099,2,1,499,17,0,8 distractors,0,1,1092
1100,2,1,500,9,1,8 distractors,1,1,659
1101,2,1,501,5,0,4 distractors,0,1,648
1102,2,1,502,5,1,4 distractors,1,1,1274
1103,2,1,503,25,1,8 distractors,1,1,724
1104,2,1,504,25,1,8 distractors,1,1,794
1105,2,1,505,37,0,8 distractors,0,1,714
1106,2,1,506,9,0,4 distractors,0,1,786
1107,2,1,507,13,1,4 distractors,1,1,947
1108,2,1,508,9,1,8 distractors,1,1,1031
1109,2,1,509,25,1,8 distractors,1,1,1835
1110,2,1,510,9,1,8 distractors,1,1,1182
1111,2,1,511,13,1,8 distractors,1,1,1784
1112,2,1,512,21,0,4 distractors,0,1,1607
1113,2,1,513,37,0,8 distractors,0,1,824
1114,2,1,514,9,1,4 distractors,1,1,822
1115,2,1,515,25,1,8 distractors,1,1,1868
1116,2,1,516,17,1,8 distractors,1,1,771
1117,2,1,517,9,1,4 distractors,1,1,536
1118,2,1,518,25,0,8 distractors,0,1,646
1119,2,1,519,9,0,4 distractors,0,1,1098
1120,2,1,520,13,0,8 distractors,0,1,580
1121,2,1,521,25,0,8 distractors,0,1,1107
1122,2,1,522,13,0,4 distractors,0,1,611
1123,2,1,523,37,0,8 distractors,0,1,692
1124,2,1,524,33,0,4 distractors,0,1,972
1125,2,1,525,5,0,4 distractors,0,1,439
1126,2,1,526,9,0,4 distractors,0,1,1114
1127,2,1,527,13,1,4 distractors,1,1,555
1128,2,1,528,25,0,8 distractors,0,1,505
1129,2,1,529,13,0,4 distractors,0,1,612
1130,2,1,530,5,1,4 distractors,1,1,660
1131,2,1,531,9,0,4 distractors,0,1,546
1132,2,1,532,25,1,8 distractors,1,1,709
1133,2,1,533,21,1,4 distractors,1,1,601
1134,2,1,534,25,0,8 distractors,0,1,1598
1135,2,1,535,9,1,4 distractors,1,1,517
1136,2,1,536,37,0,8 distractors,0,1,944
1137,2,1,537,37,0,8 distractors,0,1,561
1138,2,1,538,37,0,8 distractors,0,1,532
1139,2,1,539,37,0,8 distractors,0,1,534
1140,2,1,540,5,0,4 distractors,0,1,798
1141,2,1,541,37,1,8 distractors,1,1,1506
1142,2,1,542,25,1,8 distractors,1,1,461
1143,2,1,543,17,1,8 distractors,1,1,414
1144,2,1,544,13,1,4 distractors,1,1,565
1145,2,1,545,13,1,8 distractors,1,1,421
1146,2,1,546,33,0,4 distractors,0,1,926
1147,2,1,547,9,1,4 distractors,1,1,665
1148,2,1,548,13,0,4 distractors,0,1,726
1149,2,1,549,13,1,4 distractors,1,1,412
1150,2,1,550,9,0,8 distractors,0,1,1106
1151,2,1,551,37,0,8 distractors,0,1,1628
1152,2,1,552,21,1,4 distractors,1,1,811
1153,2,1,553,37,0,8 distractors,0,1,644
1154,2,1,554,21,1,4 distractors,1,1,645
1155,2,1,555,37,1,8 distractors,1,1,1487
1156,2,1,556,13,0,4 distractors,0,1,675
1157,2,1,557,9,1,4 distractors,1,1,684
1158,2,1,558,5,0,4 distractors,0,1,625
1159,2,1,559,13,0,8 distractors,0,1,484
1160,2,1,560,21,1,4 distractors,1,1,557
1161,2,1,561,5,1,4 distractors,1,1,627
1162,2,1,562,33,0,4 distractors,0,1,530
1163,2,1,563,13,0,4 distractors,0,1,801
1164,2,1,564,5,1,4 distractors,1,1,880
1165,2,1,565,17,1,8 distractors,1,1,519
1166,2,1,566,5,0,4 distractors,0,1,519
1167,2,1,567,9,0,4 distractors,0,1,878
1168,2,1,568,9,1,8 distractors,1,1,923
1169,2,1,569,17,0,8 distractors,0,1,473
1170,2,1,570,5,1,4 distractors,1,1,753
1171,2,1,571,21,0,4 distractors,0,1,673
1172,2,1,572,25,1,8 distractors,1,1,906
1173,2,1,573,17,1,8 distractors,1,1,868
1174,2,1,574,33,0,4 distractors,0,1,556
1175,2,1,575,9,0,4 distractors,0,1,638
1176,2,1,576,13,1,4 distractors,1,1,609
1177,2,1,577,9,0,8 distractors,0,1,1066
1178,2,1,578,9,0,8 distractors,0,1,1091
1179,2,1,579,5,1,4 distractors,1,1,747
1180,2,1,580,13,1,4 distractors,1,1,505
1181,2,1,581,13,0,8 distractors,0,1,518
1182,2,1,582,5,0,4 distractors,0,1,610
1183,2,1,583,33,1,4 distractors,1,1,578
1184,2,1,584,13,0,8 distractors,0,1,460
1185,2,1,585,9,1,8 distractors,1,1,1365
1186,2,1,586,9,0,8 distractors,0,1,678
1187,2,1,587,13,1,8 distractors,1,1,853
1188,2,1,588,9,0,8 distractors,0,1,1082
1189,2,1,589,25,0,8 distractors,0,1,719
1190,2,1,590,21,1,4 distractors,1,1,458
1191,2,1,591,13,0,4 distractors,0,1,1007
1192,2,1,592,13,1,4 distractors,1,1,792
1193,2,1,593,13,0,4 distractors,0,1,531
1194,2,1,594,21,1,4 distractors,1,1,681
1195,2,1,595,25,1,8 distractors,1,1,478
1196,2,1,596,37,0,8 distractors,0,1,751
1197,2,1,597,13,0,8 distractors,0,1,1496
1198,2,1,598,9,1,4 distractors,1,1,568
1199,2,1,599,13,1,8 distractors,1,1,1150
1200,2,1,600,5,0,4 distractors,0,1,552
1201,3,1,1,13,1,8 distractors,3,0,4997
1202,3,1,2,17,1,8 distractors,1,1,1316
1203,3,1,3,13,1,4 distractors,1,1,749
1204,3,1,4,13,0,8 distractors,0,1,1004
1205,3,1,5,17,0,8 distractors,0,1,1094
1206,3,1,6,25,0,8 distractors,0,1,1727
1207,3,1,7,13,1,4 distractors,1,1,1697
1208,3,1,8,9,0,8 distractors,0,1,1475
1209,3,1,9,21,1,4 distractors,1,1,705
1210,3,1,10,37,0,8 distractors,0,1,1092
1211,3,1,11,13,0,8 distractors,0,1,1889
1212,3,1,12,33,0,4 distractors,0,1,1275
1213,3,1,13,33,0,4 distractors,0,1,1221
1214,3,1,14,5,1,4 distractors,1,1,1045
1215,3,1,15,13,0,8 distractors,0,1,757
1216,3,1,16,9,0,4 distractors,0,1,1487
1217,3,1,17,21,1,4 distractors,1,1,1163
1218,3,1,18,9,0,8 distractors,0,1,721
1219,3,1,19,17,1,8 distractors,1,1,1169
1220,3,1,20,33,0,4 distractors,0,1,1307
1221,3,1,21,37,1,8 distractors,1,1,1295
1222,3,1,22,13,0,4 distractors,0,1,964
1223,3,1,23,33,0,4 distractors,0,1,577
1224,3,1,24,13,0,8 distractors,0,1,1101
1225,3,1,25,21,0,4 distractors,0,1,638
1226,3,1,26,17,1,8 distractors,1,1,593
1227,3,1,27,25,1,8 distractors,1,1,1596
1228,3,1,28,13,1,8 distractors,1,1,1683
1229,3,1,29,5,0,4 distractors,0,1,854
1230,3,1,30,13,1,4 distractors,1,1,973
1231,3,1,31,21,0,4 distractors,0,1,551
1232,3,1,32,21,1,4 distractors,1,1,975
1233,3,1,33,9,0,4 distractors,0,1,586
1234,3,1,34,5,1,4 distractors,1,1,550
1235,3,1,35,5,1,4 distractors,1,1,599
1236,3,1,36,17,1,8 distractors,1,1,716
1237,3,1,37,13,0,8 distractors,0,1,1328
1238,3,1,38,33,1,4 distractors,1,1,771
1239,3,1,39,21,1,4 distractors,1,1,1473
1240,3,1,40,17,1,8 distractors,1,1,1063
1241,3,1,41,5,0,4 distractors,0,1,643
1242,3,1,42,21,1,4 distractors,1,1,1092
1243,3,1,43,17,1,8 distractors,1,1,1279
1244,3,1,44,37,1,8 distractors,1,1,1215
1245,3,1,45,33,1,4 distractors,1,1,1317
1246,3,1,46,9,0,8 distractors,0,1,730
1247,3,1,47,9,1,4 distractors,1,1,551
1248,3,1,48,17,0,8 distractors,0,1,1624
1249,3,1,49,21,0,4 distractors,0,1,1297
1250,3,1,50,21,0,4 distractors,0,1,870
1251,3,1,51,25,1,8 distractors,1,1,1410
1252,3,1,52,37,1,8 distractors,1,1,1787
1253,3,1,53,9,1,4 distractors,1,1,1236
1254,3,1,54,9,0,8 distractors,0,1,1380
1255,3,1,55,13,1,4 distractors,1,1,786
1256,3,1,56,25,0,8 distractors,0,1,1587
1257,3,1,57,17,1,8 distractors,1,1,1543
1258,3,1,58,13,0,4 distractors,0,1,1109
1259,3,1,59,21,0,4 distractors,0,1,967
1260,3,1,60,5,0,4 distractors,0,1,1049
1261,3,1,61,37,0,8 distractors,0,1,1024
1262,3,1,62,33,1,4 distractors,1,1,733
1263,3,1,63,17,1,8 distractors,1,1,1117
1264,3,1,64,13,0,4 distractors,0,1,603
1265,3,1,65,5,1,4 distractors,1,1,828
1266,3,1,66,13,1,4 distractors,1,1,1548
1267,3,1,67,25,1,8 distractors,1,1,930
1268,3,1,68,37,0,8 distractors,0,1,1787
1269,3,1,69,5,0,4 distractors,0,1,773
1270,3,1,70,9,1,4 distractors,1,1,1302
1271,3,1,71,33,0,4 distractors,0,1,798
1272,3,1,72,9,0,4 distractors,0,1,718
1273,3,1,73,37,1,8 distractors,1,1,1372
1274,3,1,74,9,0,8 distractors,0,1,1214
1275,3,1,75,17,0,8 distractors,0,1,1022
1276,3,1,76,13,0,8 distractors,0,1,1427
1277,3,1,77,13,1,4 distractors,1,1,601
1278,3,1,78,25,0,8 distractors,0,1,549
1279,3,1,79,13,0,4 distractors,0,1,546
1280,3,1,80,33,1,4 distractors,1,1,857
1281,3,1,81,9,1,8 distractors,1,1,710
1282,3,1,82,5,1,4 distractors,1,1,629
1283,3,1,83,9,1,8 distractors,1,1,1145
1284,3,1,84,9,0,4 distractors,0,1,699
1285,3,1,85,37,1,8 distractors,1,1,1296
1286,3,1,86,25,0,8 distractors,0,1,650
1287,3,1,87,13,1,8 distractors,1,1,1100
1288,3,1,88,9,1,4 distractors,1,1,921
1289,3,1,89,13,1,8 distractors,1,1,673
1290,3,1,90,37,0,8 distractors,0,1,1349
1291,3,1,91,17,1,8 distractors,1,1,1068
1292,3,1,92,17,1,8 distractors,1,1,1050
1293,3,1,93,25,1,8 distractors,1,1,617
1294,3,1,94,33,0,4 distractors,0,1,1306
1295,3,1,95,13,1,4 distractors,1,1,1215
1296,3,1,96,17,0,8 distractors,0,1,1138
1297,3,1,97,25,0,8 distractors,0,0,1619
1298,3,1,98,5,0,4 distractors,0,1,1047
1299,3,1,99,25,0,8 distractors,0,1,1320
1300,3,1,100,21,0,4 distractors,0,1,770
1301,3,1,101,17,0,8 distractors,0,1,926
1302,3,1,102,33,0,4 distractors,0,1,785
1303,3,1,103,17,0,8 distractors,0,1,1255
1304,3,1,104,33,1,4 distractors,1,1,615
1305,3,1,105,21,1,4 distractors,1,1,1295
1306,3,1,106,21,1,4 distractors,1,1,1257
1307,3,1,107,37,1,8 distractors,1,1,711
1308,3,1,108,5,1,4 distractors,1,1,766
1309,3,1,109,13,0,8 distractors,0,1,1717
1310,3,1,110,37,1,8 distractors,1,1,1346
1311,3,1,111,33,0,4 distractors,0,1,725
1312,3,1,112,33,0,4 distractors,0,1,761
1313,3,1,113,37,0,8 distractors,0,1,860
1314,3,1,114,17,0,8 distractors,0,1,1212
1315,3,1,115,5,1,4 distractors,1,1,730
1316,3,1,116,13,0,8 distractors,0,1,1096
1317,3,1,117,9,0,4 distractors,0,1,1237
1318,3,1,118,5,1,4 distractors,1,1,605
1319,3,1,119,13,0,4 distractors,0,1,966
1320,3,1,120,25,1,8 distractors,1,1,976
1321,3,1,121,25,0,8 distractors,0,1,1480
1322,3,1,122,9,0,4 distractors,0,1,780
1323,3,1,123,37,0,8 distractors,0,1,1263
1324,3,1,124,37,0,8 distractors,0,1,1372
1325,3,1,125,33,1,4 distractors,1,1,749
1326,3,1,126,5,0,4 distractors,0,1,1057
1327,3,1,127,9,1,4 distractors,1,1,1357
1328,3,1,128,37,1,8 distractors,1,1,772
1329,3,1,129,21,0,4 distractors,0,1,1005
1330,3,1,130,33,0,4 distractors,0,1,847
1331,3,1,131,5,0,4 distractors,0,1,761
1332,3,1,132,9,0,4 distractors,0,1,1000
1333,3,1,133,13,1,8 distractors,1,1,666
1334,3,1,134,21,0,4 distractors,0,1,1050
1335,3,1,135,33,1,4 distractors,1,1,690
1336,3,1,136,13,0,8 distractors,0,1,575
1337,3,1,137,37,1,8 distractors,1,1,1428
1338,3,1,138,33,0,4 distractors,0,1,905
1339,3,1,139,21,0,4 distractors,0,1,1351
1340,3,1,140,17,0,8 distractors,0,1,1287
1341,3,1,141,9,1,4 distractors,1,1,959
1342,3,1,142,21,1,4 distractors,1,1,931
1343,3,1,143,21,0,4 distractors,0,1,1292
1344,3,1,144,33,1,4 distractors,1,1,1390
1345,3,1,145,25,0,8 distractors,0,1,1854
1346,3,1,146,33,1,4 distractors,1,1,1039
1347,3,1,147,17,1,8 distractors,1,1,706
1348,3,1,148,21,1,4 distractors,1,1,801
1349,3,1,149,25,1,8 distractors,1,1,996
1350,3,1,150,37,1,8 distractors,1,1,653
1351,3,1,151,33,1,4 distractors,1,1,623
1352,3,1,152,13,1,4 distractors,1,1,774
1353,3,1,153,33,1,4 distractors,1,1,953
1354,3,1,154,37,1,8 distractors,1,1,474
1355,3,1,155,17,1,8 distractors,1,1,1753
1356,3,1,156,21,1,4 distractors,1,1,579
1357,3,1,157,21,1,4 distractors,1,1,777
1358,3,1,158,21,1,4 distractors,1,1,512
1359,3,1,159,25,1,8 distractors,1,1,1075
1360,3,1,160,13,0,4 distractors,0,1,1374
1361,3,1,161,37,0,8 distractors,0,1,881
1362,3,1,162,13,1,4 distractors,1,1,1303
1363,3,1,163,5,0,4 distractors,0,1,1072
1364,3,1,164,37,0,8 distractors,0,1,1968
1365,3,1,165,9,1,8 distractors,1,1,772
1366,3,1,166,33,1,4 distractors,1,1,898
1367,3,1,167,5,1,4 distractors,1,1,677
1368,3,1,168,13,1,4 distractors,1,1,565
1369,3,1,169,13,0,8 distractors,0,1,1567
1370,3,1,170,25,1,8 distractors,1,1,1142
1371,3,1,171,33,0,4 distractors,0,1,1032
1372,3,1,172,9,1,4 distractors,1,1,777
1373,3,1,173,13,0,8 distractors,0,1,669
1374,3,1,174,33,0,4 distractors,0,1,572
1375,3,1,175,9,1,8 distractors,1,1,926
1376,3,1,176,21,0,4 distractors,0,1,965
1377,3,1,177,9,1,8 distractors,1,1,962
1378,3,1,178,5,1,4 distractors,1,1,634
1379,3,1,179,5,1,4 distractors,1,1,702
1380,3,1,180,17,1,8 distractors,1,1,708
1381,3,1,181,9,0,8 distractors,0,1,805
1382,3,1,182,25,0,8 distractors,0,1,1037
1383,3,1,183,17,0,8 distractors,0,1,702
1384,3,1,184,17,1,8 distractors,1,1,2172
1385,3,1,185,25,0,8 distractors,0,1,1019
1386,3,1,186,5,0,4 distractors,0,1,722
1387,3,1,187,9,1,8 distractors,1,1,1000
1388,3,1,188,33,1,4 distractors,1,1,706
1389,3,1,189,9,1,4 distractors,1,1,1010
1390,3,1,190,37,0,8 distractors,0,1,2700
1391,3,1,191,17,0,8 distractors,0,1,709
1392,3,1,192,33,1,4 distractors,1,1,1262
1393,3,1,193,37,0,8 distractors,0,1,1422
1394,3,1,194,21,1,4 distractors,1,1,765
1395,3,1,195,37,1,8 distractors,1,1,1289
1396,3,1,196,25,1,8 distractors,1,1,2081
1397,3,1,197,33,0,4 distractors,0,1,827
1398,3,1,198,17,1,8 distractors,1,1,838
1399,3,1,199,9,1,8 distractors,1,1,1837
1400,3,1,200,37,1,8 distractors,1,1,945
1401,3,1,201,13,1,4 distractors,1,1,765
1402,3,1,202,13,1,4 distractors,1,1,585
1403,3,1,203,33,1,4 distractors,1,1,557
1404,3,1,204,17,1,8 distractors,1,1,1064
1405,3,1,205,25,0,8 distractors,0,1,838
1406,3,1,206,17,0,8 distractors,0,1,1334
1407,3,1,207,13,0,4 distractors,0,1,957
1408,3,1,208,17,1,8 distractors,1,1,721
1409,3,1,209,25,0,8 distractors,0,1,1348
1410,3,1,210,13,1,4 distractors,1,1,883
1411,3,1,211,21,1,4 distractors,1,1,1706
1412,3,1,212,25,1,8 distractors,1,1,744
1413,3,1,213,5,1,4 distractors,1,1,1226
1414,3,1,214,9,1,8 distractors,1,1,772
1415,3,1,215,13,1,4 distractors,1,1,780
1416,3,1,216,9,0,8 distractors,0,1,1024
1417,3,1,217,25,1,8 distractors,1,1,1587
1418,3,1,218,13,0,4 distractors,0,1,1384
1419,3,1,219,13,1,4 distractors,1,1,556
1420,3,1,220,21,1,4 distractors,1,1,873
1421,3,1,221,21,0,4 distractors,0,1,944
1422,3,1,222,25,1,8 distractors,1,1,680
1423,3,1,223,17,1,8 distractors,1,1,659
1424,3,1,224,5,0,4 distractors,0,1,664
1425,3,1,225,13,1,8 distractors,1,1,1114
1426,3,1,226,13,0,8 distractors,0,1,1083
1427,3,1,227,13,0,4 distractors,0,1,1303
1428,3,1,228,13,0,4 distractors,0,1,1268
1429,3,1,229,33,0,4 distractors,0,1,669
1430,3,1,230,9,1,4 distractors,1,0,690
1431,3,1,231,13,0,4 distractors,0,1,725
1432,3,1,232,5,1,4 distractors,1,1,962
1433,3,1,233,33,0,4 distractors,0,1,592
1434,3,1,234,9,1,8 distractors,1,1,867
1435,3,1,235,21,0,4 distractors,0,1,700
1436,3,1,236,9,0,8 distractors,0,1,1139
1437,3,1,237,5,1,4 distractors,1,1,645
1438,3,1,238,33,0,4 distractors,0,1,907
1439,3,1,239,5,0,4 distractors,0,1,642
1440,3,1,240,21,1,4 distractors,1,1,1365
1441,3,1,241,9,1,8 distractors,1,1,1215
1442,3,1,242,17,0,8 distractors,0,1,1651
1443,3,1,243,21,1,4 distractors,1,1,589
1444,3,1,244,13,0,8 distractors,0,1,1392
1445,3,1,245,9,1,8 distractors,1,1,1077
1446,3,1,246,9,1,4 distractors,1,1,1005
1447,3,1,247,37,1,8 distractors,1,1,1327
1448,3,1,248,13,1,8 distractors,1,1,513
1449,3,1,249,13,1,8 distractors,1,1,947
1450,3,1,250,33,0,4 distractors,0,1,598
1451,3,1,251,37,0,8 distractors,0,1,1295
1452,3,1,252,9,0,4 distractors,0,1,756
1453,3,1,253,5,0,4 distractors,0,1,3007
1454,3,1,254,17,0,8 distractors,0,1,1013
1455,3,1,255,13,0,4 distractors,0,1,887
1456,3,1,256,33,1,4 distractors,1,1,556
1457,3,1,257,5,0,4 distractors,0,1,621
1458,3,1,258,25,0,8 distractors,0,1,636
1459,3,1,259,25,0,8 distractors,0,1,859
1460,3,1,260,13,1,8 distractors,1,1,629
1461,3,1,261,37,1,8 distractors,1,1,794
1462,3,1,262,9,1,8 distractors,1,1,1245
1463,3,1,263,9,1,8 distractors,1,1,1021
1464,3,1,264,9,0,8 distractors,0,1,1185
1465,3,1,265,9,0,8 distractors,0,1,847
1466,3,1,266,13,1,4 distractors,1,1,528
1467,3,1,267,13,1,8 distractors,1,1,947
1468,3,1,268,17,0,8 distractors,0,1,770
1469,3,1,269,21,0,4 distractors,0,1,986
1470,3,1,270,17,1,8 distractors,1,1,561
1471,3,1,271,5,0,4 distractors,0,1,1017
1472,3,1,272,9,0,8 distractors,0,1,1218
1473,3,1,273,17,0,8 distractors,0,1,2013
1474,3,1,274,25,1,8 distractors,1,1,1103
1475,3,1,275,13,1,4 distractors,1,1,998
1476,3,1,276,37,0,8 distractors,0,1,1587
1477,3,1,277,25,1,8 distractors,1,1,1891
1478,3,1,278,33,1,4 distractors,1,1,553
1479,3,1,279,13,1,8 distractors,1,1,709
1480,3,1,280,13,1,8 distractors,1,1,763
1481,3,1,281,9,0,4 distractors,0,1,1610
1482,3,1,282,25,0,8 distractors,0,1,929
1483,3,1,283,13,0,8 distractors,0,1,537
1484,3,1,284,25,1,8 distractors,1,1,1468
1485,3,1,285,9,0,8 distractors,0,1,1552
1486,3,1,286,9,0,4 distractors,0,1,908
1487,3,1,287,25,1,8 distractors,1,1,838
1488,3,1,288,33,1,4 distractors,1,1,451
1489,3,1,289,9,1,8 distractors,1,1,1504
1490,3,1,290,25,0,8 distractors,0,1,1371
1491,3,1,291,21,0,4 distractors,0,1,1165
1492,3,1,292,37,0,8 distractors,0,1,1152
1493,3,1,293,17,0,8 distractors,0,1,716
1494,3,1,294,21,1,4 distractors,1,1,710
1495,3,1,295,37,1,8 distractors,1,1,525
1496,3,1,296,37,1,8 distractors,1,1,614
1497,3,1,297,5,0,4 distractors,0,1,603
1498,3,1,298,37,0,8 distractors,0,1,586
1499,3,1,299,13,0,4 distractors,0,1,475
1500,3,1,300,37,1,8 distractors,1,1,1294
1501,3,1,301,17,0,8 distractors,0,1,1103
1502,3,1,302,5,0,4 distractors,0,1,649
1503,3,1,303,13,0,8 distractors,0,1,1157
1504,3,1,304,5,0,4 distractors,0,1,534
1505,3,1,305,21,1,4 distractors,1,1,593
1506,3,1,306,13,0,8 distractors,0,1,962
1507,3,1,307,13,0,4 distractors,0,1,741
1508,3,1,308,9,1,8 distractors,1,1,778
1509,3,1,309,21,0,4 distractors,0,1,790
1510,3,1,310,21,1,4 distractors,1,1,1343
1511,3,1,311,9,0,4 distractors,0,1,1037
1512,3,1,312,21,0,4 distractors,0,1,907
1513,3,1,313,13,0,4 distractors,0,1,1201
1514,3,1,314,37,1,8 distractors,1,1,1122
1515,3,1,315,33,0,4 distractors,0,1,797
1516,3,1,316,13,0,4 distractors,0,1,542
1517,3,1,317,9,1,8 distractors,1,1,858
1518,3,1,318,17,1,8 distractors,1,1,1468
1519,3,1,319,37,1,8 distractors,1,1,801
1520,3,1,320,21,1,4 distractors,1,1,887
1521,3,1,321,13,0,4 distractors,0,1,1111
1522,3,1,322,37,0,8 distractors,0,1,2247
1523,3,1,323,13,1,8 distractors,1,1,693
1524,3,1,324,33,1,4 distractors,1,1,1757
1525,3,1,325,13,1,4 distractors,1,1,441
1526,3,1,326,21,1,4 distractors,1,1,728
1527,3,1,327,9,1,4 distractors,1,1,793
1528,3,1,328,13,1,8 distractors,1,1,2199
1529,3,1,329,13,0,4 distractors,0,1,679
1530,3,1,330,13,1,8 distractors,1,1,1077
1531,3,1,331,37,0,8 distractors,0,1,881
1532,3,1,332,33,1,4 distractors,1,1,1192
1533,3,1,333,9,0,8 distractors,0,1,2021
1534,3,1,334,17,1,8 distractors,1,1,1405
1535,3,1,335,25,0,8 distractors,0,1,1336
1536,3,1,336,17,1,8 distractors,1,1,1229
1537,3,1,337,5,1,4 distractors,1,1,494
1538,3,1,338,13,0,8 distractors,0,1,1131
1539,3,1,339,9,0,4 distractors,0,1,507
1540,3,1,340,33,1,4 distractors,1,1,1154
1541,3,1,341,37,1,8 distractors,1,1,2109
1542,3,1,342,25,1,8 distractors,1,1,699
1543,3,1,343,13,0,8 distractors,0,1,1398
1544,3,1,344,21,1,4 distractors,1,1,566
1545,3,1,345,21,1,4 distractors,1,1,1174
1546,3,1,346,21,0,4 distractors,0,1,659
1547,3,1,347,9,0,8 distractors,0,1,1014
1548,3,1,348,9,1,8 distractors,1,1,1773
1549,3,1,349,5,1,4 distractors,1,1,2863
1550,3,1,350,9,1,4 distractors,1,1,554
1551,3,1,351,25,0,8 distractors,0,1,1814
1552,3,1,352,37,1,8 distractors,1,1,748
1553,3,1,353,13,0,8 distractors,0,1,1558
1554,3,1,354,33,1,4 distractors,1,1,909
1555,3,1,355,9,1,4 distractors,1,1,1056
1556,3,1,356,17,1,8 distractors,1,1,1360
1557,3,1,357,9,0,4 distractors,0,1,1348
1558,3,1,358,21,0,4 distractors,0,1,1309
1559,3,1,359,17,0,8 distractors,0,1,1370
1560,3,1,360,13,0,8 distractors,0,1,1460
1561,3,1,361,13,0,8 distractors,0,1,713
1562,3,1,362,5,1,4 distractors,1,1,1180
1563,3,1,363,21,0,4 distractors,0,1,1596
1564,3,1,364,9,1,8 distractors,1,1,1698
1565,3,1,365,13,1,8 distractors,1,1,1854
1566,3,1,366,21,1,4 distractors,1,1,3464
1567,3,1,367,33,1,4 distractors,1,1,558
1568,3,1,368,17,1,8 distractors,1,1,1133
1569,3,1,369,17,0,8 distractors,0,1,2464
1570,3,1,370,9,0,4 distractors,0,1,1042
1571,3,1,371,13,0,4 distractors,0,1,1012
1572,3,1,372,9,1,8 distractors,1,1,699
1573,3,1,373,9,0,4 distractors,0,1,1025
1574,3,1,374,25,1,8 distractors,1,1,1725
1575,3,1,375,33,0,4 distractors,0,1,547
1576,3,1,376,9,0,8 distractors,0,1,1274
1577,3,1,377,21,1,4 distractors,1,1,1169
1578,3,1,378,25,1,8 distractors,1,1,893
1579,3,1,379,17,0,8 distractors,0,1,1363
1580,3,1,380,17,1,8 distractors,1,1,1387
1581,3,1,381,13,1,4 distractors,1,1,1151
1582,3,1,382,13,1,4 distractors,1,1,1928
1583,3,1,383,13,0,8 distractors,0,1,611
1584,3,1,384,9,1,8 distractors,1,1,730
1585,3,1,385,17,0,8 distractors,0,1,1417
1586,3,1,386,9,0,4 distractors,0,1,575
1587,3,1,387,13,0,8 distractors,0,1,788
1588,3,1,388,33,0,4 distractors,0,1,1434
1589,3,1,389,13,0,4 distractors,0,1,649
1590,3,1,390,13,0,4 distractors,0,1,864
1591,3,1,391,33,0,4 distractors,0,1,696
1592,3,1,392,9,0,8 distractors,0,1,1167
1593,3,1,393,9,0,4 distractors,0,1,872
1594,3,1,394,13,1,4 distractors,1,1,908
1595,3,1,395,21,0,4 distractors,0,1,1119
1596,3,1,396,9,0,4 distractors,0,1,991
1597,3,1,397,9,1,8 distractors,1,1,1563
1598,3,1,398,9,0,4 distractors,0,1,4979
1599,3,1,399,25,1,8 distractors,1,1,1187
1600,3,1,400,13,0,4 distractors,0,1,1299
1601,3,1,401,25,0,8 distractors,0,1,852
1602,3,1,402,37,0,8 distractors,0,1,612
1603,3,1,403,9,0,8 distractors,0,1,1013
1604,3,1,404,13,1,8 distractors,1,1,1116
1605,3,1,405,13,1,8 distractors,1,0,1124
1606,3,1,406,5,1,4 distractors,1,1,1167
1607,3,1,407,9,0,8 distractors,0,1,2089
1608,3,1,408,37,0,8 distractors,0,1,662
1609,3,1,409,37,0,8 distractors,0,1,1082
1610,3,1,410,25,1,8 distractors,1,1,1329
1611,3,1,411,37,0,8 distractors,0,1,782
1612,3,1,412,21,1,4 distractors,1,1,3113
1613,3,1,413,17,1,8 distractors,1,1,561
1614,3,1,414,17,0,8 distractors,0,1,2005
1615,3,1,415,5,1,4 distractors,1,1,1211
1616,3,1,416,21,0,4 distractors,0,1,637
1617,3,1,417,17,1,8 distractors,1,1,698
1618,3,1,418,21,1,4 distractors,1,1,1928
1619,3,1,419,37,0,8 distractors,0,1,1069
1620,3,1,420,37,1,8 distractors,1,1,2868
1621,3,1,421,9,1,4 distractors,1,1,777
1622,3,1,422,5,0,4 distractors,0,1,753
1623,3,1,423,21,1,4 distractors,1,1,939
1624,3,1,424,21,0,4 distractors,0,1,1427
1625,3,1,425,13,1,4 distractors,1,1,1660
1626,3,1,426,37,1,8 distractors,1,1,902
1627,3,1,427,9,1,4 distractors,1,1,754
1628,3,1,428,9,0,8 distractors,0,1,1327
1629,3,1,429,33,0,4 distractors,0,1,1371
1630,3,1,430,25,0,8 distractors,0,1,779
1631,3,1,431,21,0,4 distractors,0,1,1102
1632,3,1,432,37,0,8 distractors,0,1,1257
1633,3,1,433,21,0,4 distractors,0,1,1412
1634,3,1,434,9,0,8 distractors,0,1,1857
1635,3,1,435,25,1,8 distractors,1,1,675
1636,3,1,436,37,0,8 distractors,0,1,783
1637,3,1,437,5,0,4 distractors,0,1,855
1638,3,1,438,9,0,4 distractors,0,1,903
1639,3,1,439,17,1,8 distractors,1,1,1474
1640,3,1,440,25,0,8 distractors,0,1,2114
1641,3,1,441,13,1,4 distractors,1,1,1018
1642,3,1,442,13,0,8 distractors,0,1,907
1643,3,1,443,13,0,4 distractors,0,1,586
1644,3,1,444,17,0,8 distractors,0,1,720
1645,3,1,445,9,0,8 distractors,0,0,598
1646,3,1,446,37,0,8 distractors,0,1,996
1647,3,1,447,9,0,4 distractors,0,1,631
1648,3,1,448,13,0,4 distractors,0,1,872
1649,3,1,449,25,0,8 distractors,0,1,810
1650,3,1,450,13,1,4 distractors,1,1,889
1651,3,1,451,13,1,8 distractors,1,1,1622
1652,3,1,452,37,1,8 distractors,1,1,877
1653,3,1,453,37,0,8 distractors,0,1,1132
1654,3,1,454,9,0,8 distractors,0,1,669
1655,3,1,455,9,1,4 distractors,1,1,510
1656,3,1,456,33,1,4 distractors,1,1,792
1657,3,1,457,13,1,8 distractors,1,1,2086
1658,3,1,458,9,0,4 distractors,0,1,827
1659,3,1,459,13,0,4 distractors,0,1,1385
1660,3,1,460,13,0,4 distractors,0,1,1061
1661,3,1,461,9,0,4 distractors,0,1,1048
1662,3,1,462,25,1,8 distractors,1,1,1618
1663,3,1,463,13,1,4 distractors,1,1,661
1664,3,1,464,13,1,8 distractors,1,1,541
1665,3,1,465,37,1,8 distractors,1,1,1125
1666,3,1,466,37,1,8 distractors,1,1,1055
1667,3,1,467,33,1,4 distractors,1,1,1040
1668,3,1,468,9,0,4 distractors,0,1,785
1669,3,1,469,13,0,8 distractors,0,1,821
1670,3,1,470,9,0,8 distractors,0,1,726
1671,3,1,471,13,1,8 distractors,1,1,660
1672,3,1,472,5,0,4 distractors,0,1,580
1673,3,1,473,25,1,8 distractors,1,1,1359
1674,3,1,474,9,0,4 distractors,0,1,2168
1675,3,1,475,9,1,8 distractors,1,1,1107
1676,3,1,476,5,0,4 distractors,0,1,1261
1677,3,1,477,37,1,8 distractors,1,1,1981
1678,3,1,478,13,0,4 distractors,0,1,1174
1679,3,1,479,5,0,4 distractors,0,1,2026
1680,3,1,480,5,1,4 distractors,1,1,705
1681,3,1,481,25,0,8 distractors,0,1,1764
1682,3,1,482,5,1,4 distractors,1,1,523
1683,3,1,483,5,0,4 distractors,0,1,729
1684,3,1,484,13,1,4 distractors,1,1,844
1685,3,1,485,13,1,8 distractors,1,1,881
1686,3,1,486,13,1,8 distractors,1,1,1180
1687,3,1,487,9,1,8 distractors,1,1,772
1688,3,1,488,5,1,4 distractors,1,1,1394
1689,3,1,489,9,1,8 distractors,1,1,2741
1690,3,1,490,9,1,8 distractors,1,1,651
1691,3,1,491,13,0,8 distractors,0,1,1115
1692,3,1,492,9,1,4 distractors,1,1,996
1693,3,1,493,9,0,4 distractors,0,1,660
1694,3,1,494,5,0,4 distractors,0,1,1791
1695,3,1,495,9,1,4 distractors,1,1,1123
1696,3,1,496,9,0,4 distractors,0,1,1403
1697,3,1,497,33,1,4 distractors,1,1,994
1698,3,1,498,13,0,8 distractors,0,1,4737
1699,3,1,499,5,0,4 distractors,0,1,575
1700,3,1,500,13,0,8 distractors,0,1,1087
1701,3,1,501,13,1,8 distractors,1,1,526
1702,3,1,502,9,1,4 distractors,1,1,708
1703,3,1,503,25,1,8 distractors,1,1,1094
1704,3,1,504,17,0,8 distractors,0,1,1105
1705,3,1,505,13,1,4 distractors,1,1,1487
1706,3,1,506,13,0,4 distractors,0,1,1004
1707,3,1,507,9,0,4 distractors,0,1,686
1708,3,1,508,17,0,8 distractors,0,1,947
1709,3,1,509,5,1,4 distractors,1,1,906
1710,3,1,510,9,0,8 distractors,0,1,607
1711,3,1,511,25,0,8 distractors,0,1,1593
1712,3,1,512,25,0,8 distractors,0,1,1343
1713,3,1,513,13,1,4 distractors,1,1,983
1714,3,1,514,17,0,8 distractors,0,1,674
1715,3,1,515,13,1,8 distractors,1,1,1476
1716,3,1,516,5,0,4 distractors,0,1,734
1717,3,1,517,9,0,8 distractors,0,1,1139
1718,3,1,518,9,1,8 distractors,1,1,1193
1719,3,1,519,5,1,4 distractors,1,1,634
1720,3,1,520,33,1,4 distractors,1,1,996
1721,3,1,521,9,0,4 distractors,0,1,1305
1722,3,1,522,13,1,8 distractors,1,1,585
1723,3,1,523,25,0,8 distractors,0,1,1518
1724,3,1,524,37,0,8 distractors,0,1,2521
1725,3,1,525,21,0,4 distractors,0,1,1088
1726,3,1,526,9,0,8 distractors,0,1,1110
1727,3,1,527,21,1,4 distractors,1,1,569
1728,3,1,528,5,0,4 distractors,0,1,945
1729,3,1,529,5,0,4 distractors,0,1,857
1730,3,1,530,17,1,8 distractors,1,1,901
1731,3,1,531,25,1,8 distractors,1,1,1287
1732,3,1,532,37,1,8 distractors,1,1,1137
1733,3,1,533,21,0,4 distractors,0,1,805
1734,3,1,534,9,1,4 distractors,1,1,975
1735,3,1,535,9,1,4 distractors,1,1,1022
1736,3,1,536,37,0,8 distractors,0,1,1332
1737,3,1,537,25,1,8 distractors,1,1,680
1738,3,1,538,9,1,8 distractors,1,1,1377
1739,3,1,539,13,1,8 distractors,1,1,1390
1740,3,1,540,25,0,8 distractors,0,1,694
1741,3,1,541,33,1,4 distractors,1,1,1078
1742,3,1,542,9,0,8 distractors,0,1,638
1743,3,1,543,9,0,8 distractors,0,1,1547
1744,3,1,544,9,1,4 distractors,1,1,1022
1745,3,1,545,37,0,8 distractors,0,1,728
1746,3,1,546,9,1,4 distractors,1,1,888
1747,3,1,547,13,1,4 distractors,1,1,607
1748,3,1,548,33,1,4 distractors,1,1,1358
1749,3,1,549,33,0,4 distractors,0,1,797
1750,3,1,550,9,0,8 distractors,0,1,711
1751,3,1,551,21,0,4 distractors,0,1,715
1752,3,1,552,9,1,4 distractors,1,1,1180
1753,3,1,553,33,0,4 distractors,0,1,554
1754,3,1,554,5,1,4 distractors,1,1,616
1755,3,1,555,17,0,8 distractors,0,1,1339
1756,3,1,556,5,1,4 distractors,1,1,708
1757,3,1,557,25,1,8 distractors,1,1,987
1758,3,1,558,5,1,4 distractors,1,1,712
1759,3,1,559,9,1,4 distractors,1,1,777
1760,3,1,560,17,1,8 distractors,1,1,973
1761,3,1,561,5,1,4 distractors,1,1,637
1762,3,1,562,13,0,4 distractors,0,1,1408
1763,3,1,563,37,1,8 distractors,1,1,559
1764,3,1,564,13,1,8 distractors,1,1,881
1765,3,1,565,25,0,8 distractors,0,1,1490
1766,3,1,566,25,0,8 distractors,0,1,2047
1767,3,1,567,13,0,8 distractors,0,1,1190
1768,3,1,568,9,1,8 distractors,1,1,1414
1769,3,1,569,33,1,4 distractors,1,1,943
1770,3,1,570,33,0,4 distractors,0,1,938
1771,3,1,571,5,1,4 distractors,1,1,1526
1772,3,1,572,17,0,8 distractors,0,1,1407
1773,3,1,573,9,1,4 distractors,1,1,756
1774,3,1,574,13,0,4 distractors,0,1,1353
1775,3,1,575,5,1,4 distractors,1,1,568
1776,3,1,576,21,0,4 distractors,0,1,862
1777,3,1,577,33,0,4 distractors,0,1,984
1778,3,1,578,9,1,8 distractors,1,1,988
1779,3,1,579,33,0,4 distractors,0,1,594
1780,3,1,580,5,0,4 distractors,0,1,832
1781,3,1,581,9,0,8 distractors,0,1,635
1782,3,1,582,25,1,8 distractors,1,1,1006
1783,3,1,583,9,1,4 distractors,1,1,1055
1784,3,1,584,13,1,8 distractors,1,1,1130
1785,3,1,585,9,1,4 distractors,1,1,1620
1786,3,1,586,21,0,4 distractors,0,1,1026
1787,3,1,587,9,1,4 distractors,1,1,954
1788,3,1,588,9,1,4 distractors,1,1,2291
1789,3,1,589,13,1,4 distractors,1,1,816
1790,3,1,590,9,0,4 distractors,0,1,483
1791,3,1,591,5,0,4 distractors,0,0,440
1792,3,1,592,33,0,4 distractors,0,1,557
1793,3,1,593,17,0,8 distractors,0,1,693
1794,3,1,594,13,0,8 distractors,0,1,1838
1795,3,1,595,25,1,8 distractors,1,1,1803
1796,3,1,596,33,0,4 distractors,0,1,693
1797,3,1,597,25,0,8 distractors,0,1,1259
1798,3,1,598,9,1,8 distractors,1,1,1020
1799,3,1,599,17,0,8 distractors,0,1,1184
1800,3,1,600,37,0,8 distractors,0,1,1702
1801,4,1,1,13,1,8 distractors,1,1,1243
1802,4,1,2,9,1,8 distractors,1,1,1679
1803,4,1,3,17,0,8 distractors,0,1,3394
1804,4,1,4,21,1,4 distractors,1,1,1010
1805,4,1,5,5,1,4 distractors,1,1,819
1806,4,1,6,33,0,4 distractors,0,1,790
1807,4,1,7,33,0,4 distractors,0,1,2139
1808,4,1,8,9,0,8 distractors,0,1,1135
1809,4,1,9,13,1,8 distractors,1,1,1052
1810,4,1,10,33,1,4 distractors,1,1,1788
1811,4,1,11,13,0,8 distractors,0,1,1359
1812,4,1,12,37,1,8 distractors,1,1,1184
1813,4,1,13,13,1,4 distractors,1,1,1216
1814,4,1,14,33,0,4 distractors,0,1,1665
1815,4,1,15,21,0,4 distractors,0,1,1014
1816,4,1,16,25,0,8 distractors,0,1,1909
1817,4,1,17,13,0,8 distractors,0,1,688
1818,4,1,18,9,0,8 distractors,0,1,2258
1819,4,1,19,33,1,4 distractors,1,1,909
1820,4,1,20,13,1,4 distractors,1,1,1339
1821,4,1,21,21,0,4 distractors,0,1,747
1822,4,1,22,33,0,4 distractors,0,1,1337
1823,4,1,23,13,1,8 distractors,1,1,749
1824,4,1,24,13,1,8 distractors,1,1,1261
1825,4,1,25,13,1,8 distractors,1,1,1344
1826,4,1,26,17,1,8 distractors,1,1,1585
1827,4,1,27,21,0,4 distractors,0,1,887
1828,4,1,28,9,1,8 distractors,1,1,899
1829,4,1,29,9,0,8 distractors,0,1,944
1830,4,1,30,37,1,8 distractors,1,1,793
1831,4,1,31,5,1,4 distractors,1,1,1064
1832,4,1,32,5,1,4 distractors,1,1,780
1833,4,1,33,9,0,8 distractors,0,1,2079
1834,4,1,34,5,1,4 distractors,1,1,767
1835,4,1,35,5,0,4 distractors,0,1,958
1836,4,1,36,13,1,4 distractors,1,1,2382
1837,4,1,37,5,0,4 distractors,0,1,929
1838,4,1,38,33,1,4 distractors,1,1,1676
1839,4,1,39,25,0,8 distractors,0,1,1758
1840,4,1,40,17,0,8 distractors,0,1,843
1841,4,1,41,37,1,8 distractors,1,1,1330
1842,4,1,42,33,1,4 distractors,1,1,572
1843,4,1,43,25,0,8 distractors,0,1,1553
1844,4,1,44,33,1,4 distractors,1,1,2141
1845,4,1,45,13,1,8 distractors,1,1,1700
1846,4,1,46,13,1,4 distractors,1,1,1101
1847,4,1,47,33,0,4 distractors,0,1,1175
1848,4,1,48,13,1,8 distractors,1,1,1170
1849,4,1,49,13,1,8 distractors,1,1,893
1850,4,1,50,33,1,4 distractors,1,1,771
1851,4,1,51,13,0,4 distractors,0,1,517
1852,4,1,52,9,1,4 distractors,1,1,643
1853,4,1,53,13,0,4 distractors,0,1,1028
1854,4,1,54,21,1,4 distractors,1,1,1173
1855,4,1,55,25,1,8 distractors,1,1,1489
1856,4,1,56,5,0,4 distractors,0,1,740
1857,4,1,57,5,0,4 distractors,0,1,779
1858,4,1,58,5,0,4 distractors,0,1,546
1859,4,1,59,9,1,8 distractors,1,1,1045
1860,4,1,60,9,1,8 distractors,1,1,717
1861,4,1,61,13,1,8 distractors,1,1,778
1862,4,1,62,33,0,4 distractors,0,1,1448
1863,4,1,63,21,0,4 distractors,0,1,699
1864,4,1,64,17,1,8 distractors,1,1,2044
1865,4,1,65,5,0,4 distractors,0,1,949
1866,4,1,66,9,0,8 distractors,0,1,1374
1867,4,1,67,21,0,4 distractors,0,1,1021
1868,4,1,68,5,1,4 distractors,1,1,814
1869,4,1,69,33,0,4 distractors,0,1,863
1870,4,1,70,17,0,8 distractors,0,1,722
1871,4,1,71,9,0,8 distractors,0,1,1626
1872,4,1,72,25,0,8 distractors,0,1,957
1873,4,1,73,9,0,4 distractors,0,1,562
1874,4,1,74,13,1,8 distractors,1,1,1497
1875,4,1,75,17,0,8 distractors,0,1,849
1876,4,1,76,17,1,8 distractors,1,1,1130
1877,4,1,77,33,0,4 distractors,0,1,1297
1878,4,1,78,13,0,4 distractors,0,1,1128
1879,4,1,79,13,1,8 distractors,1,1,1247
1880,4,1,80,13,1,8 distractors,1,1,1546
1881,4,1,81,17,0,8 distractors,0,1,1542
1882,4,1,82,21,1,4 distractors,1,1,1225
1883,4,1,83,13,1,8 distractors,1,1,892
1884,4,1,84,33,1,4 distractors,1,1,655
1885,4,1,85,21,0,4 distractors,0,1,1339
1886,4,1,86,9,0,4 distractors,0,1,928
1887,4,1,87,13,1,8 distractors,1,1,1273
1888,4,1,88,21,0,4 distractors,0,1,555
1889,4,1,89,13,1,4 distractors,1,1,1608
1890,4,1,90,13,0,4 distractors,0,1,583
1891,4,1,91,9,0,4 distractors,0,1,1434
1892,4,1,92,17,1,8 distractors,1,1,1266
1893,4,1,93,37,1,8 distractors,1,1,2230
1894,4,1,94,13,0,4 distractors,0,1,611
1895,4,1,95,33,1,4 distractors,1,1,1329
1896,4,1,96,25,1,8 distractors,1,1,1036
1897,4,1,97,33,0,4 distractors,0,1,1606
1898,4,1,98,33,1,4 distractors,1,1,1889
1899,4,1,99,13,1,4 distractors,1,1,560
1900,4,1,100,37,0,8 distractors,0,1,754
1901,4,1,101,5,0,4 distractors,0,1,934
1902,4,1,102,21,1,4 distractors,1,1,1132
1903,4,1,103,33,1,4 distractors,1,1,917
1904,4,1,104,25,1,8 distractors,1,1,714
1905,4,1,105,9,1,8 distractors,1,1,845
1906,4,1,106,9,0,8 distractors,0,1,2063
1907,4,1,107,37,1,8 distractors,1,1,2294
1908,4,1,108,17,1,8 distractors,1,1,844
1909,4,1,109,37,1,8 distractors,1,1,1855
1910,4,1,110,33,1,4 distractors,1,1,1207
1911,4,1,111,9,1,4 distractors,1,1,461
1912,4,1,112,5,1,4 distractors,1,1,577
1913,4,1,113,9,0,4 distractors,0,1,1941
1914,4,1,114,33,0,4 distractors,0,1,543
1915,4,1,115,13,0,4 distractors,0,1,814
1916,4,1,116,9,1,8 distractors,1,1,1687
1917,4,1,117,33,0,4 distractors,0,1,1866
1918,4,1,118,13,1,8 distractors,1,1,919
1919,4,1,119,5,1,4 distractors,1,1,608
1920,4,1,120,13,0,8 distractors,0,1,1311
1921,4,1,121,13,0,8 distractors,0,1,1091
1922,4,1,122,9,1,4 distractors,1,1,799
1923,4,1,123,17,1,8 distractors,1,1,1273
1924,4,1,124,13,1,8 distractors,1,1,615
1925,4,1,125,37,0,8 distractors,0,1,1447
1926,4,1,126,17,1,8 distractors,1,1,724
1927,4,1,127,33,1,4 distractors,1,1,863
1928,4,1,128,13,1,8 distractors,1,1,963
1929,4,1,129,9,0,4 distractors,0,1,669
1930,4,1,130,13,0,4 distractors,0,1,1115
1931,4,1,131,25,0,8 distractors,0,1,1502
1932,4,1,132,9,1,4 distractors,1,1,1244
1933,4,1,133,17,0,8 distractors,0,1,725
1934,4,1,134,25,0,8 distractors,0,1,2672
1935,4,1,135,33,0,4 distractors,0,1,1334
1936,4,1,136,9,1,4 distractors,1,1,1036
1937,4,1,137,13,0,8 distractors,0,1,1445
1938,4,1,138,5,0,4 distractors,0,1,733
1939,4,1,139,21,1,4 distractors,1,1,773
1940,4,1,140,13,0,4 distractors,0,1,810
1941,4,1,141,21,0,4 distractors,0,1,792
1942,4,1,142,9,0,8 distractors,0,1,1937
1943,4,1,143,17,0,8 distractors,0,1,2365
1944,4,1,144,17,0,8 distractors,0,1,948
1945,4,1,145,13,1,4 distractors,1,1,1882
1946,4,1,146,17,0,8 distractors,0,1,1858
1947,4,1,147,33,0,4 distractors,0,1,1396
1948,4,1,148,13,1,4 distractors,1,1,682
1949,4,1,149,9,0,8 distractors,0,1,1031
1950,4,1,150,9,0,8 distractors,0,1,1179
1951,4,1,151,21,1,4 distractors,1,1,1162
1952,4,1,152,17,1,8 distractors,1,1,1249
1953,4,1,153,5,0,4 distractors,0,1,585
1954,4,1,154,37,0,8 distractors,0,1,1908
1955,4,1,155,25,1,8 distractors,1,1,1155
1956,4,1,156,25,1,8 distractors,1,1,1473
1957,4,1,157,21,0,4 distractors,0,1,857
1958,4,1,158,5,1,4 distractors,1,1,547
1959,4,1,159,33,1,4 distractors,1,1,1055
1960,4,1,160,5,0,4 distractors,0,1,1070
1961,4,1,161,13,1,4 distractors,1,1,664
1962,4,1,162,5,1,4 distractors,1,1,599
1963,4,1,163,21,1,4 distractors,1,1,630
1964,4,1,164,13,0,8 distractors,0,1,2474
1965,4,1,165,33,1,4 distractors,1,1,789
1966,4,1,166,9,0,4 distractors,0,1,822
1967,4,1,167,13,0,8 distractors,0,1,894
1968,4,1,168,9,1,4 distractors,1,1,681
1969,4,1,169,13,1,8 distractors,1,1,730
1970,4,1,170,13,1,4 distractors,1,1,1892
1971,4,1,171,9,1,8 distractors,1,1,759
1972,4,1,172,9,0,8 distractors,0,1,1314
1973,4,1,173,25,1,8 distractors,1,1,891
1974,4,1,174,13,1,4 distractors,1,1,919
1975,4,1,175,9,1,8 distractors,1,1,565
1976,4,1,176,37,0,8 distractors,0,1,666
1977,4,1,177,13,0,4 distractors,0,1,791
1978,4,1,178,9,0,8 distractors,0,1,806
1979,4,1,179,5,1,4 distractors,1,1,568
1980,4,1,180,13,1,8 distractors,1,1,1074
1981,4,1,181,9,0,4 distractors,0,1,952
1982,4,1,182,5,0,4 distractors,0,1,746
1983,4,1,183,5,0,4 distractors,0,1,1234
1984,4,1,184,13,0,4 distractors,0,1,809
1985,4,1,185,21,0,4 distractors,0,1,741
1986,4,1,186,17,0,8 distractors,0,1,524
1987,4,1,187,37,1,8 distractors,1,1,1302
1988,4,1,188,13,0,4 distractors,0,1,902
1989,4,1,189,25,1,8 distractors,1,1,908
1990,4,1,190,33,0,4 distractors,0,1,794
1991,4,1,191,21,0,4 distractors,0,1,540
1992,4,1,192,9,1,8 distractors,1,1,1006
1993,4,1,193,5,1,4 distractors,1,1,668
1994,4,1,194,33,1,4 distractors,1,1,811
1995,4,1,195,37,0,8 distractors,0,1,733
1996,4,1,196,9,0,8 distractors,0,1,1051
1997,4,1,197,37,1,8 distractors,1,1,1705
1998,4,1,198,9,0,4 distractors,0,1,1079
1999,4,1,199,33,0,4 distractors,0,1,840
2000,4,1,200,9,1,4 distractors,1,1,599
2001,4,1,201,17,0,8 distractors,0,1,562
2002,4,1,202,37,0,8 distractors,0,1,571
2003,4,1,203,33,1,4 distractors,1,1,713
2004,4,1,204,25,0,8 distractors,0,1,2464
2005,4,1,205,9,1,8 distractors,1,1,1400
2006,4,1,206,9,0,4 distractors,0,1,529
2007,4,1,207,37,0,8 distractors,0,1,760
2008,4,1,208,25,1,8 distractors,1,1,1079
2009,4,1,209,17,0,8 distractors,0,1,1048
2010,4,1,210,37,0,8 distractors,0,1,863
2011,4,1,211,21,1,4 distractors,1,1,607
2012,4,1,212,9,1,4 distractors,1,1,1156
2013,4,1,213,37,0,8 distractors,0,1,900
2014,4,1,214,13,1,8 distractors,1,1,1298
2015,4,1,215,13,1,4 distractors,1,1,1042
2016,4,1,216,5,1,4 distractors,1,1,719
2017,4,1,217,9,1,8 distractors,1,1,497
2018,4,1,218,25,1,8 distractors,1,1,617
2019,4,1,219,17,1,8 distractors,1,1,1839
2020,4,1,220,9,1,8 distractors,1,1,526
2021,4,1,221,25,0,8 distractors,0,1,1947
2022,4,1,222,21,1,4 distractors,1,1,951
2023,4,1,223,13,0,8 distractors,0,1,720
2024,4,1,224,17,0,8 distractors,0,1,1099
2025,4,1,225,13,0,4 distractors,0,1,996
2026,4,1,226,21,0,4 distractors,0,1,804
2027,4,1,227,37,1,8 distractors,1,1,1308
2028,4,1,228,21,0,4 distractors,0,1,540
2029,4,1,229,9,0,8 distractors,0,1,597
2030,4,1,230,33,0,4 distractors,0,1,1500
2031,4,1,231,9,1,8 distractors,1,1,1155
2032,4,1,232,37,1,8 distractors,1,1,645
2033,4,1,233,5,0,4 distractors,0,1,869
2034,4,1,234,17,1,8 distractors,1,1,1276
2035,4,1,235,25,1,8 distractors,1,1,1030
2036,4,1,236,33,1,4 distractors,1,1,1473
2037,4,1,237,25,0,8 distractors,0,1,879
2038,4,1,238,13,0,4 distractors,0,1,700
2039,4,1,239,9,1,8 distractors,1,1,1564
2040,4,1,240,13,0,4 distractors,0,1,1671
2041,4,1,241,25,1,8 distractors,1,1,871
2042,4,1,242,13,1,8 distractors,1,1,1047
2043,4,1,243,25,1,8 distractors,1,1,579
2044,4,1,244,9,1,4 distractors,1,1,696
2045,4,1,245,21,0,4 distractors,0,1,909
2046,4,1,246,17,0,8 distractors,0,1,806
2047,4,1,247,5,1,4 distractors,1,1,919
2048,4,1,248,25,1,8 distractors,1,1,1649
2049,4,1,249,5,0,4 distractors,0,1,927
2050,4,1,250,9,1,4 distractors,1,1,1010
2051,4,1,251,17,0,8 distractors,0,1,808
2052,4,1,252,37,0,8 distractors,0,1,1839
2053,4,1,253,5,0,4 distractors,0,1,668
2054,4,1,254,13,0,8 distractors,0,1,1568
2055,4,1,255,33,1,4 distractors,1,1,605
2056,4,1,256,17,1,8 distractors,1,1,630
2057,4,1,257,9,0,4 distractors,0,1,1163
2058,4,1,258,21,0,4 distractors,0,1,948
2059,4,1,259,33,0,4 distractors,0,1,898
2060,4,1,260,13,1,4 distractors,1,1,926
2061,4,1,261,9,1,4 distractors,1,1,729
2062,4,1,262,17,0,8 distractors,0,1,1832
2063,4,1,263,21,1,4 distractors,1,1,1137
2064,4,1,264,5,0,4 distractors,0,1,1410
2065,4,1,265,9,0,4 distractors,0,1,1519
2066,4,1,266,9,0,4 distractors,0,1,717
2067,4,1,267,17,0,8 distractors,0,1,660
2068,4,1,268,13,1,8 distractors,1,1,765
2069,4,1,269,13,1,4 distractors,1,1,1213
2070,4,1,270,13,0,4 distractors,0,1,643
2071,4,1,271,5,0,4 distractors,0,1,630
2072,4,1,272,33,1,4 distractors,1,1,732
2073,4,1,273,13,0,4 distractors,0,1,574
2074,4,1,274,33,1,4 distractors,1,1,718
2075,4,1,275,37,1,8 distractors,1,1,2451
2076,4,1,276,9,0,8 distractors,0,1,2071
2077,4,1,277,13,1,4 distractors,1,1,929
2078,4,1,278,37,1,8 distractors,1,1,1416
2079,4,1,279,25,0,8 distractors,0,1,1836
2080,4,1,280,25,0,8 distractors,0,1,2182
2081,4,1,281,37,1,8 distractors,1,1,2215
2082,4,1,282,9,1,4 distractors,1,1,657
2083,4,1,283,33,0,4 distractors,0,1,958
2084,4,1,284,25,0,8 distractors,0,1,2257
2085,4,1,285,21,0,4 distractors,0,1,633
2086,4,1,286,17,0,8 distractors,0,1,667
2087,4,1,287,37,0,8 distractors,0,1,669
2088,4,1,288,25,0,8 distractors,0,1,825
2089,4,1,289,25,1,8 distractors,1,1,1218
2090,4,1,290,17,0,8 distractors,0,1,1561
2091,4,1,291,25,1,8 distractors,1,1,2091
2092,4,1,292,9,1,8 distractors,1,1,1229
2093,4,1,293,21,1,4 distractors,1,1,889
2094,4,1,294,13,1,8 distractors,1,1,1005
2095,4,1,295,13,0,8 distractors,0,1,800
2096,4,1,296,9,0,4 distractors,0,1,1186
2097,4,1,297,33,1,4 distractors,1,1,965
2098,4,1,298,21,1,4 distractors,1,1,962
2099,4,1,299,5,1,4 distractors,1,1,1098
2100,4,1,300,13,0,4 distractors,0,1,1508
2101,4,1,301,25,0,8 distractors,0,1,2528
2102,4,1,302,9,1,4 distractors,1,1,514
2103,4,1,303,9,1,4 distractors,1,1,849
2104,4,1,304,9,0,4 distractors,0,1,1777
2105,4,1,305,9,1,4 distractors,1,1,1055
2106,4,1,306,17,1,8 distractors,1,1,1079
2107,4,1,307,9,0,4 distractors,0,1,1034
2108,4,1,308,5,0,4 distractors,0,1,605
2109,4,1,309,37,0,8 distractors,0,1,2222
2110,4,1,310,33,0,4 distractors,0,1,601
2111,4,1,311,9,1,8 distractors,1,1,811
2112,4,1,312,37,1,8 distractors,1,1,635
2113,4,1,313,25,1,8 distractors,1,1,2138
2114,4,1,314,13,0,8 distractors,0,1,2122
2115,4,1,315,21,1,4 distractors,1,1,858
2116,4,1,316,21,1,4 distractors,1,1,1016
2117,4,1,317,5,0,4 distractors,0,1,888
2118,4,1,318,9,1,4 distractors,1,1,729
2119,4,1,319,37,0,8 distractors,0,1,2132
2120,4,1,320,21,0,4 distractors,0,1,672
2121,4,1,321,25,0,8 distractors,0,1,876
2122,4,1,322,13,0,8 distractors,0,1,1889
2123,4,1,323,9,0,8 distractors,0,1,548
2124,4,1,324,25,0,8 distractors,0,1,652
2125,4,1,325,21,0,4 distractors,0,1,910
2126,4,1,326,37,1,8 distractors,1,1,2176
2127,4,1,327,9,1,8 distractors,1,1,1060
2128,4,1,328,9,0,8 distractors,0,1,1642
2129,4,1,329,9,1,4 distractors,1,1,888
2130,4,1,330,9,0,4 distractors,0,1,699
2131,4,1,331,21,0,4 distractors,0,1,941
2132,4,1,332,5,0,4 distractors,0,1,636
2133,4,1,333,17,1,8 distractors,1,1,1190
2134,4,1,334,17,1,8 distractors,1,1,1283
2135,4,1,335,13,0,4 distractors,0,1,682
2136,4,1,336,21,0,4 distractors,0,1,535
2137,4,1,337,13,1,4 distractors,1,1,790
2138,4,1,338,17,1,8 distractors,1,1,1035
2139,4,1,339,17,0,8 distractors,0,1,791
2140,4,1,340,9,0,8 distractors,0,1,1328
2141,4,1,341,5,1,4 distractors,1,1,536
2142,4,1,342,9,0,8 distractors,0,1,791
2143,4,1,343,5,0,4 distractors,0,1,530
2144,4,1,344,21,1,4 distractors,1,1,801
2145,4,1,345,5,0,4 distractors,0,1,995
2146,4,1,346,13,1,4 distractors,1,1,1155
2147,4,1,347,13,0,8 distractors,0,1,1787
2148,4,1,348,13,0,8 distractors,0,1,1106
2149,4,1,349,9,1,4 distractors,1,1,819
2150,4,1,350,33,0,4 distractors,0,1,792
2151,4,1,351,17,1,8 distractors,1,1,2169
2152,4,1,352,5,1,4 distractors,1,1,585
2153,4,1,353,37,0,8 distractors,0,1,1632
2154,4,1,354,13,1,8 distractors,1,1,1803
2155,4,1,355,13,1,4 distractors,1,1,678
2156,4,1,356,25,0,8 distractors,0,1,670
2157,4,1,357,21,1,4 distractors,1,1,833
2158,4,1,358,13,1,8 distractors,1,1,567
2159,4,1,359,37,0,8 distractors,0,0,2472
2160,4,1,360,5,1,4 distractors,1,1,677
2161,4,1,361,9,0,8 distractors,0,1,605
2162,4,1,362,37,1,8 distractors,1,1,1419
2163,4,1,363,13,1,4 distractors,1,1,1208
2164,4,1,364,17,1,8 distractors,1,1,1387
2165,4,1,365,9,0,4 distractors,0,1,536
2166,4,1,366,9,0,4 distractors,0,1,1174
2167,4,1,367,21,1,4 distractors,1,1,1208
2168,4,1,368,13,0,8 distractors,0,1,878
2169,4,1,369,37,1,8 distractors,1,1,862
2170,4,1,370,9,1,4 distractors,1,1,730
2171,4,1,371,25,0,8 distractors,0,1,653
2172,4,1,372,13,1,4 distractors,1,1,1008
2173,4,1,373,9,0,8 distractors,0,1,590
2174,4,1,374,21,1,4 distractors,1,1,945
2175,4,1,375,13,0,4 distractors,0,1,1457
2176,4,1,376,17,1,8 distractors,1,1,707
2177,4,1,377,37,1,8 distractors,1,1,536
2178,4,1,378,17,1,8 distractors,1,1,1000
2179,4,1,379,21,1,4 distractors,1,1,1181
2180,4,1,380,21,1,4 distractors,1,1,848
2181,4,1,381,37,1,8 distractors,1,1,787
2182,4,1,382,9,1,4 distractors,1,1,1275
2183,4,1,383,13,0,8 distractors,0,1,1229
2184,4,1,384,5,0,4 distractors,0,1,576
2185,4,1,385,9,1,8 distractors,1,1,1591
2186,4,1,386,33,0,4 distractors,0,1,1327
2187,4,1,387,17,0,8 distractors,0,1,760
2188,4,1,388,21,0,4 distractors,0,1,1710
2189,4,1,389,13,0,4 distractors,0,1,946
2190,4,1,390,37,1,8 distractors,1,1,1641
2191,4,1,391,17,1,8 distractors,1,1,1480
2192,4,1,392,5,0,4 distractors,0,1,654
2193,4,1,393,9,1,4 distractors,1,1,778
2194,4,1,394,17,0,8 distractors,0,1,579
2195,4,1,395,13,0,4 distractors,0,1,1229
2196,4,1,396,33,1,4 distractors,1,1,804
2197,4,1,397,13,0,8 distractors,0,1,1012
2198,4,1,398,9,0,4 distractors,0,1,1372
2199,4,1,399,21,1,4 distractors,1,1,665
2200,4,1,400,21,0,4 distractors,0,1,1184
2201,4,1,401,21,0,4 distractors,0,1,1378
2202,4,1,402,9,0,8 distractors,0,1,945
2203,4,1,403,17,1,8 distractors,1,1,951
2204,4,1,404,25,1,8 distractors,1,1,1613
2205,4,1,405,37,0,8 distractors,0,1,596
2206,4,1,406,9,1,4 distractors,1,1,663
2207,4,1,407,33,1,4 distractors,1,1,873
2208,4,1,408,21,1,4 distractors,1,1,686
2209,4,1,409,21,1,4 distractors,1,1,910
2210,4,1,410,25,0,8 distractors,0,1,743
2211,4,1,411,9,1,4 distractors,1,1,537
2212,4,1,412,9,1,8 distractors,1,1,1241
2213,4,1,413,9,1,4 distractors,1,1,624
2214,4,1,414,9,0,8 distractors,0,1,1462
2215,4,1,415,9,1,4 distractors,1,1,1017
2216,4,1,416,9,0,4 distractors,0,1,808
2217,4,1,417,33,0,4 distractors,0,1,1666
2218,4,1,418,25,0,8 distractors,0,1,1213
2219,4,1,419,13,0,4 distractors,0,1,1171
2220,4,1,420,9,1,4 distractors,1,1,680
2221,4,1,421,9,1,4 distractors,1,1,1011
2222,4,1,422,17,0,8 distractors,0,1,1206
2223,4,1,423,21,0,4 distractors,0,1,1278
2224,4,1,424,13,1,8 distractors,1,1,1510
2225,4,1,425,9,0,8 distractors,0,1,722
2226,4,1,426,37,0,8 distractors,0,1,1850
2227,4,1,427,13,1,4 distractors,1,1,2068
2228,4,1,428,33,0,4 distractors,0,1,1063
2229,4,1,429,21,0,4 distractors,0,1,582
2230,4,1,430,33,0,4 distractors,0,1,1202
2231,4,1,431,9,0,4 distractors,0,1,600
2232,4,1,432,13,1,4 distractors,1,1,1058
2233,4,1,433,5,1,4 distractors,1,1,1056
2234,4,1,434,37,1,8 distractors,1,1,808
2235,4,1,435,25,1,8 distractors,1,1,1147
2236,4,1,436,13,0,4 distractors,0,1,1169
2237,4,1,437,13,1,4 distractors,1,1,888
2238,4,1,438,9,0,4 distractors,0,1,1934
2239,4,1,439,9,0,8 distractors,0,1,749
2240,4,1,440,21,1,4 distractors,1,1,837
2241,4,1,441,37,0,8 distractors,0,1,914
2242,4,1,442,9,0,4 distractors,0,1,881
2243,4,1,443,37,1,8 distractors,1,1,1001
2244,4,1,444,13,0,8 distractors,0,1,1181
2245,4,1,445,33,1,4 distractors,1,1,774
2246,4,1,446,13,1,4 distractors,1,1,581
2247,4,1,447,13,0,8 distractors,0,1,939
2248,4,1,448,5,1,4 distractors,1,1,722
2249,4,1,449,13,0,8 distractors,0,1,843
2250,4,1,450,17,1,8 distractors,1,1,2547
2251,4,1,451,25,1,8 distractors,1,1,848
2252,4,1,452,5,1,4 distractors,1,1,777
2253,4,1,453,37,0,8 distractors,0,1,2454
2254,4,1,454,13,1,4 distractors,1,1,536
2255,4,1,455,5,1,4 distractors,1,1,806
2256,4,1,456,5,1,4 distractors,1,1,636
2257,4,1,457,9,0,4 distractors,0,1,678
2258,4,1,458,37,0,8 distractors,0,1,1141
2259,4,1,459,33,1,4 distractors,1,1,553
2260,4,1,460,25,1,8 distractors,1,1,1980
2261,4,1,461,37,0,8 distractors,0,1,567
2262,4,1,462,5,0,4 distractors,0,1,576
2263,4,1,463,33,1,4 distractors,1,1,1519
2264,4,1,464,17,1,8 distractors,1,1,1802
2265,4,1,465,33,0,4 distractors,0,1,587
2266,4,1,466,5,1,4 distractors,1,1,845
2267,4,1,467,37,0,8 distractors,0,1,1110
2268,4,1,468,13,0,4 distractors,0,1,705
2269,4,1,469,5,1,4 distractors,1,1,875
2270,4,1,470,9,0,8 distractors,0,1,1429
2271,4,1,471,13,0,8 distractors,0,1,782
2272,4,1,472,13,1,4 distractors,1,1,1028
2273,4,1,473,13,0,8 distractors,0,1,2029
2274,4,1,474,25,1,8 distractors,1,1,1005
2275,4,1,475,25,0,8 distractors,0,1,902
2276,4,1,476,21,0,4 distractors,0,1,997
2277,4,1,477,25,0,8 distractors,0,1,610
2278,4,1,478,5,0,4 distractors,0,1,623
2279,4,1,479,13,0,4 distractors,0,1,848
2280,4,1,480,25,0,8 distractors,0,1,2178
2281,4,1,481,37,1,8 distractors,1,1,934
2282,4,1,482,9,1,8 distractors,1,1,1427
2283,4,1,483,25,1,8 distractors,1,1,502
2284,4,1,484,17,1,8 distractors,1,1,1339
2285,4,1,485,13,1,8 distractors,1,1,746
2286,4,1,486,17,1,8 distractors,1,1,920
2287,4,1,487,25,0,8 distractors,0,1,1006
2288,4,1,488,25,1,8 distractors,1,1,899
2289,4,1,489,9,0,4 distractors,0,1,1255
2290,4,1,490,13,1,4 distractors,1,1,559
2291,4,1,491,17,0,8 distractors,0,1,564
2292,4,1,492,17,0,8 distractors,0,1,669
2293,4,1,493,13,0,8 distractors,0,1,1770
2294,4,1,494,21,1,4 distractors,1,1,1786
2295,4,1,495,37,1,8 distractors,1,1,1659
2296,4,1,496,37,1,8 distractors,1,1,1157
2297,4,1,497,9,1,4 distractors,1,1,1140
2298,4,1,498,13,1,8 distractors,1,1,657
2299,4,1,499,33,1,4 distractors,1,1,696
2300,4,1,500,33,1,4 distractors,1,1,432
2301,4,1,501,17,1,8 distractors,1,1,710
2302,4,1,502,5,1,4 distractors,1,1,1469
2303,4,1,503,9,1,8 distractors,1,1,897
2304,4,1,504,9,0,4 distractors,0,1,737
2305,4,1,505,17,0,8 distractors,0,1,890
2306,4,1,506,17,1,8 distractors,1,1,645
2307,4,1,507,9,0,8 distractors,0,1,973
2308,4,1,508,13,0,8 distractors,0,1,1185
2309,4,1,509,21,0,4 distractors,0,1,584
2310,4,1,510,5,0,4 distractors,0,1,895
2311,4,1,511,37,1,8 distractors,1,1,1431
2312,4,1,512,25,1,8 distractors,1,1,985
2313,4,1,513,33,0,4 distractors,0,1,1285
2314,4,1,514,13,1,4 distractors,1,1,686
2315,4,1,515,37,1,8 distractors,1,1,2230
2316,4,1,516,9,0,4 distractors,0,1,854
2317,4,1,517,21,1,4 distractors,1,1,794
2318,4,1,518,17,0,8 distractors,0,1,1169
2319,4,1,519,5,1,4 distractors,1,1,626
2320,4,1,520,5,0,4 distractors,0,1,1155
2321,4,1,521,5,1,4 distractors,1,1,586
2322,4,1,522,37,1,8 distractors,1,1,577
2323,4,1,523,13,0,8 distractors,0,1,747
2324,4,1,524,37,0,8 distractors,0,1,735
2325,4,1,525,9,0,4 distractors,0,1,815
2326,4,1,526,9,1,8 distractors,1,1,1610
2327,4,1,527,13,0,8 distractors,0,1,1022
2328,4,1,528,17,1,8 distractors,1,1,561
2329,4,1,529,13,0,8 distractors,0,1,612
2330,4,1,530,25,1,8 distractors,1,1,470
2331,4,1,531,17,1,8 distractors,1,1,811
2332,4,1,532,5,1,4 distractors,1,1,741
2333,4,1,533,25,1,8 distractors,1,1,535
2334,4,1,534,21,1,4 distractors,1,1,1003
2335,4,1,535,9,1,4 distractors,1,1,840
2336,4,1,536,17,1,8 distractors,1,1,1315
2337,4,1,537,37,0,8 distractors,0,1,730
2338,4,1,538,25,0,8 distractors,0,1,1015
2339,4,1,539,5,0,4 distractors,0,1,601
2340,4,1,540,25,0,8 distractors,0,1,2418
2341,4,1,541,33,0,4 distractors,0,1,913
2342,4,1,542,9,1,8 distractors,1,1,1183
2343,4,1,543,9,1,4 distractors,1,1,654
2344,4,1,544,9,1,8 distractors,1,1,1012
2345,4,1,545,33,0,4 distractors,0,1,1012
2346,4,1,546,13,1,4 distractors,1,1,1173
2347,4,1,547,25,0,8 distractors,0,1,651
2348,4,1,548,5,0,4 distractors,0,1,618
2349,4,1,549,21,1,4 distractors,1,1,758
2350,4,1,550,33,0,4 distractors,0,1,818
2351,4,1,551,21,1,4 distractors,1,1,518
2352,4,1,552,25,1,8 distractors,1,1,574
2353,4,1,553,9,0,8 distractors,0,1,934
2354,4,1,554,37,0,8 distractors,0,1,681
2355,4,1,555,13,1,8 distractors,1,1,1157
2356,4,1,556,5,1,4 distractors,1,1,548
2357,4,1,557,9,1,8 distractors,1,1,630
2358,4,1,558,25,1,8 distractors,1,1,1134
2359,4,1,559,9,1,8 distractors,1,1,756
2360,4,1,560,25,0,8 distractors,0,1,481
2361,4,1,561,13,0,4 distractors,0,1,1078
2362,4,1,562,13,0,4 distractors,0,1,484
2363,4,1,563,13,0,8 distractors,0,1,1261
2364,4,1,564,13,0,4 distractors,0,1,536
2365,4,1,565,25,1,8 distractors,1,1,1707
2366,4,1,566,37,0,8 distractors,0,1,630
2367,4,1,567,9,0,4 distractors,0,1,1191
2368,4,1,568,13,1,8 distractors,1,1,515
2369,4,1,569,37,1,8 distractors,1,1,599
2370,4,1,570,9,1,8 distractors,1,1,670
2371,4,1,571,33,0,4 distractors,0,1,687
2372,4,1,572,17,0,8 distractors,0,1,879
2373,4,1,573,13,1,4 distractors,1,1,1269
2374,4,1,574,21,0,4 distractors,0,1,1072
2375,4,1,575,17,0,8 distractors,0,1,849
2376,4,1,576,9,1,8 distractors,1,1,1480
2377,4,1,577,13,0,4 distractors,0,1,626
2378,4,1,578,33,1,4 distractors,1,1,1007
2379,4,1,579,33,1,4 distractors,1,1,720
2380,4,1,580,9,0,4 distractors,0,1,581
2381,4,1,581,21,1,4 distractors,1,1,549
2382,4,1,582,25,1,8 distractors,1,1,1881
2383,4,1,583,5,1,4 distractors,1,1,492
2384,4,1,584,37,0,8 distractors,0,1,1400
2385,4,1,585,9,1,8 distractors,1,1,807
2386,4,1,586,13,0,4 distractors,0,1,555
2387,4,1,587,37,0,8 distractors,0,1,1170
2388,4,1,588,9,0,8 distractors,0,1,747
2389,4,1,589,37,1,8 distractors,1,1,1301
2390,4,1,590,21,0,4 distractors,0,1,744
2391,4,1,591,37,0,8 distractors,0,1,1271
2392,4,1,592,13,0,8 distractors,0,1,711
2393,4,1,593,13,0,8 distractors,0,1,895
2394,4,1,594,21,0,4 distractors,0,1,1194
2395,4,1,595,37,0,8 distractors,0,1,1807
2396,4,1,596,17,0,8 distractors,0,1,957
2397,4,1,597,25,0,8 distractors,0,1,651
2398,4,1,598,9,1,8 distractors,1,1,1004
2399,4,1,599,25,0,8 distractors,0,1,1196
2400,4,1,600,9,0,8 distractors,0,1,1284
2401,5,1,1,21,1,4 distractors,1,1,4394
2402,5,1,2,13,1,8 distractors,1,1,2197
2403,5,1,3,17,1,8 distractors,1,1,1981
2404,5,1,4,37,0,8 distractors,0,1,2672
2405,5,1,5,5,0,4 distractors,0,1,1612
2406,5,1,6,9,1,4 distractors,1,1,1929
2407,5,1,7,5,0,4 distractors,0,1,1751
2408,5,1,8,25,1,8 distractors,1,1,1852
2409,5,1,9,13,1,8 distractors,1,1,1329
2410,5,1,10,5,1,4 distractors,1,1,942
2411,5,1,11,33,0,4 distractors,0,1,1820
2412,5,1,12,33,0,4 distractors,0,1,1611
2413,5,1,13,25,1,8 distractors,1,1,1585
2414,5,1,14,17,1,8 distractors,1,1,1071
2415,5,1,15,17,0,8 distractors,0,1,1664
2416,5,1,16,5,1,4 distractors,1,1,903
2417,5,1,17,9,1,4 distractors,1,1,918
2418,5,1,18,21,0,4 distractors,0,1,592
2419,5,1,19,25,1,8 distractors,1,1,2594
2420,5,1,20,9,1,4 distractors,1,1,1312
2421,5,1,21,5,0,4 distractors,0,1,928
2422,5,1,22,33,0,4 distractors,0,1,1109
2423,5,1,23,33,0,4 distractors,0,1,1185
2424,5,1,24,37,1,8 distractors,1,1,2510
2425,5,1,25,13,1,4 distractors,1,1,967
2426,5,1,26,5,1,4 distractors,1,1,778
2427,5,1,27,17,1,8 distractors,1,1,1160
2428,5,1,28,21,1,4 distractors,1,1,1313
2429,5,1,29,13,1,8 distractors,1,1,1479
2430,5,1,30,9,0,8 distractors,0,1,1024
2431,5,1,31,13,0,4 distractors,0,1,1041
2432,5,1,32,13,0,4 distractors,0,1,749
2433,5,1,33,33,0,4 distractors,0,1,978
2434,5,1,34,37,1,8 distractors,1,1,922
2435,5,1,35,33,1,4 distractors,1,1,1064
2436,5,1,36,25,0,8 distractors,0,1,724
2437,5,1,37,13,1,8 distractors,1,1,2178
2438,5,1,38,21,1,4 distractors,1,1,1233
2439,5,1,39,13,1,4 distractors,1,1,910
2440,5,1,40,9,0,4 distractors,0,1,1029
2441,5,1,41,17,0,8 distractors,0,1,1563
2442,5,1,42,21,1,4 distractors,1,1,1285
2443,5,1,43,21,0,4 distractors,0,1,804
2444,5,1,44,9,0,4 distractors,0,1,1459
2445,5,1,45,13,1,4 distractors,1,1,788
2446,5,1,46,9,1,4 distractors,1,1,972
2447,5,1,47,37,1,8 distractors,1,1,1461
2448,5,1,48,37,1,8 distractors,1,1,957
2449,5,1,49,13,0,4 distractors,0,1,993
2450,5,1,50,9,1,4 distractors,1,1,830
2451,5,1,51,9,0,8 distractors,0,1,816
2452,5,1,52,17,0,8 distractors,0,1,993
2453,5,1,53,9,0,8 distractors,0,1,1561
2454,5,1,54,17,0,8 distractors,0,1,1224
2455,5,1,55,9,1,4 distractors,1,1,1316
2456,5,1,56,13,1,4 distractors,1,1,783
2457,5,1,57,17,0,8 distractors,0,1,1622
2458,5,1,58,37,1,8 distractors,1,1,1340
2459,5,1,59,17,1,8 distractors,1,1,1416
2460,5,1,60,21,0,4 distractors,0,1,999
2461,5,1,61,17,1,8 distractors,1,1,1149
2462,5,1,62,33,1,4 distractors,1,1,1092
2463,5,1,63,13,1,4 distractors,1,1,869
2464,5,1,64,25,0,8 distractors,0,1,1453
2465,5,1,65,9,1,8 distractors,1,1,2112
2466,5,1,66,9,0,8 distractors,0,1,1155
2467,5,1,67,25,1,8 distractors,1,1,1188
2468,5,1,68,13,0,4 distractors,0,1,1043
2469,5,1,69,13,1,8 distractors,1,1,799
2470,5,1,70,9,0,4 distractors,0,1,1169
2471,5,1,71,37,1,8 distractors,1,1,1042
2472,5,1,72,9,0,4 distractors,0,1,604
2473,5,1,73,9,1,4 distractors,1,1,866
2474,5,1,74,9,1,8 distractors,1,1,817
2475,5,1,75,9,1,8 distractors,1,1,1055
2476,5,1,76,21,1,4 distractors,1,1,1116
2477,5,1,77,9,1,8 distractors,1,1,927
2478,5,1,78,13,1,4 distractors,1,1,561
2479,5,1,79,13,1,8 distractors,1,1,1262
2480,5,1,80,13,0,4 distractors,0,1,964
2481,5,1,81,25,1,8 distractors,1,1,1492
2482,5,1,82,25,1,8 distractors,1,1,738
2483,5,1,83,9,1,8 distractors,1,1,1169
2484,5,1,84,25,1,8 distractors,1,1,1172
2485,5,1,85,33,1,4 distractors,1,1,723
2486,5,1,86,21,1,4 distractors,1,1,675
2487,5,1,87,33,1,4 distractors,1,1,1037
2488,5,1,88,9,0,4 distractors,0,1,1107
2489,5,1,89,25,0,8 distractors,0,1,1520
2490,5,1,90,17,1,8 distractors,1,1,1197
2491,5,1,91,9,0,8 distractors,0,1,1174
2492,5,1,92,5,1,4 distractors,1,1,1002
2493,5,1,93,33,0,4 distractors,0,1,992
2494,5,1,94,37,0,8 distractors,0,1,558
2495,5,1,95,13,1,4 distractors,1,1,725
2496,5,1,96,5,0,4 distractors,0,1,1128
2497,5,1,97,9,0,4 distractors,0,1,724
2498,5,1,98,25,1,8 distractors,1,1,1600
2499,5,1,99,9,1,8 distractors,1,1,1318
2500,5,1,100,37,0,8 distractors,0,1,1561
2501,5,1,101,37,0,8 distractors,0,1,872
2502,5,1,102,5,0,4 distractors,0,1,986
2503,5,1,103,9,1,4 distractors,1,1,1288
2504,5,1,104,37,1,8 distractors,1,1,704
2505,5,1,105,17,0,8 distractors,0,1,1089
2506,5,1,106,33,0,4 distractors,0,1,991
2507,5,1,107,9,0,8 distractors,0,1,685
2508,5,1,108,37,1,8 distractors,1,1,1420
2509,5,1,109,5,0,4 distractors,0,1,774
2510,5,1,110,5,1,4 distractors,1,1,573
2511,5,1,111,13,1,4 distractors,1,1,1016
2512,5,1,112,37,1,8 distractors,1,1,720
2513,5,1,113,5,0,4 distractors,0,1,1122
2514,5,1,114,13,1,4 distractors,1,1,990
2515,5,1,115,13,1,4 distractors,1,1,1198
2516,5,1,116,9,0,4 distractors,0,1,873
2517,5,1,117,17,1,8 distractors,1,1,630
2518,5,1,118,13,1,8 distractors,1,1,884
2519,5,1,119,13,0,4 distractors,0,1,851
2520,5,1,120,33,1,4 distractors,1,1,635
2521,5,1,121,37,0,8 distractors,0,1,786
2522,5,1,122,5,1,4 distractors,1,1,947
2523,5,1,123,9,1,8 distractors,1,1,952
2524,5,1,124,9,1,8 distractors,1,1,798
2525,5,1,125,13,0,8 distractors,0,1,1009
2526,5,1,126,17,1,8 distractors,1,1,1586
2527,5,1,127,9,1,8 distractors,1,1,1426
2528,5,1,128,17,0,8 distractors,0,1,1014
2529,5,1,129,25,0,8 distractors,0,1,1015
