trial_id,Subject,block_n,Trial,numDistractors,correctResponse,keyResponse,acc,RT
1,1,1,1,8,1,1,1,1798
2,1,1,2,8,1,1,1,1160
3,1,1,3,8,1,1,1,995
4,1,1,4,4,1,1,1,751
5,1,1,5,4,0,0,1,771
6,1,1,6,4,1,1,1,604
7,1,1,7,8,0,0,1,650
8,1,1,8,8,0,0,1,682
9,1,1,9,4,0,0,1,626
10,1,1,10,4,0,0,1,678
11,1,1,11,4,1,1,1,644
12,1,1,12,8,0,0,1,481
13,1,1,13,8,1,1,1,1279
14,1,1,14,8,1,1,1,893
15,1,1,15,4,1,1,1,581
16,1,1,16,8,1,1,1,576
17,1,1,17,8,0,0,1,628
18,1,1,18,4,1,1,1,436
19,1,1,19,4,0,0,1,495
20,1,1,20,8,0,0,1,743
21,1,1,21,8,1,1,1,1014
22,1,1,22,8,0,0,1,1273
23,1,1,23,4,0,0,1,387
24,1,1,24,4,0,0,1,596
25,1,1,25,4,1,1,1,586
26,1,1,26,8,0,0,1,1051
27,1,1,27,8,0,0,1,395
28,1,1,28,4,1,1,1,574
29,1,1,29,4,1,1,1,568
30,1,1,30,8,0,0,1,484
31,1,1,31,4,1,1,1,440
32,1,1,32,4,1,1,1,979
33,1,1,33,4,1,1,1,652
34,1,1,34,8,1,1,1,576
35,1,1,35,4,0,0,1,392
36,1,1,36,4,0,0,1,607
37,1,1,37,8,0,0,1,726
38,1,1,38,4,1,1,1,428
39,1,1,39,4,0,0,1,522
40,1,1,40,8,1,1,1,870
41,1,1,41,4,1,1,1,976
42,1,1,42,8,1,1,1,819
43,1,1,43,8,0,0,1,514
44,1,1,44,4,1,1,1,449
45,1,1,45,8,1,1,1,420
46,1,1,46,8,1,1,1,874
47,1,1,47,4,1,1,1,455
48,1,1,48,8,0,0,1,735
49,1,1,49,8,1,1,1,1381
50,1,1,50,4,1,1,1,547
51,1,1,51,4,1,1,1,443
52,1,1,52,4,0,0,1,581
53,1,1,53,4,0,0,1,437
54,1,1,54,8,1,1,1,458
55,1,1,55,4,1,1,1,462
56,1,1,56,4,0,0,1,451
57,1,1,57,8,1,1,1,643
58,1,1,58,8,1,1,1,601
59,1,1,59,8,1,1,0,474
60,1,1,60,4,0,0,1,609
61,1,1,61,8,1,1,1,558
62,1,1,62,4,1,1,1,422
63,1,1,63,4,0,0,1,598
64,1,1,64,4,1,1,1,587
65,1,1,65,8,0,0,1,520
66,1,1,66,4,0,0,1,434
67,1,1,67,8,0,0,1,471
68,1,1,68,4,1,1,1,630
69,1,1,69,4,1,1,1,874
70,1,1,70,8,0,0,1,473
71,1,1,71,8,0,0,1,1119
72,1,1,72,8,1,1,1,831
73,1,1,73,8,0,0,1,667
74,1,1,74,8,1,1,1,499
75,1,1,75,8,0,0,1,1028
76,1,1,76,4,1,1,1,905
77,1,1,77,4,0,0,1,645
78,1,1,78,8,1,1,1,799
79,1,1,79,4,0,0,1,526
80,1,1,80,8,1,1,1,1391
81,1,1,81,4,0,0,1,505
82,1,1,82,4,1,1,1,679
83,1,1,83,4,0,0,1,696
84,1,1,84,4,0,0,1,490
85,1,1,85,8,0,0,0,712
86,1,1,86,8,0,0,1,573
87,1,1,87,4,1,1,1,379
88,1,1,88,8,1,1,1,690
89,1,1,89,4,0,0,1,648
90,1,1,90,4,0,0,1,431
91,1,1,91,4,0,0,1,711
92,1,1,92,8,1,1,1,902
93,1,1,93,8,1,1,1,591
94,1,1,94,8,0,0,1,562
95,1,1,95,8,0,0,1,974
96,1,1,96,4,0,0,1,476
97,1,1,97,4,1,1,1,524
98,1,1,98,4,1,1,1,787
99,1,1,99,4,0,0,1,455
100,1,1,100,8,1,1,1,495
101,1,1,101,8,1,1,1,963
102,1,1,102,8,0,0,1,556
103,1,1,103,8,0,0,1,928
104,1,1,104,4,1,1,1,930
105,1,1,105,4,0,0,1,571
106,1,1,106,8,1,1,1,640
107,1,1,107,4,0,0,1,578
108,1,1,108,4,1,1,1,589
109,1,1,109,8,0,0,1,568
110,1,1,110,4,1,1,1,569
111,1,1,111,4,1,1,1,490
112,1,1,112,8,0,0,1,815
113,1,1,113,8,0,0,1,933
114,1,1,114,8,0,0,1,529
115,1,1,115,8,0,0,1,854
116,1,1,116,8,0,0,1,448
117,1,1,117,4,0,0,1,760
118,1,1,118,8,0,0,1,596
119,1,1,119,8,1,1,1,653
120,1,1,120,8,0,0,1,520
121,1,1,121,8,0,0,1,1190
122,1,1,122,4,1,1,1,556
123,1,1,123,8,1,1,1,507
124,1,1,124,4,0,0,0,425
125,1,1,125,8,0,0,1,878
126,1,1,126,8,0,0,1,769
127,1,1,127,8,0,0,1,806
128,1,1,128,4,0,0,1,630
129,1,1,129,8,0,0,1,416
130,1,1,130,4,1,1,1,780
131,1,1,131,8,1,1,1,627
132,1,1,132,4,1,1,1,660
133,1,1,133,4,0,0,1,433
134,1,1,134,4,1,1,1,444
135,1,1,135,8,1,1,1,764
136,1,1,136,4,1,1,1,544
137,1,1,137,4,0,0,1,673
138,1,1,138,8,0,0,1,1034
139,1,1,139,8,1,1,1,582
140,1,1,140,8,0,0,1,748
141,1,1,141,4,0,0,1,631
142,1,1,142,4,0,0,1,478
143,1,1,143,4,0,0,1,456
144,1,1,144,8,1,1,1,881
145,1,1,145,4,1,1,1,875
146,1,1,146,8,0,0,1,928
147,1,1,147,8,0,0,1,627
148,1,1,148,4,1,1,1,437
149,1,1,149,8,0,0,1,383
150,1,1,150,4,1,1,1,402
151,1,1,151,8,1,1,1,463
152,1,1,152,4,1,1,1,441
153,1,1,153,4,1,1,1,701
154,1,1,154,8,1,1,1,1097
155,1,1,155,4,1,1,1,394
156,1,1,156,8,0,0,1,479
157,1,1,157,8,1,1,1,750
158,1,1,158,8,0,0,1,331
159,1,1,159,4,0,0,1,537
160,1,1,160,4,0,0,1,761
161,1,1,161,8,0,0,1,811
162,1,1,162,4,0,0,1,398
163,1,1,163,4,0,0,1,574
164,1,1,164,8,0,0,1,617
165,1,1,165,4,0,0,1,803
166,1,1,166,4,0,0,1,441
167,1,1,167,4,1,1,0,706
168,1,1,168,4,0,0,1,388
169,1,1,169,8,0,0,1,589
170,1,1,170,8,1,1,1,800
171,1,1,171,4,0,0,1,440
172,1,1,172,8,0,0,1,848
173,1,1,173,8,1,1,1,533
174,1,1,174,8,1,1,1,758
175,1,1,175,8,0,0,1,711
176,1,1,176,8,0,0,1,491
177,1,1,177,4,1,1,1,449
178,1,1,178,4,0,0,1,416
179,1,1,179,4,1,1,1,735
180,1,1,180,8,1,1,0,483
181,1,1,181,8,1,1,1,793
182,1,1,182,8,0,0,1,660
183,1,1,183,4,0,0,0,493
184,1,1,184,8,0,0,1,416
185,1,1,185,4,1,1,1,447
186,1,1,186,4,1,1,1,653
187,1,1,187,4,1,1,1,440
188,1,1,188,8,1,1,1,1171
189,1,1,189,8,1,1,1,710
190,1,1,190,4,1,1,1,547
191,1,1,191,8,0,0,1,1243
192,1,1,192,8,1,1,1,767
193,1,1,193,4,0,0,1,717
194,1,1,194,8,1,1,1,1140
195,1,1,195,8,1,1,1,495
196,1,1,196,4,1,1,1,415
197,1,1,197,8,0,0,1,530
198,1,1,198,4,0,0,1,471
199,1,1,199,8,1,1,1,1179
200,1,1,200,4,0,0,1,740
201,1,1,201,4,1,1,1,565
202,1,1,202,4,1,1,1,924
203,1,1,203,4,0,0,1,661
204,1,1,204,4,0,0,1,613
205,1,1,205,8,0,0,1,616
206,1,1,206,8,1,1,1,389
207,1,1,207,8,1,1,1,931
208,1,1,208,8,0,0,1,585
209,1,1,209,8,0,0,0,427
210,1,1,210,4,0,0,0,696
211,1,1,211,4,0,0,1,474
212,1,1,212,4,1,1,1,581
213,1,1,213,8,1,1,0,1179
214,1,1,214,4,1,1,1,553
215,1,1,215,8,1,1,1,1413
216,1,1,216,8,0,0,1,726
217,1,1,217,4,0,0,1,765
218,1,1,218,8,0,0,1,742
219,1,1,219,4,0,0,1,522
220,1,1,220,8,0,0,1,1557
221,1,1,221,8,0,0,1,628
222,1,1,222,8,1,1,1,680
223,1,1,223,8,0,0,1,595
224,1,1,224,8,0,0,1,852
225,1,1,225,8,1,1,1,823
226,1,1,226,4,1,1,0,476
227,1,1,227,8,0,0,1,569
228,1,1,228,4,1,1,1,625
229,1,1,229,8,0,0,1,454
230,1,1,230,4,0,0,1,478
231,1,1,231,8,1,1,1,495
232,1,1,232,8,1,1,1,446
233,1,1,233,8,0,0,1,813
234,1,1,234,8,0,0,1,573
235,1,1,235,8,0,0,1,480
236,1,1,236,4,0,0,1,517
237,1,1,237,4,0,0,1,470
238,1,1,238,4,1,1,1,527
239,1,1,239,8,0,0,1,484
240,1,1,240,4,0,0,1,766
241,1,1,241,4,0,0,1,581
242,1,1,242,4,1,1,1,417
243,1,1,243,8,1,1,1,673
244,1,1,244,4,0,0,1,360
245,1,1,245,8,0,0,1,647
246,1,1,246,8,0,0,1,691
247,1,1,247,4,0,0,1,503
248,1,1,248,4,0,0,1,569
249,1,1,249,8,1,1,1,925
250,1,1,250,8,0,0,1,535
251,1,1,251,8,0,0,1,420
252,1,1,252,4,0,0,1,407
253,1,1,253,4,1,1,1,535
254,1,1,254,8,1,1,1,788
255,1,1,255,4,0,0,1,444
256,1,1,256,4,0,0,1,473
257,1,1,257,8,0,0,1,485
258,1,1,258,4,1,1,1,815
259,1,1,259,4,0,0,1,532
260,1,1,260,4,0,0,1,487
261,1,1,261,4,1,1,1,630
262,1,1,262,4,0,0,1,618
263,1,1,263,8,0,0,1,748
264,1,1,264,8,1,1,1,754
265,1,1,265,8,1,1,1,1057
266,1,1,266,4,1,1,1,580
267,1,1,267,4,1,1,1,635
268,1,1,268,4,1,1,1,551
269,1,1,269,4,0,0,1,562
270,1,1,270,4,1,1,1,440
271,1,1,271,8,1,1,1,658
272,1,1,272,8,1,1,1,574
273,1,1,273,4,0,0,0,546
274,1,1,274,8,1,1,1,810
275,1,1,275,4,0,0,1,529
276,1,1,276,4,0,0,1,736
277,1,1,277,8,0,0,1,707
278,1,1,278,4,0,0,1,637
279,1,1,279,8,1,1,1,674
280,1,1,280,8,0,0,1,669
281,1,1,281,4,0,0,1,711
282,1,1,282,8,0,0,1,876
283,1,1,283,8,0,0,1,706
284,1,1,284,8,0,0,1,569
285,1,1,285,8,1,1,1,730
286,1,1,286,4,0,0,1,570
287,1,1,287,8,1,1,1,640
288,1,1,288,4,0,0,1,581
289,1,1,289,4,0,0,1,500
290,1,1,290,8,0,0,1,734
291,1,1,291,8,1,1,1,1142
292,1,1,292,4,1,1,1,746
293,1,1,293,8,0,0,1,694
294,1,1,294,8,1,1,1,1109
295,1,1,295,4,1,1,1,556
296,1,1,296,4,0,0,1,649
297,1,1,297,4,0,0,1,608
298,1,1,298,8,0,0,1,547
299,1,1,299,8,0,0,1,790
300,1,1,300,4,1,1,1,1138
301,1,1,301,8,0,0,1,830
302,1,1,302,8,1,1,1,951
303,1,1,303,4,0,0,1,555
304,1,1,304,8,1,1,1,695
305,1,1,305,8,1,1,1,1072
306,1,1,306,8,1,1,1,597
307,1,1,307,4,1,1,1,514
308,1,1,308,4,1,1,1,564
309,1,1,309,4,1,1,1,478
310,1,1,310,8,1,1,1,652
311,1,1,311,8,1,1,1,517
312,1,1,312,4,1,1,1,549
313,1,1,313,8,1,1,1,838
314,1,1,314,4,1,1,1,619
315,1,1,315,8,0,0,1,721
316,1,1,316,8,0,0,1,632
317,1,1,317,8,1,1,1,874
318,1,1,318,4,0,0,1,585
319,1,1,319,4,1,1,1,522
320,1,1,320,4,0,0,1,536
321,1,1,321,4,1,1,0,411
322,1,1,322,8,0,0,1,549
323,1,1,323,8,1,1,1,615
324,1,1,324,8,1,1,1,730
325,1,1,325,8,1,1,1,686
326,1,1,326,8,0,0,1,548
327,1,1,327,4,0,0,1,469
328,1,1,328,4,1,1,1,638
329,1,1,329,4,1,1,1,530
330,1,1,330,8,1,1,1,747
331,1,1,331,4,0,0,1,412
332,1,1,332,8,1,1,1,752
333,1,1,333,8,0,0,1,565
334,1,1,334,8,0,0,1,589
335,1,1,335,4,0,0,1,536
336,1,1,336,8,0,0,1,712
337,1,1,337,8,0,0,1,452
338,1,1,338,8,1,1,1,935
339,1,1,339,8,0,0,1,612
340,1,1,340,4,1,1,1,772
341,1,1,341,8,0,0,1,517
342,1,1,342,8,1,1,1,1000
343,1,1,343,8,0,0,1,400
344,1,1,344,4,1,1,1,587
345,1,1,345,8,0,0,1,388
346,1,1,346,8,0,0,1,417
347,1,1,347,4,1,1,1,430
348,1,1,348,4,0,0,1,726
349,1,1,349,4,0,0,1,372
350,1,1,350,8,0,0,0,456
351,1,1,351,4,1,1,1,485
352,1,1,352,8,0,0,1,1045
353,1,1,353,8,0,0,1,805
354,1,1,354,8,1,1,1,1148
355,1,1,355,4,0,0,1,493
356,1,1,356,4,1,1,1,867
357,1,1,357,4,0,0,1,400
358,1,1,358,4,1,1,1,985
359,1,1,359,4,1,1,1,503
360,1,1,360,4,0,0,1,370
361,1,1,361,4,1,1,1,440
362,1,1,362,8,1,1,1,597
363,1,1,363,4,0,0,1,472
364,1,1,364,8,1,1,1,775
365,1,1,365,4,0,0,1,395
366,1,1,366,4,0,0,1,742
367,1,1,367,8,1,1,1,782
368,1,1,368,8,0,0,1,1578
369,1,1,369,4,0,0,1,738
370,1,1,370,4,1,1,1,579
371,1,1,371,4,1,1,1,562
372,1,1,372,8,1,1,0,966
373,1,1,373,4,0,0,1,625
374,1,1,374,8,1,1,1,578
375,1,1,375,4,0,0,1,546
376,1,1,376,8,1,1,1,538
377,1,1,377,8,0,0,1,413
378,1,1,378,4,1,1,1,719
379,1,1,379,8,1,1,1,667
380,1,1,380,8,1,1,1,618
381,1,1,381,4,1,1,1,519
382,1,1,382,4,1,1,1,432
383,1,1,383,4,1,1,1,606
384,1,1,384,4,0,0,1,586
385,1,1,385,8,1,1,1,1175
386,1,1,386,4,0,0,1,453
387,1,1,387,8,1,1,1,575
388,1,1,388,4,0,0,1,779
389,1,1,389,4,1,1,1,620
390,1,1,390,4,0,0,1,417
391,1,1,391,4,0,0,1,559
392,1,1,392,8,1,1,1,719
393,1,1,393,8,1,1,1,853
394,1,1,394,8,1,1,1,530
395,1,1,395,8,1,1,1,821
396,1,1,396,4,1,1,1,532
397,1,1,397,8,0,0,1,516
398,1,1,398,8,1,1,1,539
399,1,1,399,8,0,0,1,602
400,1,1,400,8,0,0,0,895
401,1,1,401,4,1,1,1,1128
402,1,1,402,4,1,1,1,540
403,1,1,403,4,1,1,1,400
404,1,1,404,8,1,1,1,999
405,1,1,405,8,0,0,1,1008
406,1,1,406,8,0,0,1,651
407,1,1,407,4,1,1,1,514
408,1,1,408,4,0,0,1,557
409,1,1,409,8,0,0,1,497
410,1,1,410,4,0,0,1,469
411,1,1,411,4,1,1,1,543
412,1,1,412,8,0,0,1,625
413,1,1,413,8,1,1,1,498
414,1,1,414,8,0,0,1,440
415,1,1,415,4,1,1,1,476
416,1,1,416,8,0,0,1,442
417,1,1,417,8,0,0,0,394
418,1,1,418,4,1,1,1,786
419,1,1,419,8,0,0,1,507
420,1,1,420,8,0,0,1,877
421,1,1,421,4,0,0,1,514
422,1,1,422,8,0,0,1,930
423,1,1,423,8,0,0,1,352
424,1,1,424,4,0,0,0,843
425,1,1,425,8,0,0,1,659
426,1,1,426,4,1,1,1,683
427,1,1,427,4,1,1,1,614
428,1,1,428,8,1,1,1,577
429,1,1,429,4,0,0,1,582
430,1,1,430,8,0,0,1,754
431,1,1,431,4,1,1,1,537
432,1,1,432,4,0,0,1,495
433,1,1,433,4,0,0,1,674
434,1,1,434,8,0,0,1,1335
435,1,1,435,8,1,1,1,740
436,1,1,436,8,0,0,1,562
437,1,1,437,8,1,1,1,761
438,1,1,438,4,0,0,1,608
439,1,1,439,4,1,1,1,618
440,1,1,440,4,1,1,1,817
441,1,1,441,8,1,1,1,582
442,1,1,442,4,0,0,1,588
443,1,1,443,4,1,1,1,791
444,1,1,444,8,0,0,1,1079
445,1,1,445,4,0,0,1,707
446,1,1,446,4,1,1,1,659
447,1,1,447,4,1,1,1,535
448,1,1,448,8,1,1,1,653
449,1,1,449,4,1,1,1,652
450,1,1,450,4,1,1,1,832
451,1,1,451,4,0,0,1,846
452,1,1,452,4,1,1,0,689
453,1,1,453,4,0,0,1,712
454,1,1,454,4,0,0,1,674
455,1,1,455,4,0,0,1,858
456,1,1,456,8,0,0,1,910
457,1,1,457,4,0,0,1,607
458,1,1,458,4,1,1,1,871
459,1,1,459,4,1,1,1,717
460,1,1,460,8,1,1,1,740
461,1,1,461,8,0,0,1,638
462,1,1,462,8,1,1,1,826
463,1,1,463,4,0,0,1,492
464,1,1,464,4,1,1,1,568
465,1,1,465,8,1,1,1,652
466,1,1,466,4,0,0,1,881
467,1,1,467,8,0,0,1,885
468,1,1,468,8,0,0,1,909
469,1,1,469,8,1,1,0,624
470,1,1,470,8,0,0,1,740
471,1,1,471,4,1,1,1,591
472,1,1,472,4,0,0,1,685
473,1,1,473,8,1,1,1,623
474,1,1,474,8,1,1,1,1383
475,1,1,475,8,0,0,1,651
476,1,1,476,4,0,0,1,579
477,1,1,477,8,1,1,1,1099
478,1,1,478,4,0,0,1,697
479,1,1,479,8,0,0,1,702
480,1,1,480,4,1,1,1,770
481,1,1,481,4,0,0,1,699
482,1,1,482,8,0,0,1,1155
483,1,1,483,8,1,1,1,755
484,1,1,484,4,0,0,1,480
485,1,1,485,4,0,0,1,645
486,1,1,486,8,0,0,1,991
487,1,1,487,8,1,1,1,598
488,1,1,488,4,0,0,1,525
489,1,1,489,8,0,0,1,825
490,1,1,490,8,1,1,1,518
491,1,1,491,4,1,1,1,979
492,1,1,492,4,0,0,1,562
493,1,1,493,4,1,1,1,727
494,1,1,494,8,1,1,1,469
495,1,1,495,4,0,0,1,523
496,1,1,496,4,1,1,1,579
497,1,1,497,8,1,1,1,1317
498,1,1,498,4,0,0,1,631
499,1,1,499,8,0,0,1,930
500,1,1,500,4,1,1,1,853
501,1,1,501,4,0,0,1,690
502,1,1,502,8,1,1,1,998
503,1,1,503,4,1,1,1,510
504,1,1,504,4,0,0,1,765
505,1,1,505,4,1,1,1,564
506,1,1,506,8,1,1,1,510
507,1,1,507,4,1,1,1,510
508,1,1,508,4,0,0,1,480
509,1,1,509,4,1,1,1,647
510,1,1,510,8,0,0,1,637
511,1,1,511,4,1,1,1,529
512,1,1,512,8,0,0,1,611
513,1,1,513,4,0,0,1,746
514,1,1,514,4,1,1,1,709
515,1,1,515,4,0,0,1,565
516,1,1,516,4,1,1,1,713
517,1,1,517,4,1,1,1,527
518,1,1,518,8,0,0,1,534
519,1,1,519,8,1,1,1,741
520,1,1,520,4,1,1,1,533
521,1,1,521,8,1,1,1,1187
522,1,1,522,8,1,1,1,614
523,1,1,523,4,1,1,1,666
524,1,1,524,8,0,0,1,478
525,1,1,525,8,0,0,1,609
526,1,1,526,8,0,0,1,387
527,1,1,527,4,0,0,1,695
528,1,1,528,4,1,1,1,506
529,1,1,529,4,1,1,1,498
530,1,1,530,4,1,1,1,411
531,1,1,531,4,1,1,1,379
532,1,1,532,4,0,0,1,369
533,1,1,533,8,1,1,1,985
534,1,1,534,8,1,1,1,700
535,1,1,535,4,0,0,0,499
536,1,1,536,8,1,1,1,909
537,1,1,537,8,1,1,1,1443
538,1,1,538,8,0,0,1,986
539,1,1,539,8,1,1,1,589
540,1,1,540,8,0,0,1,686
541,1,1,541,4,1,1,1,582
542,1,1,542,8,1,1,1,670
543,1,1,543,4,0,0,1,601
544,1,1,544,4,0,0,1,459
545,1,1,545,4,0,0,1,486
546,1,1,546,8,1,1,1,1356
547,1,1,547,4,1,1,1,645
548,1,1,548,8,1,1,1,848
549,1,1,549,8,0,0,1,472
550,1,1,550,4,1,1,1,549
551,1,1,551,8,0,0,1,1030
552,1,1,552,4,1,1,1,597
553,1,1,553,8,0,0,1,474
554,1,1,554,4,1,1,1,536
555,1,1,555,8,0,0,1,843
556,1,1,556,4,0,0,1,675
557,1,1,557,8,1,1,1,1049
558,1,1,558,4,0,0,1,581
559,1,1,559,8,1,1,1,585
560,1,1,560,4,1,1,1,515
561,1,1,561,8,1,1,1,919
562,1,1,562,8,1,1,1,1006
563,1,1,563,4,0,0,1,427
564,1,1,564,8,1,1,1,893
565,1,1,565,4,1,1,1,610
566,1,1,566,4,1,1,1,601
567,1,1,567,4,0,0,1,775
568,1,1,568,8,1,1,1,650
569,1,1,569,4,0,0,1,539
570,1,1,570,8,1,1,1,696
571,1,1,571,8,1,1,1,792
572,1,1,572,4,1,1,1,698
573,1,1,573,8,1,1,1,914
574,1,1,574,4,1,1,1,620
575,1,1,575,4,0,0,1,545
576,1,1,576,8,0,0,1,680
577,1,1,577,4,1,1,1,466
578,1,1,578,8,1,1,1,481
579,1,1,579,8,1,1,1,470
580,1,1,580,4,1,1,1,463
581,1,1,581,8,1,1,1,454
582,1,1,582,8,1,1,1,439
583,1,1,583,4,0,0,1,439
584,1,1,584,8,0,0,1,537
585,1,1,585,8,0,0,1,502
586,1,1,586,4,1,1,1,479
587,1,1,587,8,1,1,1,909
588,1,1,588,8,1,1,1,671
589,1,1,589,8,0,0,1,515
590,1,1,590,8,1,1,1,821
591,1,1,591,4,0,0,1,470
592,1,1,592,4,0,0,1,539
593,1,1,593,4,0,0,1,751
594,1,1,594,8,0,0,1,733
595,1,1,595,4,1,1,1,518
596,1,1,596,4,1,1,1,507
597,1,1,597,8,1,1,1,512
598,1,1,598,4,0,0,1,514
599,1,1,599,8,1,1,1,811
600,1,1,600,4,1,1,1,661
601,2,1,1,8,0,0,1,1900
602,2,1,2,8,0,0,1,1792
603,2,1,3,4,0,0,1,1583
604,2,1,4,4,0,0,1,1695
605,2,1,5,8,0,0,1,1778
606,2,1,6,8,0,0,1,1346
607,2,1,7,8,0,0,1,1694
608,2,1,8,4,0,0,1,901
609,2,1,9,4,0,0,1,856
610,2,1,10,4,1,1,1,846
611,2,1,11,8,0,0,1,1301
612,2,1,12,8,1,1,1,1127
613,2,1,13,4,0,0,1,818
614,2,1,14,4,0,0,1,934
615,2,1,15,8,0,0,1,1881
616,2,1,16,4,0,0,1,872
617,2,1,17,4,0,0,1,1133
618,2,1,18,4,0,0,1,621
619,2,1,19,8,1,1,1,1366
620,2,1,20,8,1,1,1,1928
621,2,1,21,8,1,1,1,896
622,2,1,22,8,1,1,1,881
623,2,1,23,8,0,0,1,955
624,2,1,24,8,1,1,1,1025
625,2,1,25,8,0,0,1,1064
626,2,1,26,8,0,0,1,1130
627,2,1,27,4,0,0,1,674
628,2,1,28,4,1,1,1,754
629,2,1,29,8,1,1,1,1309
630,2,1,30,8,1,1,1,976
631,2,1,31,8,1,1,1,1667
632,2,1,32,8,0,0,1,1128
633,2,1,33,8,0,0,1,1023
634,2,1,34,8,1,1,1,679
635,2,1,35,8,1,1,1,950
636,2,1,36,8,1,1,1,1065
637,2,1,37,4,0,0,1,1090
638,2,1,38,4,1,1,1,892
639,2,1,39,4,0,0,1,1510
640,2,1,40,8,0,0,1,855
641,2,1,41,8,0,0,1,972
642,2,1,42,4,0,0,1,1170
643,2,1,43,8,0,0,1,890
644,2,1,44,4,0,0,1,787
645,2,1,45,8,0,0,1,1074
646,2,1,46,4,1,1,1,1358
647,2,1,47,8,1,1,1,933
648,2,1,48,4,0,0,1,1381
649,2,1,49,4,0,0,1,680
650,2,1,50,4,1,1,1,871
651,2,1,51,8,1,1,1,977
652,2,1,52,8,0,0,1,979
653,2,1,53,4,1,1,1,739
654,2,1,54,8,0,0,1,1165
655,2,1,55,8,0,0,1,684
656,2,1,56,4,1,1,1,966
657,2,1,57,4,0,0,1,1053
658,2,1,58,8,1,1,1,1632
659,2,1,59,4,1,1,1,1409
660,2,1,60,4,1,1,1,1236
661,2,1,61,8,1,1,1,915
662,2,1,62,4,1,1,1,581
663,2,1,63,8,0,0,1,762
664,2,1,64,8,1,1,1,885
665,2,1,65,4,1,1,1,1478
666,2,1,66,4,1,1,1,1274
667,2,1,67,4,0,0,1,1139
668,2,1,68,4,1,1,1,823
669,2,1,69,4,0,0,1,695
670,2,1,70,4,1,1,1,1179
671,2,1,71,8,0,0,1,1249
672,2,1,72,4,1,1,1,597
673,2,1,73,8,1,1,1,1566
674,2,1,74,8,1,1,1,804
675,2,1,75,4,1,1,1,771
676,2,1,76,4,1,1,1,591
677,2,1,77,4,0,0,1,867
678,2,1,78,4,0,0,1,681
679,2,1,79,8,0,0,1,1538
680,2,1,80,4,1,1,1,636
681,2,1,81,8,1,1,1,904
682,2,1,82,8,1,1,1,1243
683,2,1,83,8,0,0,1,1122
684,2,1,84,8,1,1,1,1333
685,2,1,85,8,0,0,1,1146
686,2,1,86,4,1,1,1,827
687,2,1,87,4,1,1,1,573
688,2,1,88,8,1,1,1,837
689,2,1,89,4,1,1,1,598
690,2,1,90,8,0,0,1,1022
691,2,1,91,4,1,1,1,1402
692,2,1,92,4,1,1,1,763
693,2,1,93,8,0,0,1,1670
694,2,1,94,4,0,0,1,777
695,2,1,95,8,0,0,1,1459
696,2,1,96,4,0,0,1,1255
697,2,1,97,8,1,1,1,898
698,2,1,98,4,0,0,1,755
699,2,1,99,4,1,1,1,1036
700,2,1,100,4,1,1,1,690
701,2,1,101,4,1,1,1,1044
702,2,1,102,4,1,1,1,2039
703,2,1,103,8,0,0,1,1197
704,2,1,104,8,1,1,1,1150
705,2,1,105,4,1,1,1,1186
706,2,1,106,4,0,0,1,1039
707,2,1,107,8,0,0,1,1141
708,2,1,108,8,0,0,1,1712
709,2,1,109,4,0,0,1,609
710,2,1,110,4,0,0,1,751
711,2,1,111,8,1,1,1,1288
712,2,1,112,4,0,0,1,1065
713,2,1,113,4,0,0,1,963
714,2,1,114,8,0,0,1,1403
715,2,1,115,8,0,0,1,1031
716,2,1,116,8,1,1,1,851
717,2,1,117,8,0,0,1,902
718,2,1,118,4,1,1,1,989
719,2,1,119,8,0,0,1,1185
720,2,1,120,8,0,0,1,865
721,2,1,121,8,0,0,1,640
722,2,1,122,8,1,1,1,1002
723,2,1,123,8,0,0,1,762
724,2,1,124,8,1,1,1,1113
725,2,1,125,8,0,0,1,687
726,2,1,126,4,1,1,1,796
727,2,1,127,8,0,0,1,657
728,2,1,128,4,0,0,1,864
729,2,1,129,4,1,1,1,850
730,2,1,130,4,1,1,1,752
731,2,1,131,8,1,1,1,785
732,2,1,132,8,1,1,1,544
733,2,1,133,4,0,0,1,756
734,2,1,134,8,1,1,1,795
735,2,1,135,8,1,1,1,1179
736,2,1,136,8,0,0,1,1091
737,2,1,137,4,0,0,1,1269
738,2,1,138,8,0,0,1,910
739,2,1,139,8,0,0,1,748
740,2,1,140,4,0,0,1,980
741,2,1,141,4,1,1,1,1039
742,2,1,142,8,1,1,1,1968
743,2,1,143,8,1,1,1,1806
744,2,1,144,4,1,1,1,994
745,2,1,145,4,0,0,1,681
746,2,1,146,4,0,0,1,1068
747,2,1,147,4,0,0,1,908
748,2,1,148,8,0,0,1,887
749,2,1,149,4,0,0,1,858
750,2,1,150,8,1,1,1,1492
751,2,1,151,4,1,1,1,582
752,2,1,152,4,0,0,1,745
753,2,1,153,8,1,1,1,1015
754,2,1,154,4,0,0,1,584
755,2,1,155,8,0,0,1,2334
756,2,1,156,4,1,1,1,571
757,2,1,157,8,0,0,1,595
758,2,1,158,8,0,0,1,582
759,2,1,159,4,0,0,1,757
760,2,1,160,8,0,0,1,1504
761,2,1,161,4,1,1,1,1188
762,2,1,162,8,0,0,1,1082
763,2,1,163,4,0,0,1,820
764,2,1,164,8,1,1,1,1736
765,2,1,165,8,0,0,1,867
766,2,1,166,8,1,1,1,1338
767,2,1,167,4,1,1,1,906
768,2,1,168,8,0,0,1,917
769,2,1,169,4,0,0,1,562
770,2,1,170,8,1,1,1,1334
771,2,1,171,4,0,0,1,611
772,2,1,172,4,1,1,1,945
773,2,1,173,8,0,0,1,2328
774,2,1,174,4,0,0,1,665
775,2,1,175,4,0,0,1,596
776,2,1,176,8,0,0,1,1231
777,2,1,177,4,1,1,1,1009
778,2,1,178,4,1,1,1,1070
779,2,1,179,8,1,1,1,1090
780,2,1,180,4,0,0,1,807
781,2,1,181,4,0,0,1,785
782,2,1,182,8,0,0,1,940
783,2,1,183,8,0,0,1,1240
784,2,1,184,8,0,0,1,719
785,2,1,185,8,1,1,1,1520
786,2,1,186,4,0,0,1,1284
787,2,1,187,8,0,0,1,1101
788,2,1,188,4,1,1,0,951
789,2,1,189,4,0,0,1,647
790,2,1,190,4,1,1,1,846
791,2,1,191,4,0,0,1,1290
792,2,1,192,8,0,0,1,909
793,2,1,193,8,1,1,1,1288
794,2,1,194,4,1,1,1,903
795,2,1,195,4,0,0,1,1223
796,2,1,196,8,0,0,1,2026
797,2,1,197,8,1,1,1,715
798,2,1,198,8,1,1,1,574
799,2,1,199,8,1,1,1,1176
800,2,1,200,4,1,1,1,1012
801,2,1,201,4,1,1,1,1017
802,2,1,202,4,0,0,1,919
803,2,1,203,8,1,1,1,676
804,2,1,204,8,0,0,1,978
805,2,1,205,8,0,0,1,1021
806,2,1,206,4,1,1,1,581
807,2,1,207,4,1,1,1,660
808,2,1,208,4,0,0,1,603
809,2,1,209,4,1,1,1,1023
810,2,1,210,8,0,0,1,1099
811,2,1,211,4,0,0,1,932
812,2,1,212,4,0,0,1,959
813,2,1,213,8,0,0,1,972
814,2,1,214,8,0,0,1,788
815,2,1,215,8,1,1,1,1140
816,2,1,216,8,1,1,1,635
817,2,1,217,4,1,1,1,765
818,2,1,218,8,0,0,1,910
819,2,1,219,8,0,0,1,630
820,2,1,220,4,0,0,1,1040
821,2,1,221,8,1,1,1,583
822,2,1,222,4,1,1,1,733
823,2,1,223,8,1,1,1,1133
824,2,1,224,8,1,1,1,1166
825,2,1,225,4,1,1,1,840
826,2,1,226,8,1,1,1,1050
827,2,1,227,4,0,0,1,926
828,2,1,228,4,0,0,1,716
829,2,1,229,8,0,0,1,783
830,2,1,230,4,0,0,1,1030
831,2,1,231,8,1,1,1,1230
832,2,1,232,4,0,0,1,658
833,2,1,233,4,1,1,1,563
834,2,1,234,4,1,1,1,727
835,2,1,235,8,1,1,1,740
836,2,1,236,8,1,1,1,1115
837,2,1,237,4,0,0,1,764
838,2,1,238,8,1,1,1,1213
839,2,1,239,8,0,0,1,821
840,2,1,240,8,0,0,1,592
841,2,1,241,4,1,1,1,1123
842,2,1,242,8,1,1,1,1657
843,2,1,243,4,1,1,1,876
844,2,1,244,4,1,1,1,732
845,2,1,245,4,0,0,1,783
846,2,1,246,8,0,0,1,812
847,2,1,247,4,0,0,1,884
848,2,1,248,4,0,0,1,1355
849,2,1,249,8,0,0,1,1279
850,2,1,250,4,1,1,1,875
851,2,1,251,8,0,0,1,1227
852,2,1,252,8,1,1,1,691
853,2,1,253,4,0,0,1,831
854,2,1,254,8,0,0,1,859
855,2,1,255,8,0,0,1,1890
856,2,1,256,4,1,1,1,1001
857,2,1,257,4,1,1,1,594
858,2,1,258,4,1,1,1,547
859,2,1,259,8,1,1,1,713
860,2,1,260,4,1,1,1,801
861,2,1,261,8,1,1,1,515
862,2,1,262,4,0,0,1,1110
863,2,1,263,4,1,1,1,696
864,2,1,264,4,1,1,1,1304
865,2,1,265,4,1,1,1,1032
866,2,1,266,8,1,1,1,1280
867,2,1,267,4,1,1,1,550
868,2,1,268,8,1,1,1,698
869,2,1,269,8,1,1,1,1049
870,2,1,270,8,0,0,1,639
871,2,1,271,4,0,0,1,1433
872,2,1,272,8,1,1,1,1217
873,2,1,273,8,1,1,1,1246
874,2,1,274,4,1,1,1,1139
875,2,1,275,4,0,0,0,560
876,2,1,276,4,0,0,1,818
877,2,1,277,8,1,1,1,1376
878,2,1,278,4,0,0,1,998
879,2,1,279,4,1,1,1,886
880,2,1,280,4,0,0,1,694
881,2,1,281,8,1,1,1,655
882,2,1,282,4,0,0,1,700
883,2,1,283,8,1,1,1,1315
884,2,1,284,4,1,1,1,694
885,2,1,285,4,1,1,1,822
886,2,1,286,4,0,0,1,488
887,2,1,287,8,1,1,1,1081
888,2,1,288,4,1,1,1,589
889,2,1,289,4,1,1,1,1281
890,2,1,290,4,0,0,1,578
891,2,1,291,8,0,0,1,1009
892,2,1,292,4,1,1,1,809
893,2,1,293,4,1,1,1,1182
894,2,1,294,8,1,1,1,1434
895,2,1,295,4,0,0,1,895
896,2,1,296,4,1,1,1,918
897,2,1,297,8,0,0,1,828
898,2,1,298,4,0,0,1,976
899,2,1,299,4,0,0,1,724
900,2,1,300,8,0,0,1,1713
901,2,1,301,4,1,1,1,1388
902,2,1,302,8,0,0,1,1230
903,2,1,303,8,1,1,1,705
904,2,1,304,4,0,0,1,569
905,2,1,305,4,1,1,1,914
906,2,1,306,4,0,0,1,1124
907,2,1,307,4,0,0,1,544
908,2,1,308,8,1,1,1,992
909,2,1,309,4,1,1,1,901
910,2,1,310,4,1,1,1,763
911,2,1,311,8,1,1,1,1618
912,2,1,312,8,1,1,1,773
913,2,1,313,4,0,0,1,1080
914,2,1,314,8,1,1,1,986
915,2,1,315,8,0,0,1,862
916,2,1,316,8,1,1,1,605
917,2,1,317,4,1,1,1,849
918,2,1,318,8,0,0,0,794
919,2,1,319,8,1,1,1,1119
920,2,1,320,4,0,0,1,703
921,2,1,321,8,0,0,1,717
922,2,1,322,8,0,0,1,1445
923,2,1,323,8,0,0,1,1608
924,2,1,324,8,1,1,1,1355
925,2,1,325,8,0,0,1,807
926,2,1,326,4,0,0,1,710
927,2,1,327,8,1,1,1,1412
928,2,1,328,8,0,0,1,711
929,2,1,329,4,0,0,1,1065
930,2,1,330,8,1,1,1,1120
931,2,1,331,8,0,0,1,918
932,2,1,332,8,1,1,1,1044
933,2,1,333,4,0,0,1,1286
934,2,1,334,4,0,0,1,847
935,2,1,335,4,1,1,1,612
936,2,1,336,4,1,1,1,949
937,2,1,337,4,1,1,1,671
938,2,1,338,8,1,1,1,954
939,2,1,339,4,0,0,1,878
940,2,1,340,8,0,0,1,1745
941,2,1,341,4,0,0,1,997
942,2,1,342,8,1,1,1,1425
943,2,1,343,8,1,1,1,1613
944,2,1,344,8,1,1,1,825
945,2,1,345,8,1,1,1,1002
946,2,1,346,8,1,1,1,677
947,2,1,347,4,0,0,1,544
948,2,1,348,4,0,0,1,628
949,2,1,349,4,1,1,1,576
950,2,1,350,8,0,0,1,957
951,2,1,351,4,1,1,1,1277
952,2,1,352,8,0,0,1,762
953,2,1,353,4,1,1,1,764
954,2,1,354,8,0,0,1,1195
955,2,1,355,8,1,1,1,1531
956,2,1,356,8,1,1,1,722
957,2,1,357,4,1,1,1,966
958,2,1,358,8,0,0,1,1133
959,2,1,359,4,0,0,1,595
960,2,1,360,4,1,1,1,572
961,2,1,361,8,1,1,1,1184
962,2,1,362,8,0,0,1,1066
963,2,1,363,4,1,1,1,694
964,2,1,364,8,1,1,1,1134
965,2,1,365,8,1,1,1,1018
966,2,1,366,8,0,0,1,513
967,2,1,367,8,0,0,1,694
968,2,1,368,8,0,0,1,1243
969,2,1,369,4,0,0,1,781
970,2,1,370,8,0,0,1,587
971,2,1,371,4,0,0,1,859
972,2,1,372,8,1,1,1,1202
973,2,1,373,4,1,1,1,521
974,2,1,374,4,1,1,1,537
975,2,1,375,8,1,1,1,846
976,2,1,376,8,1,1,1,1453
977,2,1,377,4,0,0,1,576
978,2,1,378,4,1,1,1,604
979,2,1,379,4,0,0,1,855
980,2,1,380,4,0,0,1,647
981,2,1,381,8,1,1,1,1302
982,2,1,382,4,0,0,1,886
983,2,1,383,4,1,1,1,1432
984,2,1,384,8,1,1,1,1117
985,2,1,385,8,1,1,1,718
986,2,1,386,8,0,0,1,797
987,2,1,387,4,1,1,1,701
988,2,1,388,4,0,0,1,645
989,2,1,389,4,1,1,1,743
990,2,1,390,8,0,0,1,1199
991,2,1,391,8,0,0,1,937
992,2,1,392,4,1,1,1,1020
993,2,1,393,8,1,1,1,620
994,2,1,394,4,0,0,1,756
995,2,1,395,4,1,1,1,903
996,2,1,396,8,0,0,1,1661
997,2,1,397,8,1,1,1,620
998,2,1,398,8,1,1,1,1014
999,2,1,399,4,0,0,1,662
1000,2,1,400,8,0,0,1,1196
1001,2,1,401,4,0,0,1,667
1002,2,1,402,4,0,0,1,765
1003,2,1,403,8,0,0,1,746
1004,2,1,404,8,1,1,1,1294
1005,2,1,405,8,0,0,1,1050
1006,2,1,406,4,0,0,1,848
1007,2,1,407,4,1,1,1,499
1008,2,1,408,4,0,0,1,751
1009,2,1,409,8,0,0,1,2009
1010,2,1,410,8,1,1,1,1074
1011,2,1,411,4,0,0,1,647
1012,2,1,412,8,1,1,1,1019
1013,2,1,413,8,0,0,1,569
1014,2,1,414,8,0,0,1,1077
1015,2,1,415,4,0,0,1,1050
1016,2,1,416,8,0,0,1,970
1017,2,1,417,4,0,0,1,1058
1018,2,1,418,4,1,1,1,720
1019,2,1,419,4,0,0,1,704
1020,2,1,420,8,0,0,1,1152
1021,2,1,421,4,1,1,1,947
1022,2,1,422,8,0,0,1,783
1023,2,1,423,8,1,1,1,696
1024,2,1,424,4,0,0,1,697
1025,2,1,425,8,0,0,1,661
1026,2,1,426,8,0,0,1,1383
1027,2,1,427,4,0,0,1,1133
1028,2,1,428,4,1,1,1,1588
1029,2,1,429,4,0,0,1,872
1030,2,1,430,8,0,0,1,926
1031,2,1,431,8,0,0,1,1847
1032,2,1,432,4,1,1,1,1296
1033,2,1,433,4,1,1,1,607
1034,2,1,434,8,0,0,1,1689
1035,2,1,435,4,0,0,1,701
1036,2,1,436,8,0,0,1,914
1037,2,1,437,4,0,0,1,519
1038,2,1,438,4,1,1,1,841
1039,2,1,439,8,0,0,1,1034
1040,2,1,440,8,1,1,1,1360
1041,2,1,441,8,0,0,1,918
1042,2,1,442,4,1,1,1,1211
1043,2,1,443,4,0,0,1,762
1044,2,1,444,4,1,1,1,899
1045,2,1,445,8,0,0,1,985
1046,2,1,446,8,1,1,1,946
1047,2,1,447,8,1,1,1,774
1048,2,1,448,4,0,0,1,1513
1049,2,1,449,8,1,1,1,1154
1050,2,1,450,4,0,0,1,577
1051,2,1,451,4,0,0,1,996
1052,2,1,452,4,1,1,1,1082
1053,2,1,453,8,0,0,1,1039
1054,2,1,454,8,0,0,1,924
1055,2,1,455,4,0,0,0,1002
1056,2,1,456,4,0,0,1,1197
1057,2,1,457,4,0,0,1,643
1058,2,1,458,8,0,0,1,840
1059,2,1,459,8,1,1,1,708
1060,2,1,460,4,1,1,1,1134
1061,2,1,461,4,0,0,1,1403
1062,2,1,462,4,1,1,1,1028
1063,2,1,463,8,1,1,1,1141
1064,2,1,464,4,1,1,1,533
1065,2,1,465,8,1,1,1,803
1066,2,1,466,8,1,1,1,1287
1067,2,1,467,4,1,1,1,751
1068,2,1,468,4,0,0,1,1274
1069,2,1,469,4,1,1,1,1021
1070,2,1,470,8,0,0,1,984
1071,2,1,471,8,1,1,1,1783
1072,2,1,472,8,0,0,1,921
1073,2,1,473,4,1,1,1,1157
1074,2,1,474,4,0,0,1,762
1075,2,1,475,8,0,0,1,598
1076,2,1,476,4,1,1,1,838
1077,2,1,477,4,1,1,1,534
1078,2,1,478,4,0,0,1,867
1079,2,1,479,8,0,0,1,1571
1080,2,1,480,4,0,0,1,1359
1081,2,1,481,8,0,0,1,1169
1082,2,1,482,8,1,1,1,901
1083,2,1,483,4,0,0,1,641
1084,2,1,484,8,1,1,1,1545
1085,2,1,485,4,1,1,1,926
1086,2,1,486,4,0,0,1,1123
1087,2,1,487,8,0,0,1,967
1088,2,1,488,4,1,1,1,1242
1089,2,1,489,4,1,1,1,884
1090,2,1,490,4,1,1,1,569
1091,2,1,491,4,0,0,1,1309
1092,2,1,492,4,1,1,1,730
1093,2,1,493,8,1,1,1,853
1094,2,1,494,8,0,0,1,2033
1095,2,1,495,4,1,1,1,863
1096,2,1,496,8,1,1,1,1355
1097,2,1,497,8,1,1,1,630
1098,2,1,498,8,0,0,1,824
1099,2,1,499,4,1,1,1,947
1100,2,1,500,4,0,0,1,627
1101,2,1,501,4,0,0,1,973
1102,2,1,502,8,1,1,1,735
1103,2,1,503,8,1,1,1,499
1104,2,1,504,4,1,1,1,509
1105,2,1,505,8,1,1,1,787
1106,2,1,506,8,1,1,1,867
1107,2,1,507,8,0,0,0,1627
1108,2,1,508,8,1,1,1,722
1109,2,1,509,4,1,1,1,1233
1110,2,1,510,4,1,1,1,1565
1111,2,1,511,4,0,0,1,1141
1112,2,1,512,4,1,1,1,924
1113,2,1,513,4,1,1,1,1166
1114,2,1,514,4,1,1,1,641
1115,2,1,515,8,0,0,1,833
1116,2,1,516,8,0,0,1,1454
1117,2,1,517,8,0,0,1,1815
1118,2,1,518,8,1,1,1,1930
1119,2,1,519,4,1,1,1,764
1120,2,1,520,4,0,0,1,1085
1121,2,1,521,4,0,0,1,500
1122,2,1,522,8,1,1,1,995
1123,2,1,523,8,0,0,1,1216
1124,2,1,524,8,0,0,1,1532
1125,2,1,525,8,1,1,1,1271
1126,2,1,526,8,0,0,1,889
1127,2,1,527,4,1,1,1,810
1128,2,1,528,8,1,1,1,2056
1129,2,1,529,8,0,0,1,1069
1130,2,1,530,4,1,1,1,1000
1131,2,1,531,4,0,0,1,831
1132,2,1,532,8,1,1,1,904
1133,2,1,533,4,1,1,1,611
1134,2,1,534,4,0,0,1,736
1135,2,1,535,4,1,1,1,520
1136,2,1,536,8,0,0,1,664
1137,2,1,537,8,1,1,1,1135
1138,2,1,538,4,1,1,1,771
1139,2,1,539,4,0,0,1,904
1140,2,1,540,4,1,1,1,907
1141,2,1,541,4,0,0,1,1548
1142,2,1,542,4,1,1,1,544
1143,2,1,543,8,0,0,1,1872
1144,2,1,544,8,0,0,1,677
1145,2,1,545,4,1,3,0,840
1146,2,1,546,4,0,0,1,681
1147,2,1,547,8,0,0,1,496
1148,2,1,548,8,0,0,1,691
1149,2,1,549,4,1,1,1,858
1150,2,1,550,4,0,0,1,770
1151,2,1,551,8,1,1,1,1154
1152,2,1,552,8,0,0,1,1100
1153,2,1,553,4,1,1,1,1183
1154,2,1,554,4,1,1,1,564
1155,2,1,555,4,1,1,1,1206
1156,2,1,556,8,0,0,1,1021
1157,2,1,557,8,1,1,1,1098
1158,2,1,558,4,1,1,1,626
1159,2,1,559,8,1,1,1,1030
1160,2,1,560,8,1,1,1,850
1161,2,1,561,8,0,0,1,1663
1162,2,1,562,4,1,1,1,789
1163,2,1,563,8,1,1,1,1062
1164,2,1,564,4,0,0,1,668
1165,2,1,565,8,1,1,1,1232
1166,2,1,566,8,0,0,1,1314
1167,2,1,567,4,1,1,1,1988
1168,2,1,568,4,0,0,1,592
1169,2,1,569,8,1,1,1,501
1170,2,1,570,8,1,1,1,520
1171,2,1,571,4,0,0,1,911
1172,2,1,572,8,0,0,1,718
1173,2,1,573,4,0,0,1,1046
1174,2,1,574,8,1,1,1,1277
1175,2,1,575,4,0,0,1,1261
1176,2,1,576,8,1,1,1,1401
1177,2,1,577,8,1,1,1,1468
1178,2,1,578,8,1,1,1,589
1179,2,1,579,4,1,1,1,939
1180,2,1,580,8,1,1,1,779
1181,2,1,581,8,1,1,1,763
1182,2,1,582,4,0,0,1,747
1183,2,1,583,4,0,0,1,1134
1184,2,1,584,4,0,0,1,702
1185,2,1,585,8,1,1,1,1536
1186,2,1,586,8,1,1,1,1184
1187,2,1,587,8,1,1,1,714
1188,2,1,588,8,0,0,1,983
1189,2,1,589,8,1,1,1,896
1190,2,1,590,4,1,1,1,975
1191,2,1,591,8,0,0,1,1102
1192,2,1,592,4,1,1,1,925
1193,2,1,593,4,1,1,1,1019
1194,2,1,594,4,0,0,1,864
1195,2,1,595,4,0,0,1,683
1196,2,1,596,4,1,1,1,981
1197,2,1,597,4,0,0,1,595
1198,2,1,598,4,1,1,1,963
1199,2,1,599,8,1,1,1,686
1200,2,1,600,8,0,0,1,1121
1201,3,1,1,8,0,3,0,4993
1202,3,1,2,4,1,1,1,2975
1203,3,1,3,8,0,0,1,1686
1204,3,1,4,8,0,0,1,1254
1205,3,1,5,8,1,1,0,1482
1206,3,1,6,8,1,1,1,2801
1207,3,1,7,4,1,1,1,996
1208,3,1,8,8,0,0,1,912
1209,3,1,9,8,1,1,1,1782
1210,3,1,10,8,1,1,1,1232
1211,3,1,11,8,0,0,1,951
1212,3,1,12,4,0,0,1,969
1213,3,1,13,8,1,1,1,604
1214,3,1,14,4,1,1,1,899
1215,3,1,15,4,0,0,1,622
1216,3,1,16,4,0,0,1,807
1217,3,1,17,8,0,0,1,796
1218,3,1,18,8,1,1,1,858
1219,3,1,19,8,1,1,1,853
1220,3,1,20,8,1,1,1,689
1221,3,1,21,4,1,1,1,1555
1222,3,1,22,4,0,0,1,926
1223,3,1,23,4,1,1,1,1295
1224,3,1,24,4,1,1,1,1300
1225,3,1,25,4,1,1,1,996
1226,3,1,26,4,0,0,1,565
1227,3,1,27,8,0,0,1,900
1228,3,1,28,4,0,0,1,838
1229,3,1,29,4,0,0,1,730
1230,3,1,30,4,1,1,1,634
1231,3,1,31,4,0,0,1,870
1232,3,1,32,8,0,0,1,1335
1233,3,1,33,8,1,1,1,924
1234,3,1,34,4,0,0,1,1938
1235,3,1,35,8,1,1,1,529
1236,3,1,36,4,1,1,1,569
1237,3,1,37,8,0,0,0,1492
1238,3,1,38,8,0,0,1,800
1239,3,1,39,8,1,1,1,546
1240,3,1,40,4,1,1,1,1487
1241,3,1,41,8,1,1,1,1287
1242,3,1,42,8,0,0,1,946
1243,3,1,43,4,0,0,1,1147
1244,3,1,44,8,1,1,1,565
1245,3,1,45,8,1,1,1,1161
1246,3,1,46,4,1,1,1,665
1247,3,1,47,4,0,0,1,641
1248,3,1,48,8,1,1,1,1307
1249,3,1,49,4,1,1,1,863
1250,3,1,50,4,1,1,1,762
1251,3,1,51,8,1,1,1,723
1252,3,1,52,8,1,1,1,565
1253,3,1,53,4,0,0,1,532
1254,3,1,54,4,0,0,1,786
1255,3,1,55,4,1,1,1,724
1256,3,1,56,8,0,0,1,489
1257,3,1,57,8,1,1,1,978
1258,3,1,58,4,1,1,1,590
1259,3,1,59,8,0,0,1,2048
1260,3,1,60,4,0,0,1,840
1261,3,1,61,4,1,1,1,793
1262,3,1,62,4,0,0,1,782
1263,3,1,63,4,0,0,1,631
1264,3,1,64,8,0,0,1,990
1265,3,1,65,4,1,1,1,523
1266,3,1,66,8,1,1,1,494
1267,3,1,67,4,0,0,1,580
1268,3,1,68,8,0,0,1,956
1269,3,1,69,4,1,1,1,591
1270,3,1,70,8,0,0,1,2219
1271,3,1,71,4,0,0,1,597
1272,3,1,72,8,1,1,1,659
1273,3,1,73,8,0,0,1,1233
1274,3,1,74,4,0,0,1,1155
1275,3,1,75,4,0,0,1,646
1276,3,1,76,4,1,1,1,517
1277,3,1,77,4,0,0,1,484
1278,3,1,78,8,1,1,1,527
1279,3,1,79,8,0,0,1,1026
1280,3,1,80,8,0,0,1,638
1281,3,1,81,4,0,0,1,994
1282,3,1,82,8,1,1,1,679
1283,3,1,83,4,1,1,1,905
1284,3,1,84,4,1,1,1,551
1285,3,1,85,4,0,0,1,807
1286,3,1,86,4,0,0,1,476
1287,3,1,87,4,0,0,1,506
1288,3,1,88,4,0,0,1,529
1289,3,1,89,8,0,0,1,742
1290,3,1,90,8,0,0,1,1215
1291,3,1,91,8,1,1,1,472
1292,3,1,92,4,1,1,1,457
1293,3,1,93,4,0,0,1,962
1294,3,1,94,4,0,0,1,775
1295,3,1,95,8,1,1,1,620
1296,3,1,96,4,0,0,1,401
1297,3,1,97,8,0,0,1,607
1298,3,1,98,4,0,0,1,687
1299,3,1,99,8,1,1,1,1389
1300,3,1,100,4,1,1,1,632
1301,3,1,101,8,0,0,1,997
1302,3,1,102,8,0,0,1,798
1303,3,1,103,4,1,1,1,590
1304,3,1,104,4,1,1,1,609
1305,3,1,105,4,1,1,1,851
1306,3,1,106,8,1,1,1,854
1307,3,1,107,8,0,0,1,1088
1308,3,1,108,8,0,0,1,963
1309,3,1,109,8,1,1,1,571
1310,3,1,110,8,1,1,1,1158
1311,3,1,111,4,1,1,1,469
1312,3,1,112,8,1,1,1,649
1313,3,1,113,8,1,1,1,971
1314,3,1,114,4,0,0,1,1029
1315,3,1,115,4,0,0,1,1101
1316,3,1,116,8,1,1,1,993
1317,3,1,117,4,0,0,1,953
1318,3,1,118,8,1,1,1,859
1319,3,1,119,4,0,0,1,1077
1320,3,1,120,4,0,0,1,848
1321,3,1,121,8,0,0,1,928
1322,3,1,122,8,1,1,1,1574
1323,3,1,123,4,1,1,1,956
1324,3,1,124,4,1,1,1,652
1325,3,1,125,4,0,0,1,652
1326,3,1,126,8,1,1,1,852
1327,3,1,127,8,1,1,1,563
1328,3,1,128,4,0,0,1,644
1329,3,1,129,8,0,0,1,923
1330,3,1,130,4,0,0,1,896
1331,3,1,131,8,1,1,1,511
1332,3,1,132,4,0,0,1,824
1333,3,1,133,8,0,0,1,1163
1334,3,1,134,4,1,1,1,917
1335,3,1,135,8,1,1,1,1548
1336,3,1,136,4,1,1,1,452
1337,3,1,137,8,0,0,1,1439
1338,3,1,138,4,0,0,1,584
1339,3,1,139,8,0,0,1,514
1340,3,1,140,4,0,0,1,490
1341,3,1,141,4,1,1,1,564
1342,3,1,142,4,0,0,1,1043
1343,3,1,143,8,1,1,1,1339
1344,3,1,144,8,1,1,1,1133
1345,3,1,145,8,1,1,1,1098
1346,3,1,146,4,0,0,1,1164
1347,3,1,147,8,1,1,1,444
1348,3,1,148,8,0,0,1,1457
1349,3,1,149,8,1,1,1,833
1350,3,1,150,4,0,0,1,1238
1351,3,1,151,4,1,1,1,891
1352,3,1,152,8,0,0,1,520
1353,3,1,153,4,0,0,1,747
1354,3,1,154,8,0,0,1,1092
1355,3,1,155,8,1,1,1,1425
1356,3,1,156,4,1,1,1,779
1357,3,1,157,8,1,1,1,605
1358,3,1,158,4,1,1,1,460
1359,3,1,159,4,1,1,1,426
1360,3,1,160,4,1,1,1,516
1361,3,1,161,8,0,0,1,371
1362,3,1,162,4,1,1,1,868
1363,3,1,163,8,1,1,1,931
1364,3,1,164,8,1,1,1,842
1365,3,1,165,8,0,0,1,799
1366,3,1,166,8,0,0,1,631
1367,3,1,167,4,1,1,1,1090
1368,3,1,168,8,1,1,1,1285
1369,3,1,169,8,0,0,1,995
1370,3,1,170,4,0,0,1,546
1371,3,1,171,4,0,0,1,966
1372,3,1,172,8,1,1,1,751
1373,3,1,173,4,1,1,1,479
1374,3,1,174,8,0,0,1,1657
1375,3,1,175,4,1,1,1,709
1376,3,1,176,8,1,1,1,713
1377,3,1,177,4,1,1,1,727
1378,3,1,178,4,0,0,1,526
1379,3,1,179,4,1,1,1,963
1380,3,1,180,8,0,0,1,854
1381,3,1,181,8,1,1,1,589
1382,3,1,182,4,1,1,1,424
1383,3,1,183,8,1,1,1,511
1384,3,1,184,8,0,0,1,532
1385,3,1,185,8,1,1,1,1244
1386,3,1,186,8,0,0,1,1642
1387,3,1,187,8,0,0,1,1290
1388,3,1,188,8,0,0,1,587
1389,3,1,189,8,1,1,1,1166
1390,3,1,190,4,0,0,1,527
1391,3,1,191,8,0,0,1,1384
1392,3,1,192,8,1,1,1,566
1393,3,1,193,8,1,1,1,1057
1394,3,1,194,8,0,0,1,625
1395,3,1,195,8,0,0,1,898
1396,3,1,196,4,1,1,1,644
1397,3,1,197,8,0,0,1,1439
1398,3,1,198,4,0,0,1,660
1399,3,1,199,4,1,1,1,1074
1400,3,1,200,8,0,0,1,551
1401,3,1,201,8,1,1,1,1101
1402,3,1,202,4,0,0,1,549
1403,3,1,203,4,1,1,1,996
1404,3,1,204,8,1,1,1,780
1405,3,1,205,4,0,0,1,1023
1406,3,1,206,8,0,0,1,1511
1407,3,1,207,8,1,1,1,676
1408,3,1,208,8,0,0,1,1002
1409,3,1,209,4,1,1,1,572
1410,3,1,210,8,1,1,1,772
1411,3,1,211,8,1,1,1,1030
1412,3,1,212,8,0,0,1,717
1413,3,1,213,4,0,0,1,489
1414,3,1,214,4,1,1,1,428
1415,3,1,215,4,0,0,1,786
1416,3,1,216,4,1,1,1,852
1417,3,1,217,8,0,0,1,1234
1418,3,1,218,8,1,1,1,533
1419,3,1,219,4,0,0,1,582
1420,3,1,220,8,1,1,1,1479
1421,3,1,221,4,0,0,1,757
1422,3,1,222,4,0,0,1,534
1423,3,1,223,8,0,0,1,1508
1424,3,1,224,8,0,0,1,794
1425,3,1,225,4,0,0,1,570
1426,3,1,226,8,0,0,1,1172
1427,3,1,227,8,0,0,1,568
1428,3,1,228,8,0,0,1,837
1429,3,1,229,4,0,0,1,645
1430,3,1,230,8,0,0,1,1067
1431,3,1,231,4,1,1,1,1354
1432,3,1,232,4,1,1,1,1030
1433,3,1,233,4,0,0,1,1111
1434,3,1,234,4,0,0,1,924
1435,3,1,235,4,1,1,1,662
1436,3,1,236,8,0,0,1,2287
1437,3,1,237,4,0,0,1,675
1438,3,1,238,4,1,1,1,546
1439,3,1,239,4,1,1,1,700
1440,3,1,240,8,0,0,1,577
1441,3,1,241,4,0,0,1,542
1442,3,1,242,8,0,0,1,683
1443,3,1,243,8,0,0,1,1203
1444,3,1,244,8,1,1,1,880
1445,3,1,245,4,0,0,1,923
1446,3,1,246,4,1,1,1,841
1447,3,1,247,8,0,0,1,764
1448,3,1,248,8,1,1,1,574
1449,3,1,249,8,1,1,1,1403
1450,3,1,250,4,1,1,1,856
1451,3,1,251,8,1,1,1,690
1452,3,1,252,8,1,1,1,884
1453,3,1,253,4,1,1,1,676
1454,3,1,254,8,0,0,1,984
1455,3,1,255,4,0,0,1,651
1456,3,1,256,8,0,0,1,586
1457,3,1,257,8,1,1,1,734
1458,3,1,258,4,1,1,1,1471
1459,3,1,259,8,1,1,1,1321
1460,3,1,260,4,1,1,1,602
1461,3,1,261,4,1,1,1,732
1462,3,1,262,8,1,1,1,1424
1463,3,1,263,4,1,1,1,767
1464,3,1,264,8,1,1,1,1522
1465,3,1,265,4,1,1,1,838
1466,3,1,266,8,0,0,1,856
1467,3,1,267,4,1,1,1,648
1468,3,1,268,8,1,1,1,710
1469,3,1,269,8,0,0,1,851
1470,3,1,270,8,1,1,1,1295
1471,3,1,271,8,0,0,1,534
1472,3,1,272,8,0,0,1,1365
1473,3,1,273,8,0,0,1,1424
1474,3,1,274,4,0,0,1,597
1475,3,1,275,4,0,0,1,610
1476,3,1,276,4,0,0,1,931
1477,3,1,277,8,1,1,1,992
1478,3,1,278,4,1,1,1,619
1479,3,1,279,8,0,0,1,619
1480,3,1,280,8,0,0,1,1156
1481,3,1,281,4,0,0,1,588
1482,3,1,282,8,0,0,1,1077
1483,3,1,283,4,1,1,1,679
1484,3,1,284,4,1,1,1,561
1485,3,1,285,8,0,0,1,979
1486,3,1,286,4,0,0,1,1033
1487,3,1,287,4,0,0,1,545
1488,3,1,288,4,0,0,1,842
1489,3,1,289,4,0,0,1,603
1490,3,1,290,4,0,0,1,487
1491,3,1,291,4,0,0,1,782
1492,3,1,292,8,1,1,1,980
1493,3,1,293,4,0,0,1,588
1494,3,1,294,4,0,0,1,860
1495,3,1,295,8,0,0,1,762
1496,3,1,296,4,0,0,1,451
1497,3,1,297,4,0,0,1,780
1498,3,1,298,4,0,0,1,805
1499,3,1,299,8,0,0,1,665
1500,3,1,300,8,1,1,1,859
1501,3,1,301,4,0,0,1,942
1502,3,1,302,8,0,0,1,693
1503,3,1,303,8,1,1,1,878
1504,3,1,304,8,0,0,1,624
1505,3,1,305,8,1,1,1,1102
1506,3,1,306,4,1,1,1,576
1507,3,1,307,4,1,1,1,629
1508,3,1,308,8,0,0,1,509
1509,3,1,309,4,0,0,1,1311
1510,3,1,310,4,0,0,1,603
1511,3,1,311,8,1,1,1,534
1512,3,1,312,4,1,1,1,718
1513,3,1,313,8,0,0,1,993
1514,3,1,314,4,0,0,1,1006
1515,3,1,315,4,1,1,1,559
1516,3,1,316,8,1,1,1,687
1517,3,1,317,8,1,1,1,1268
1518,3,1,318,4,1,1,1,531
1519,3,1,319,4,0,0,1,762
1520,3,1,320,4,0,0,1,673
1521,3,1,321,4,0,0,1,482
1522,3,1,322,4,0,0,1,684
1523,3,1,323,8,1,1,1,826
1524,3,1,324,4,0,0,1,528
1525,3,1,325,8,1,1,1,660
1526,3,1,326,4,1,1,1,842
1527,3,1,327,8,0,0,1,1555
1528,3,1,328,8,0,0,1,870
1529,3,1,329,4,1,1,1,587
1530,3,1,330,8,1,1,1,917
1531,3,1,331,4,1,1,1,647
1532,3,1,332,8,1,1,1,1117
1533,3,1,333,8,1,1,1,825
1534,3,1,334,8,1,1,1,810
1535,3,1,335,8,1,1,1,940
1536,3,1,336,4,1,1,1,727
1537,3,1,337,8,1,1,1,4411
1538,3,1,338,8,0,0,1,1753
1539,3,1,339,4,1,1,1,724
1540,3,1,340,8,1,1,1,1638
1541,3,1,341,8,0,0,1,959
1542,3,1,342,8,1,1,1,1085
1543,3,1,343,4,0,0,1,941
1544,3,1,344,8,1,1,1,2321
1545,3,1,345,4,1,1,1,718
1546,3,1,346,4,1,1,1,678
1547,3,1,347,4,0,0,1,905
1548,3,1,348,4,1,1,1,907
1549,3,1,349,8,0,0,1,798
1550,3,1,350,8,0,0,1,1038
1551,3,1,351,4,1,1,1,785
1552,3,1,352,4,0,0,1,817
1553,3,1,353,4,1,1,1,528
1554,3,1,354,8,0,0,1,943
1555,3,1,355,8,1,1,1,542
1556,3,1,356,8,1,1,1,1549
1557,3,1,357,8,0,0,1,1040
1558,3,1,358,8,0,0,1,1008
1559,3,1,359,4,0,0,1,1012
1560,3,1,360,8,1,1,1,722
1561,3,1,361,8,0,0,1,742
1562,3,1,362,8,1,1,1,534
1563,3,1,363,4,1,1,1,786
1564,3,1,364,4,0,0,1,619
1565,3,1,365,8,0,0,1,435
1566,3,1,366,8,0,0,1,1132
1567,3,1,367,4,1,1,1,953
1568,3,1,368,4,1,1,1,449
1569,3,1,369,4,1,1,1,505
1570,3,1,370,4,1,1,1,964
1571,3,1,371,8,0,0,1,1286
1572,3,1,372,4,1,1,1,595
1573,3,1,373,4,1,1,1,933
1574,3,1,374,4,1,1,1,478
1575,3,1,375,8,1,1,1,919
1576,3,1,376,8,1,1,1,1196
1577,3,1,377,8,1,1,1,1535
1578,3,1,378,8,1,1,1,658
1579,3,1,379,8,1,1,1,506
1580,3,1,380,4,0,0,1,575
1581,3,1,381,4,0,0,1,515
1582,3,1,382,8,1,1,1,853
1583,3,1,383,4,1,1,1,3661
1584,3,1,384,4,0,0,1,527
1585,3,1,385,4,1,1,1,525
1586,3,1,386,4,0,0,1,1004
1587,3,1,387,4,1,1,1,816
1588,3,1,388,4,0,0,1,604
1589,3,1,389,8,1,1,1,1063
1590,3,1,390,4,1,1,1,691
1591,3,1,391,8,1,1,1,1546
1592,3,1,392,4,0,0,1,744
1593,3,1,393,8,0,0,1,1802
1594,3,1,394,8,1,1,1,978
1595,3,1,395,4,1,1,1,560
1596,3,1,396,8,0,0,1,459
1597,3,1,397,4,0,0,1,1081
1598,3,1,398,4,1,1,1,534
1599,3,1,399,8,0,0,1,1042
1600,3,1,400,8,1,1,1,1576
1601,3,1,401,8,1,1,1,853
1602,3,1,402,8,1,1,1,771
1603,3,1,403,8,1,1,1,819
1604,3,1,404,8,0,0,1,2704
1605,3,1,405,8,0,0,1,1308
1606,3,1,406,4,1,1,1,523
1607,3,1,407,4,0,0,1,839
1608,3,1,408,4,1,1,1,791
1609,3,1,409,8,0,0,1,1165
1610,3,1,410,8,0,0,1,476
1611,3,1,411,4,1,1,1,573
1612,3,1,412,4,0,0,1,501
1613,3,1,413,4,0,0,1,911
1614,3,1,414,8,1,1,1,624
1615,3,1,415,4,1,1,1,500
1616,3,1,416,8,1,1,1,919
1617,3,1,417,4,0,0,1,1102
1618,3,1,418,8,0,0,1,850
1619,3,1,419,4,1,1,1,593
1620,3,1,420,4,1,1,1,583
1621,3,1,421,8,1,1,1,1309
1622,3,1,422,8,1,1,1,813
1623,3,1,423,4,0,0,1,589
1624,3,1,424,4,1,1,1,523
1625,3,1,425,4,0,0,1,528
1626,3,1,426,8,0,0,1,2310
1627,3,1,427,4,0,0,1,845
1628,3,1,428,4,0,0,1,1087
1629,3,1,429,8,1,1,1,657
1630,3,1,430,4,1,1,1,500
1631,3,1,431,4,0,0,1,771
1632,3,1,432,4,0,0,1,644
1633,3,1,433,4,0,0,1,1181
1634,3,1,434,8,0,0,1,1051
1635,3,1,435,4,0,0,1,655
1636,3,1,436,4,0,0,1,877
1637,3,1,437,4,1,1,1,642
1638,3,1,438,4,1,1,1,939
1639,3,1,439,4,0,0,1,522
1640,3,1,440,8,1,1,1,1003
1641,3,1,441,4,1,1,1,557
1642,3,1,442,4,1,1,1,707
1643,3,1,443,8,0,0,1,1027
1644,3,1,444,8,0,0,1,1728
1645,3,1,445,8,0,0,1,1057
1646,3,1,446,4,0,0,1,491
1647,3,1,447,4,1,1,1,466
1648,3,1,448,4,1,1,1,615
1649,3,1,449,4,1,1,1,565
1650,3,1,450,8,0,0,1,898
1651,3,1,451,4,0,0,1,616
1652,3,1,452,8,1,1,1,1244
1653,3,1,453,8,0,0,1,672
1654,3,1,454,8,0,0,1,701
1655,3,1,455,8,1,1,1,1531
1656,3,1,456,4,1,1,1,612
1657,3,1,457,8,1,1,1,841
1658,3,1,458,4,0,0,1,627
1659,3,1,459,8,0,0,1,928
1660,3,1,460,8,1,1,1,603
1661,3,1,461,4,0,0,1,496
1662,3,1,462,4,1,1,1,787
1663,3,1,463,4,1,1,1,641
1664,3,1,464,8,0,0,1,1574
1665,3,1,465,8,0,0,1,678
1666,3,1,466,8,0,0,1,988
1667,3,1,467,4,0,0,1,3157
1668,3,1,468,8,1,1,1,539
1669,3,1,469,8,0,0,1,898
1670,3,1,470,8,1,1,1,525
1671,3,1,471,8,0,0,1,669
1672,3,1,472,8,0,0,1,887
1673,3,1,473,8,1,1,1,2196
1674,3,1,474,4,0,0,1,1006
1675,3,1,475,4,1,1,1,700
1676,3,1,476,8,1,1,1,722
1677,3,1,477,8,0,0,1,973
1678,3,1,478,4,1,1,1,577
1679,3,1,479,4,1,1,1,841
1680,3,1,480,8,0,0,1,861
1681,3,1,481,8,1,1,1,787
1682,3,1,482,4,0,0,1,601
1683,3,1,483,4,1,1,1,680
1684,3,1,484,4,0,0,1,638
1685,3,1,485,8,0,0,1,512
1686,3,1,486,4,1,1,1,691
1687,3,1,487,4,0,0,1,589
1688,3,1,488,4,0,0,1,561
1689,3,1,489,4,0,0,1,895
1690,3,1,490,8,1,1,1,1724
1691,3,1,491,4,1,1,1,1098
1692,3,1,492,8,1,1,1,985
1693,3,1,493,8,0,0,1,530
1694,3,1,494,4,0,0,1,964
1695,3,1,495,8,0,0,1,798
1696,3,1,496,8,1,1,1,768
1697,3,1,497,8,0,0,1,1850
1698,3,1,498,4,1,1,1,713
1699,3,1,499,8,1,1,1,1222
1700,3,1,500,4,1,1,1,599
1701,3,1,501,4,0,0,1,722
1702,3,1,502,4,1,1,1,702
1703,3,1,503,4,1,1,1,865
1704,3,1,504,8,1,1,1,628
1705,3,1,505,4,0,0,1,922
1706,3,1,506,8,0,0,1,1143
1707,3,1,507,4,0,0,1,1319
1708,3,1,508,4,0,0,1,572
1709,3,1,509,8,0,0,1,1129
1710,3,1,510,4,0,0,1,725
1711,3,1,511,8,1,1,1,464
1712,3,1,512,8,1,1,1,915
1713,3,1,513,8,0,0,1,2247
1714,3,1,514,8,0,0,1,874
1715,3,1,515,8,1,1,1,455
1716,3,1,516,4,1,1,1,648
1717,3,1,517,4,0,0,1,599
1718,3,1,518,8,0,0,1,575
1719,3,1,519,4,1,1,1,510
1720,3,1,520,4,0,0,1,546
1721,3,1,521,4,0,0,1,2080
1722,3,1,522,4,1,1,1,1018
1723,3,1,523,8,1,1,1,1476
1724,3,1,524,4,0,0,1,612
1725,3,1,525,8,0,0,1,783
1726,3,1,526,4,1,1,1,961
1727,3,1,527,4,1,1,1,670
1728,3,1,528,4,0,0,1,542
1729,3,1,529,4,1,1,1,751
1730,3,1,530,4,0,0,1,519
1731,3,1,531,4,1,1,1,706
1732,3,1,532,4,1,1,1,732
1733,3,1,533,8,1,1,1,1524
1734,3,1,534,8,0,0,1,997
1735,3,1,535,4,0,0,1,725
1736,3,1,536,4,1,1,1,1006
1737,3,1,537,8,0,0,1,530
1738,3,1,538,4,1,1,1,515
1739,3,1,539,4,0,0,1,807
1740,3,1,540,8,0,0,1,1401
1741,3,1,541,8,1,1,1,1042
1742,3,1,542,8,1,1,1,996
1743,3,1,543,8,0,0,1,932
1744,3,1,544,8,1,1,1,1133
1745,3,1,545,4,1,1,1,819
1746,3,1,546,8,1,1,1,749
1747,3,1,547,4,1,1,1,514
1748,3,1,548,8,0,0,1,1258
1749,3,1,549,4,0,0,0,754
1750,3,1,550,4,1,1,1,651
1751,3,1,551,8,1,1,1,978
1752,3,1,552,8,1,1,1,478
1753,3,1,553,8,0,0,1,964
1754,3,1,554,8,1,1,1,713
1755,3,1,555,4,1,1,1,869
1756,3,1,556,8,0,0,1,664
1757,3,1,557,4,0,0,1,1138
1758,3,1,558,8,1,1,1,1004
1759,3,1,559,4,0,0,1,21
1760,3,1,560,8,0,0,1,961
1761,3,1,561,8,0,0,1,1198
1762,3,1,562,8,1,1,1,1139
1763,3,1,563,4,0,0,1,649
1764,3,1,564,4,1,1,1,452
1765,3,1,565,8,0,0,1,1094
1766,3,1,566,8,1,1,1,1512
1767,3,1,567,8,0,0,1,659
1768,3,1,568,4,1,1,1,647
1769,3,1,569,4,1,1,1,1994
1770,3,1,570,8,0,0,1,1564
1771,3,1,571,4,0,0,1,585
1772,3,1,572,8,0,0,1,560
1773,3,1,573,4,1,1,1,1025
1774,3,1,574,4,1,1,1,787
1775,3,1,575,4,1,1,1,558
1776,3,1,576,4,1,1,1,1221
1777,3,1,577,8,1,1,1,1779
1778,3,1,578,4,1,1,1,821
1779,3,1,579,4,1,1,1,474
1780,3,1,580,4,0,0,1,511
1781,3,1,581,4,0,0,1,511
1782,3,1,582,8,0,0,1,1277
1783,3,1,583,4,0,0,1,920
1784,3,1,584,8,1,1,1,394
1785,3,1,585,8,1,1,1,470
1786,3,1,586,8,1,1,1,549
1787,3,1,587,8,1,1,1,447
1788,3,1,588,4,0,0,1,438
1789,3,1,589,4,0,0,1,373
1790,3,1,590,8,0,0,1,1207
1791,3,1,591,4,1,1,1,560
1792,3,1,592,8,0,0,1,643
1793,3,1,593,4,1,1,1,477
1794,3,1,594,4,1,1,1,599
1795,3,1,595,8,0,0,1,427
1796,3,1,596,8,0,0,1,821
1797,3,1,597,8,1,1,1,684
1798,3,1,598,8,0,0,1,817
1799,3,1,599,8,0,0,1,1180
1800,3,1,600,8,0,0,1,752
1801,5,1,1,4,0,0,1,1176
1802,5,1,2,4,0,0,1,1481
1803,5,1,3,8,0,0,1,1079
1804,5,1,4,4,1,1,1,788
1805,5,1,5,8,0,0,1,828
1806,5,1,6,8,1,1,1,3274
1807,5,1,7,8,1,1,0,2609
1808,5,1,8,8,0,0,1,2026
1809,5,1,9,8,0,0,1,932
1810,5,1,10,8,0,0,1,1278
1811,5,1,11,4,1,1,1,1271
1812,5,1,12,8,0,0,1,1627
1813,5,1,13,4,1,1,1,731
1814,5,1,14,8,1,1,1,1446
1815,5,1,15,4,0,0,1,707
1816,5,1,16,4,0,0,1,994
1817,5,1,17,4,0,0,1,1129
1818,5,1,18,4,0,0,1,1388
1819,5,1,19,8,1,1,1,1019
1820,5,1,20,4,1,1,1,830
1821,5,1,21,8,0,0,1,1314
1822,5,1,22,4,0,0,1,1204
1823,5,1,23,8,0,0,1,1380
1824,5,1,24,4,1,1,1,762
1825,5,1,25,8,0,0,1,1899
1826,5,1,26,8,0,0,1,1049
1827,5,1,27,4,0,0,1,1031
1828,5,1,28,8,0,0,1,671
1829,5,1,29,4,1,1,1,790
1830,5,1,30,8,1,1,1,1562
1831,5,1,31,8,1,1,1,1581
1832,5,1,32,8,0,0,1,1196
1833,5,1,33,8,1,1,1,3714
1834,5,1,34,8,1,1,1,849
1835,5,1,35,8,1,1,1,932
1836,5,1,36,4,1,1,1,1128
1837,5,1,37,8,1,1,1,1193
1838,5,1,38,4,0,0,1,780
1839,5,1,39,4,1,1,1,773
1840,5,1,40,4,0,0,1,1209
1841,5,1,41,4,1,1,1,623
1842,5,1,42,8,1,1,1,1326
1843,5,1,43,4,0,0,1,1092
1844,5,1,44,8,0,0,1,1721
1845,5,1,45,4,0,0,1,855
1846,5,1,46,4,1,1,1,1033
1847,5,1,47,4,0,0,1,815
1848,5,1,48,4,0,0,1,1148
1849,5,1,49,8,0,0,1,1568
1850,5,1,50,8,0,0,1,1862
1851,5,1,51,4,0,0,1,953
1852,5,1,52,4,1,1,1,1261
1853,5,1,53,4,1,1,1,1151
1854,5,1,54,4,1,1,1,2428
1855,5,1,55,4,1,1,1,1169
1856,5,1,56,8,0,0,1,1134
1857,5,1,57,8,0,0,1,931
1858,5,1,58,8,0,0,1,907
1859,5,1,59,4,1,1,1,936
1860,5,1,60,4,1,1,1,1408
1861,5,1,61,8,0,0,1,1134
1862,5,1,62,8,1,1,1,791
1863,5,1,63,4,1,1,1,688
1864,5,1,64,4,1,1,1,808
1865,5,1,65,4,0,0,1,1162
1866,5,1,66,8,1,1,1,1520
1867,5,1,67,8,0,0,1,2256
1868,5,1,68,4,0,0,1,762
1869,5,1,69,8,1,1,1,1875
1870,5,1,70,4,0,0,1,547
1871,5,1,71,8,0,0,0,2048
1872,5,1,72,8,0,0,1,1053
1873,5,1,73,8,1,1,1,983
1874,5,1,74,8,0,0,1,1002
1875,5,1,75,4,1,1,1,1257
1876,5,1,76,4,0,0,1,1292
1877,5,1,77,4,0,0,1,786
1878,5,1,78,8,1,1,1,2033
1879,5,1,79,8,0,0,1,1680
1880,5,1,80,4,0,0,1,1096
1881,5,1,81,8,1,1,1,2039
1882,5,1,82,8,0,0,1,833
1883,5,1,83,4,1,1,1,682
1884,5,1,84,4,1,1,1,719
1885,5,1,85,4,1,1,1,1638
1886,5,1,86,4,1,1,1,820
1887,5,1,87,4,1,1,1,625
1888,5,1,88,8,1,1,1,680
1889,5,1,89,4,0,0,1,804
1890,5,1,90,8,0,0,1,1430
1891,5,1,91,4,1,1,1,1582
1892,5,1,92,4,0,0,1,1072
1893,5,1,93,8,0,0,1,1503
1894,5,1,94,8,1,1,1,1379
1895,5,1,95,4,0,0,1,996
1896,5,1,96,8,0,0,1,1444
1897,5,1,97,4,1,1,1,980
1898,5,1,98,4,1,1,1,1562
1899,5,1,99,4,0,0,1,642
1900,5,1,100,8,0,0,1,2144
1901,5,1,101,4,0,0,1,1010
1902,5,1,102,4,1,1,1,650
1903,5,1,103,4,0,0,1,1506
1904,5,1,104,8,1,1,1,1311
1905,5,1,105,4,0,0,1,935
1906,5,1,106,8,0,0,1,869
1907,5,1,107,8,1,1,1,2075
1908,5,1,108,8,1,1,1,1112
1909,5,1,109,8,0,0,1,1784
1910,5,1,110,8,1,1,1,1594
1911,5,1,111,8,0,0,1,1000
1912,5,1,112,4,1,1,1,1097
1913,5,1,113,4,1,1,1,962
1914,5,1,114,4,0,0,1,1185
1915,5,1,115,4,1,1,1,1797
1916,5,1,116,4,0,0,1,797
1917,5,1,117,8,1,1,1,1938
1918,5,1,118,8,1,1,1,804
1919,5,1,119,4,1,1,1,1043
1920,5,1,120,4,0,0,1,755
1921,5,1,121,4,0,0,1,917
1922,5,1,122,8,0,0,1,813
1923,5,1,123,4,0,0,1,1164
1924,5,1,124,8,0,0,1,1683
1925,5,1,125,4,1,1,1,887
1926,5,1,126,8,1,1,1,1497
1927,5,1,127,8,1,1,1,910
1928,5,1,128,4,1,1,1,708
1929,5,1,129,4,1,1,1,1564
1930,5,1,130,4,1,1,1,1049
1931,5,1,131,8,1,1,1,1503
1932,5,1,132,4,0,0,1,881
1933,5,1,133,8,0,0,1,1370
1934,5,1,134,8,0,0,1,617
1935,5,1,135,4,0,0,1,589
1936,5,1,136,8,0,0,1,2499
1937,5,1,137,8,1,1,1,1531
1938,5,1,138,8,0,0,1,689
1939,5,1,139,4,0,0,1,883
1940,5,1,140,4,1,1,1,522
1941,5,1,141,4,1,1,1,1688
1942,5,1,142,4,1,1,1,967
1943,5,1,143,8,1,1,1,1077
1944,5,1,144,8,0,0,1,1685
1945,5,1,145,8,0,0,1,1054
1946,5,1,146,8,0,0,1,2053
1947,5,1,147,8,1,1,1,1106
1948,5,1,148,4,0,0,1,957
1949,5,1,149,4,1,1,1,1148
1950,5,1,150,4,1,1,1,1441
1951,5,1,151,4,0,0,1,1558
1952,5,1,152,8,1,1,1,1440
1953,5,1,153,4,1,1,1,738
1954,5,1,154,4,0,0,1,868
1955,5,1,155,8,0,0,1,1083
1956,5,1,156,8,1,1,1,777
1957,5,1,157,8,1,1,1,899
1958,5,1,158,8,1,1,1,1871
1959,5,1,159,8,0,0,1,722
1960,5,1,160,8,0,0,1,1185
1961,5,1,161,8,1,1,1,2847
1962,5,1,162,8,1,1,1,1894
1963,5,1,163,8,1,1,1,1376
1964,5,1,164,8,1,1,1,1307
1965,5,1,165,4,1,1,1,1160
1966,5,1,166,4,0,0,1,1784
1967,5,1,167,8,0,0,1,1160
1968,5,1,168,4,0,0,1,1308
1969,5,1,169,4,0,0,1,1169
1970,5,1,170,8,0,0,1,2244
1971,5,1,171,8,1,1,1,2033
1972,5,1,172,8,0,3,0,4996
1973,5,1,173,4,1,1,1,967
1974,5,1,174,4,1,1,1,1153
1975,5,1,175,4,0,0,1,612
1976,5,1,176,8,1,1,1,1056
1977,5,1,177,4,0,0,1,921
1978,5,1,178,8,0,0,1,1757
1979,5,1,179,8,0,0,1,1242
1980,5,1,180,4,0,0,1,758
1981,5,1,181,8,1,1,1,881
1982,5,1,182,8,1,1,1,829
1983,5,1,183,8,0,0,1,1024
1984,5,1,184,8,0,0,1,971
1985,5,1,185,4,0,0,1,696
1986,5,1,186,4,0,0,1,454
1987,5,1,187,4,0,0,1,784
1988,5,1,188,4,0,0,1,620
1989,5,1,189,4,0,0,1,1822
1990,5,1,190,4,0,0,1,562
1991,5,1,191,4,0,0,1,612
1992,5,1,192,4,1,1,1,1047
1993,5,1,193,4,0,0,1,624
1994,5,1,194,8,0,0,1,521
1995,5,1,195,8,1,1,1,577
1996,5,1,196,4,0,0,1,731
1997,5,1,197,8,1,1,1,687
1998,5,1,198,4,1,1,1,2187
1999,5,1,199,8,0,0,1,1756
2000,5,1,200,4,1,1,1,899
2001,5,1,201,4,1,1,1,1020
2002,5,1,202,4,0,0,1,1111
2003,5,1,203,4,1,1,1,660
2004,5,1,204,4,0,0,1,668
2005,5,1,205,4,0,0,1,1002
2006,5,1,206,4,0,0,1,556
2007,5,1,207,8,1,1,1,683
2008,5,1,208,4,0,0,1,1762
2009,5,1,209,8,1,1,1,2644
2010,5,1,210,4,1,1,1,1379
2011,5,1,211,4,1,1,1,1095
2012,5,1,212,4,0,0,1,791
2013,5,1,213,4,0,0,1,1577
2014,5,1,214,8,1,1,1,900
2015,5,1,215,4,1,1,1,706
2016,5,1,216,4,0,0,1,1441
2017,5,1,217,4,0,0,1,902
2018,5,1,218,4,0,0,1,690
2019,5,1,219,4,0,0,1,1090
2020,5,1,220,8,0,0,1,1473
2021,5,1,221,4,1,1,1,758
2022,5,1,222,4,0,0,1,768
2023,5,1,223,8,0,0,1,886
2024,5,1,224,8,0,0,1,1946
2025,5,1,225,4,0,0,1,1125
2026,5,1,226,4,0,0,1,1037
2027,5,1,227,8,1,1,1,709
2028,5,1,228,4,0,0,1,548
2029,5,1,229,4,1,1,1,975
2030,5,1,230,4,1,1,1,878
2031,5,1,231,8,1,1,1,1699
2032,5,1,232,8,1,1,1,741
2033,5,1,233,4,0,0,1,762
2034,5,1,234,8,1,1,1,772
2035,5,1,235,8,1,1,1,567
2036,5,1,236,8,0,0,1,995
2037,5,1,237,4,1,1,1,1255
2038,5,1,238,8,1,1,1,1387
2039,5,1,239,8,1,1,1,1025
2040,5,1,240,4,1,1,1,550
2041,5,1,241,8,0,0,1,2348
2042,5,1,242,8,0,0,1,1353
2043,5,1,243,4,1,1,1,1088
2044,5,1,244,8,0,0,1,987
2045,5,1,245,8,1,1,1,3795
2046,5,1,246,4,1,1,1,729
2047,5,1,247,4,0,3,0,4996
2048,5,1,248,8,1,1,1,1343
2049,5,1,249,4,1,1,1,706
2050,5,1,250,8,1,1,1,1018
2051,5,1,251,8,1,1,1,1226
2052,5,1,252,8,0,0,1,1689
2053,5,1,253,8,1,1,1,761
2054,5,1,254,4,0,0,1,896
2055,5,1,255,8,1,1,1,834
2056,5,1,256,4,1,1,1,536
2057,5,1,257,8,1,1,1,870
2058,5,1,258,4,1,1,1,871
2059,5,1,259,4,0,0,1,724
2060,5,1,260,4,0,0,1,606
2061,5,1,261,4,1,1,1,2516
2062,5,1,262,4,1,1,1,678
2063,5,1,263,4,0,0,1,1435
2064,5,1,264,4,1,1,1,605
2065,5,1,265,8,1,1,1,785
2066,5,1,266,4,1,1,1,1055
2067,5,1,267,8,0,0,1,1035
2068,5,1,268,4,1,1,1,860
2069,5,1,269,8,0,0,1,1217
2070,5,1,270,8,1,1,1,1025
2071,5,1,271,4,0,0,1,741
2072,5,1,272,8,0,0,1,887
2073,5,1,273,8,1,1,1,1583
2074,5,1,274,4,0,0,1,1243
2075,5,1,275,8,1,1,1,1090
2076,5,1,276,8,0,0,1,600
2077,5,1,277,4,0,0,1,1205
2078,5,1,278,4,0,0,1,882
2079,5,1,279,4,0,0,1,1293
2080,5,1,280,8,0,0,1,2643
2081,5,1,281,8,1,1,1,1770
2082,5,1,282,8,0,0,1,2696
2083,5,1,283,8,1,1,1,1122
2084,5,1,284,8,1,1,1,1726
2085,5,1,285,8,0,0,1,1848
2086,5,1,286,8,1,1,1,991
2087,5,1,287,8,0,0,1,723
2088,5,1,288,8,1,1,1,1105
2089,5,1,289,8,0,0,1,819
2090,5,1,290,4,0,0,1,814
2091,5,1,291,8,1,1,1,2797
2092,5,1,292,4,0,0,1,795
2093,5,1,293,8,0,0,1,3656
2094,5,1,294,8,0,0,1,854
2095,5,1,295,8,1,1,1,1150
2096,5,1,296,8,0,0,1,1960
2097,5,1,297,4,1,1,1,1100
2098,5,1,298,4,1,1,1,1375
2099,5,1,299,8,0,0,1,2128
2100,5,1,300,8,1,1,1,658
2101,5,1,301,8,1,1,1,1485
2102,5,1,302,4,0,0,1,545
2103,5,1,303,8,1,1,1,593
2104,5,1,304,8,0,0,1,1018
2105,5,1,305,8,1,1,1,644
2106,5,1,306,4,0,0,1,887
2107,5,1,307,4,1,1,1,1979
2108,5,1,308,4,0,0,1,598
2109,5,1,309,8,0,0,1,3452
2110,5,1,310,4,0,0,1,769
2111,5,1,311,4,0,0,1,1118
2112,5,1,312,4,1,1,1,1312
2113,5,1,313,8,1,1,1,591
2114,5,1,314,8,0,0,1,682
2115,5,1,315,4,1,1,1,1010
2116,5,1,316,8,0,0,1,1193
2117,5,1,317,8,1,1,1,1203
2118,5,1,318,8,0,0,1,1415
2119,5,1,319,8,1,1,1,1331
2120,5,1,320,8,1,1,1,1998
2121,5,1,321,8,1,1,1,1418
2122,5,1,322,4,1,1,1,1199
2123,5,1,323,8,1,1,1,1635
2124,5,1,324,8,1,1,1,2169
2125,5,1,325,4,1,1,1,1642
2126,5,1,326,8,0,0,1,568
2127,5,1,327,4,1,1,1,892
2128,5,1,328,4,1,1,1,1479
2129,5,1,329,4,1,1,1,870
2130,5,1,330,4,0,0,1,750
2131,5,1,331,8,1,1,1,705
2132,5,1,332,8,1,1,1,1038
2133,5,1,333,4,0,0,1,1684
2134,5,1,334,8,0,0,1,1656
2135,5,1,335,8,1,1,1,993
2136,5,1,336,4,1,1,1,2696
2137,5,1,337,4,0,0,1,1349
2138,5,1,338,8,0,0,1,1273
2139,5,1,339,4,1,1,1,1166
2140,5,1,340,4,1,1,1,898
2141,5,1,341,4,0,0,1,1053
2142,5,1,342,8,1,1,1,1388
2143,5,1,343,4,0,0,1,703
2144,5,1,344,4,1,1,1,2168
2145,5,1,345,4,0,0,1,1589
2146,5,1,346,4,1,1,1,837
2147,5,1,347,4,1,1,1,4554
2148,5,1,348,4,1,1,1,1033
2149,5,1,349,8,0,0,1,1049
2150,5,1,350,8,1,1,1,794
2151,5,1,351,8,0,0,1,832
2152,5,1,352,4,0,0,1,561
2153,5,1,353,8,1,1,1,945
2154,5,1,354,4,0,0,1,553
2155,5,1,355,8,0,0,1,2688
2156,5,1,356,4,1,1,1,985
2157,5,1,357,8,0,0,1,1564
2158,5,1,358,8,1,1,1,2541
2159,5,1,359,4,1,1,1,938
2160,5,1,360,4,1,1,1,891
2161,5,1,361,4,1,1,1,856
2162,5,1,362,4,0,0,1,1580
2163,5,1,363,8,0,0,1,1115
2164,5,1,364,4,0,0,1,2832
2165,5,1,365,4,1,1,1,1182
2166,5,1,366,8,0,0,1,3913
2167,5,1,367,4,0,0,1,616
2168,5,1,368,8,0,0,1,1025
2169,5,1,369,8,0,0,1,937
2170,5,1,370,8,1,1,1,1188
2171,5,1,371,8,0,0,1,1111
2172,5,1,372,8,0,0,1,1746
2173,5,1,373,8,1,1,1,3097
2174,5,1,374,4,0,0,1,686
2175,5,1,375,4,0,0,1,1338
2176,5,1,376,4,1,1,1,4208
2177,5,1,377,4,0,0,1,590
2178,5,1,378,4,0,0,1,1228
2179,5,1,379,8,0,0,1,1552
2180,5,1,380,8,0,0,1,4424
2181,5,1,381,4,0,3,0,4993
2182,5,1,382,4,0,0,1,1171
2183,5,1,383,4,0,0,1,1910
2184,5,1,384,4,1,1,1,2008
2185,5,1,385,4,1,1,0,1137
2186,5,1,386,8,1,3,0,4998
2187,5,1,387,4,0,0,1,758
2188,5,1,388,4,1,1,1,900
2189,5,1,389,4,1,1,1,628
2190,5,1,390,8,1,1,1,1878
2191,5,1,391,4,1,1,1,1362
2192,5,1,392,4,1,1,1,1019
2193,5,1,393,4,1,1,1,1303
2194,5,1,394,4,0,0,1,1208
2195,5,1,395,4,1,1,1,729
2196,5,1,396,4,1,1,1,771
2197,5,1,397,8,1,1,1,1839
2198,5,1,398,8,1,1,1,1462
2199,5,1,399,4,1,1,1,1050
2200,5,1,400,4,1,1,1,1139
2201,5,1,401,8,1,1,1,2373
2202,5,1,402,8,0,0,1,998
2203,5,1,403,8,0,0,1,2451
2204,5,1,404,8,0,0,1,3434
2205,5,1,405,4,1,1,1,850
2206,5,1,406,4,1,1,1,1024
2207,5,1,407,8,1,1,1,2266
2208,5,1,408,4,1,1,1,916
2209,5,1,409,8,0,0,1,1910
2210,5,1,410,8,0,0,1,972
2211,5,1,411,8,0,0,1,2012
2212,5,1,412,4,1,1,1,1597
2213,5,1,413,4,1,1,1,1197
2214,5,1,414,4,1,1,1,959
2215,5,1,415,4,0,0,1,2251
2216,5,1,416,4,0,0,1,709
2217,5,1,417,8,1,1,1,2642
2218,5,1,418,8,1,1,1,672
2219,5,1,419,8,0,0,1,1285
2220,5,1,420,4,0,0,1,654
2221,5,1,421,8,1,1,1,700
2222,5,1,422,8,0,0,1,1871
2223,5,1,423,8,1,1,1,1279
2224,5,1,424,8,1,1,1,891
2225,5,1,425,4,1,1,1,678
2226,5,1,426,8,1,1,1,538
2227,5,1,427,8,1,3,0,4988
2228,5,1,428,8,0,0,1,1384
2229,5,1,429,8,1,1,1,1409
2230,5,1,430,8,0,0,1,602
2231,5,1,431,8,1,1,1,673
2232,5,1,432,8,1,1,1,1678
2233,5,1,433,4,0,0,1,933
2234,5,1,434,8,1,1,1,1679
2235,5,1,435,8,0,0,1,3268
2236,5,1,436,8,0,0,1,668
2237,5,1,437,8,1,1,1,4176
2238,5,1,438,4,0,0,1,2453
2239,5,1,439,8,1,1,1,1276
2240,5,1,440,4,1,1,1,2078
2241,5,1,441,8,1,1,1,2708
2242,5,1,442,4,1,1,1,1315
2243,5,1,443,4,0,0,1,1583
2244,5,1,444,8,0,0,1,2575
2245,5,1,445,4,0,0,1,1475
2246,5,1,446,4,0,0,1,1276
2247,5,1,447,8,1,1,1,2068
2248,5,1,448,8,0,0,1,2740
2249,5,1,449,4,1,1,1,2427
2250,5,1,450,8,0,0,1,786
2251,5,1,451,8,1,1,1,753
2252,5,1,452,4,0,0,1,765
2253,5,1,453,8,1,1,1,1132
2254,5,1,454,4,1,1,1,924
2255,5,1,455,4,1,1,1,3029
2256,5,1,456,8,1,1,1,932
2257,5,1,457,4,0,0,1,766
2258,5,1,458,8,1,1,1,965
2259,5,1,459,8,0,0,1,783
2260,5,1,460,8,1,1,1,2225
2261,5,1,461,4,1,1,1,1045
2262,5,1,462,8,0,0,1,1259
2263,5,1,463,8,1,1,1,1585
2264,5,1,464,4,0,0,1,1178
2265,5,1,465,4,0,0,1,637
2266,5,1,466,4,1,1,1,704
2267,5,1,467,4,0,0,1,709
2268,5,1,468,4,0,0,1,791
2269,5,1,469,8,1,1,1,1300
2270,5,1,470,8,0,0,1,1391
2271,5,1,471,8,0,0,1,1705
2272,5,1,472,8,0,0,1,688
2273,5,1,473,4,0,0,1,1525
2274,5,1,474,4,0,0,1,574
2275,5,1,475,4,0,0,1,533
2276,5,1,476,8,0,0,1,2086
2277,5,1,477,4,1,1,1,762
2278,5,1,478,8,1,1,1,781
2279,5,1,479,4,1,1,1,732
2280,5,1,480,8,0,0,1,782
2281,5,1,481,8,1,1,1,700
2282,5,1,482,4,1,1,1,651
2283,5,1,483,4,1,1,1,757
2284,5,1,484,8,1,1,1,678
2285,5,1,485,4,1,1,1,906
2286,5,1,486,4,1,1,1,986
2287,5,1,487,4,1,1,1,2148
2288,5,1,488,8,1,1,1,1559
2289,5,1,489,8,1,1,1,756
2290,5,1,490,8,1,1,1,1084
2291,5,1,491,8,0,0,1,1771
2292,5,1,492,4,1,1,1,1134
2293,5,1,493,4,1,1,1,782
2294,5,1,494,8,0,0,1,1952
2295,5,1,495,8,0,0,1,1155
2296,5,1,496,8,0,0,1,738
2297,5,1,497,8,1,1,1,1991
2298,5,1,498,4,1,1,1,634
2299,5,1,499,8,0,0,1,1244
2300,5,1,500,8,1,1,1,1262
2301,5,1,501,4,0,0,1,2764
2302,5,1,502,8,1,1,1,700
2303,5,1,503,8,1,1,1,1090
2304,5,1,504,8,1,1,1,1746
2305,5,1,505,4,1,1,1,738
2306,5,1,506,8,0,0,1,2505
2307,5,1,507,4,1,1,1,2483
2308,5,1,508,8,0,0,1,735
2309,5,1,509,4,0,0,1,942
2310,5,1,510,8,0,0,1,1292
2311,5,1,511,4,0,0,1,558
2312,5,1,512,8,1,1,1,907
2313,5,1,513,4,1,1,1,733
2314,5,1,514,4,1,1,1,896
2315,5,1,515,8,0,0,1,1253
2316,5,1,516,4,1,1,1,1001
2317,5,1,517,8,1,1,1,916
2318,5,1,518,8,0,0,1,776
2319,5,1,519,8,0,0,1,1670
2320,5,1,520,8,0,0,1,654
2321,5,1,521,8,0,0,1,1301
2322,5,1,522,8,0,0,1,2298
2323,5,1,523,8,1,1,1,1431
2324,5,1,524,8,1,1,1,1122
2325,5,1,525,8,0,0,1,1846
2326,5,1,526,8,0,0,1,1448
2327,5,1,527,8,1,1,1,3804
2328,5,1,528,8,1,1,1,1552
2329,5,1,529,8,1,1,1,963
2330,5,1,530,8,0,0,1,2061
2331,5,1,531,8,1,1,1,776
2332,5,1,532,8,0,0,1,461
2333,5,1,533,8,0,0,1,1540
2334,5,1,534,4,1,1,1,885
2335,5,1,535,4,1,1,1,692
2336,5,1,536,4,0,0,1,426
2337,5,1,537,4,1,1,1,1472
2338,5,1,538,8,1,1,1,2093
2339,5,1,539,4,0,0,1,751
2340,5,1,540,8,0,0,1,2192
2341,5,1,541,4,0,0,1,1693
2342,5,1,542,8,0,0,1,696
2343,5,1,543,4,1,1,1,801
2344,5,1,544,4,0,0,1,652
2345,5,1,545,4,0,0,1,1416
2346,5,1,546,8,0,0,1,546
2347,5,1,547,8,0,0,1,1007
2348,5,1,548,4,1,1,1,499
2349,5,1,549,4,0,0,1,875
2350,5,1,550,8,1,1,1,852
2351,5,1,551,4,0,0,1,557
2352,5,1,552,4,1,1,1,971
2353,5,1,553,4,0,0,1,1096
2354,5,1,554,4,0,0,1,580
2355,5,1,555,8,0,0,0,2221
2356,5,1,556,8,0,0,1,1103
2357,5,1,557,4,1,1,1,875
2358,5,1,558,8,0,0,1,1494
2359,5,1,559,4,0,0,1,810
2360,5,1,560,8,0,0,1,681
2361,5,1,561,8,1,1,1,640
2362,5,1,562,8,1,1,1,621
2363,5,1,563,8,0,0,1,624
2364,5,1,564,8,1,1,1,637
2365,5,1,565,8,0,0,1,1965
2366,5,1,566,8,0,0,1,2194
2367,5,1,567,8,1,1,1,1361
2368,5,1,568,4,0,0,1,2487
2369,5,1,569,4,1,1,1,1720
2370,5,1,570,8,1,1,0,2055
2371,5,1,571,8,0,0,1,882
2372,5,1,572,4,1,1,1,1179
2373,5,1,573,8,1,1,1,1269
2374,5,1,574,4,1,1,1,521
2375,5,1,575,4,0,0,1,998
2376,5,1,576,4,0,0,1,915
2377,5,1,577,4,1,1,1,1251
2378,5,1,578,4,0,0,1,1112
2379,5,1,579,8,0,0,1,974
2380,5,1,580,4,1,1,1,776
2381,5,1,581,4,1,1,1,708
2382,5,1,582,4,0,0,1,1480
2383,5,1,583,4,0,0,1,1595
2384,5,1,584,4,0,0,1,1143
2385,5,1,585,4,0,0,1,950
2386,5,1,586,4,1,1,1,1148
2387,5,1,587,4,1,1,1,681
2388,5,1,588,4,0,0,1,567
2389,5,1,589,4,0,3,0,753
2390,5,1,590,4,0,3,0,646
2391,5,1,591,4,1,3,0,631
2392,5,1,592,4,1,3,0,1396
2393,5,1,593,4,1,1,1,2227
2394,5,1,594,4,0,0,1,1486
2395,5,1,595,8,1,1,1,1341
2396,5,1,596,4,1,1,1,657
2397,5,1,597,8,1,1,1,1888
2398,5,1,598,8,0,0,1,1079
2399,5,1,599,4,0,0,1,759
2400,5,1,600,8,0,0,1,973
2401,6,1,1,4,0,0,1,3049
2402,6,1,2,8,1,1,1,2072
2403,6,1,3,8,0,0,1,888
2404,6,1,4,4,1,1,1,1027
2405,6,1,5,4,0,0,1,1076
2406,6,1,6,8,0,0,1,2302
2407,6,1,7,4,1,1,1,738
2408,6,1,8,8,0,0,1,1208
2409,6,1,9,4,1,1,1,800
2410,6,1,10,8,0,0,1,829
2411,6,1,11,4,1,1,1,1314
2412,6,1,12,8,0,0,1,887
2413,6,1,13,4,0,0,1,885
2414,6,1,14,8,1,1,1,1715
2415,6,1,15,4,1,1,1,513
2416,6,1,16,8,1,1,1,723
2417,6,1,17,8,0,0,1,1091
2418,6,1,18,4,0,0,1,543
2419,6,1,19,8,1,1,1,1328
2420,6,1,20,4,0,0,1,869
2421,6,1,21,8,0,0,1,1581
2422,6,1,22,4,0,0,1,1119
2423,6,1,23,4,1,1,1,770
2424,6,1,24,4,0,0,1,1068
2425,6,1,25,4,1,1,1,972
2426,6,1,26,4,0,0,1,617
2427,6,1,27,4,0,0,1,666
2428,6,1,28,8,1,1,1,869
2429,6,1,29,4,1,1,1,1196
2430,6,1,30,8,0,0,1,811
2431,6,1,31,8,1,1,1,1651
2432,6,1,32,4,0,0,1,1263
2433,6,1,33,4,0,0,1,977
2434,6,1,34,8,1,1,1,652
2435,6,1,35,8,1,1,1,650
2436,6,1,36,8,0,0,1,813
2437,6,1,37,4,1,1,1,1173
2438,6,1,38,4,1,1,1,627
2439,6,1,39,4,1,1,1,859
2440,6,1,40,4,1,1,1,564
2441,6,1,41,4,0,0,1,1522
2442,6,1,42,4,0,0,1,1000
2443,6,1,43,8,0,0,1,1122
2444,6,1,44,4,1,1,1,1121
2445,6,1,45,8,1,1,1,840
2446,6,1,46,8,0,0,1,1420
2447,6,1,47,8,0,0,1,1152
2448,6,1,48,4,0,0,1,672
2449,6,1,49,8,1,1,1,1211
2450,6,1,50,4,1,1,1,941
2451,6,1,51,4,0,0,1,1019
2452,6,1,52,8,1,1,1,774
2453,6,1,53,8,1,1,1,847
2454,6,1,54,4,0,0,1,969
2455,6,1,55,8,0,0,1,1174
2456,6,1,56,4,0,0,1,895
2457,6,1,57,4,0,0,1,1708
2458,6,1,58,8,0,0,1,728
2459,6,1,59,8,0,0,1,1436
2460,6,1,60,8,0,0,1,1216
2461,6,1,61,4,0,0,1,1338
2462,6,1,62,4,1,1,1,591
2463,6,1,63,4,0,0,1,1038
2464,6,1,64,8,0,0,1,973
2465,6,1,65,8,0,0,1,704
2466,6,1,66,8,0,0,1,980
2467,6,1,67,4,1,1,1,589
2468,6,1,68,8,0,0,1,1456
2469,6,1,69,4,1,1,1,907
2470,6,1,70,8,0,0,1,814
2471,6,1,71,4,1,1,1,504
2472,6,1,72,8,0,0,1,806
2473,6,1,73,8,1,1,1,1908
2474,6,1,74,4,0,0,1,666
2475,6,1,75,4,0,0,1,1310
2476,6,1,76,4,0,0,1,1009
2477,6,1,77,8,0,0,1,1434
2478,6,1,78,8,1,1,1,729
2479,6,1,79,8,1,1,1,1345
2480,6,1,80,4,0,0,1,2052
2481,6,1,81,4,0,0,1,548
2482,6,1,82,4,0,0,1,723
2483,6,1,83,4,0,0,1,899
2484,6,1,84,8,1,1,1,1062
2485,6,1,85,4,0,0,1,801
2486,6,1,86,8,1,1,1,1579
2487,6,1,87,4,0,0,1,1189
2488,6,1,88,4,1,1,1,828
2489,6,1,89,8,1,1,1,584
2490,6,1,90,8,1,1,1,475
2491,6,1,91,4,0,0,1,713
2492,6,1,92,4,1,1,1,615
2493,6,1,93,4,0,0,1,442
2494,6,1,94,4,0,0,1,986
2495,6,1,95,4,1,1,0,536
2496,6,1,96,8,1,1,1,571
2497,6,1,97,8,0,0,1,1873
2498,6,1,98,8,1,1,1,1137
2499,6,1,99,4,1,1,1,859
2500,6,1,100,4,0,0,1,695
2501,6,1,101,4,1,1,1,1020
2502,6,1,102,8,0,0,1,1757
2503,6,1,103,4,0,0,1,495
2504,6,1,104,4,0,0,1,1358
2505,6,1,105,4,1,1,1,895
2506,6,1,106,8,1,1,1,1235
2507,6,1,107,8,0,0,1,810
2508,6,1,108,4,1,1,1,702
2509,6,1,109,4,1,1,1,1480
2510,6,1,110,4,1,1,1,720
2511,6,1,111,8,0,0,1,559
2512,6,1,112,4,1,1,1,924
2513,6,1,113,8,1,1,1,1147
2514,6,1,114,4,0,0,1,788
2515,6,1,115,8,0,0,1,1319
2516,6,1,116,8,1,1,1,1502
2517,6,1,117,4,1,1,1,789
2518,6,1,118,8,1,1,1,1365
2519,6,1,119,8,0,0,1,1498
2520,6,1,120,4,0,0,1,536
2521,6,1,121,4,1,1,1,693
2522,6,1,122,4,1,1,1,1369
2523,6,1,123,8,1,1,1,913
2524,6,1,124,4,1,1,1,785
2525,6,1,125,4,0,0,1,808
2526,6,1,126,8,0,0,1,1181
2527,6,1,127,8,1,1,1,1003
2528,6,1,128,8,1,1,1,814
2529,6,1,129,4,0,0,1,737
2530,6,1,130,8,1,1,1,720
2531,6,1,131,4,0,0,1,639
2532,6,1,132,8,0,0,1,1952
2533,6,1,133,8,1,1,1,1095
2534,6,1,134,8,0,0,1,1252
2535,6,1,135,4,0,0,1,494
2536,6,1,136,8,0,0,1,1737
2537,6,1,137,8,1,1,1,904
2538,6,1,138,4,0,0,1,759
2539,6,1,139,4,0,0,1,547
2540,6,1,140,8,0,0,1,804
2541,6,1,141,8,0,0,1,483
2542,6,1,142,4,1,1,1,673
2543,6,1,143,8,1,1,1,1445
2544,6,1,144,8,0,0,0,1161
2545,6,1,145,8,0,0,1,620
2546,6,1,146,4,0,0,1,616
2547,6,1,147,4,1,1,1,1481
2548,6,1,148,4,0,0,1,560
2549,6,1,149,8,0,0,1,594
2550,6,1,150,4,1,1,1,921
2551,6,1,151,8,1,1,1,1524
2552,6,1,152,8,1,1,1,1128
2553,6,1,153,4,1,1,0,1087
2554,6,1,154,8,1,1,1,1308
2555,6,1,155,4,0,0,1,572
2556,6,1,156,4,0,0,1,845
2557,6,1,157,4,1,1,1,808
2558,6,1,158,4,1,1,1,670
2559,6,1,159,8,1,1,1,1339
2560,6,1,160,4,0,0,1,1160
2561,6,1,161,4,1,1,1,551
2562,6,1,162,8,1,1,1,1163
2563,6,1,163,8,0,0,1,1446
2564,6,1,164,8,0,0,1,619
2565,6,1,165,4,0,0,1,583
2566,6,1,166,8,1,1,1,720
2567,6,1,167,4,1,1,1,1475
2568,6,1,168,8,0,0,1,1488
2569,6,1,169,4,0,0,1,661
2570,6,1,170,4,0,0,1,638
2571,6,1,171,4,1,1,1,781
2572,6,1,172,4,1,1,0,629
2573,6,1,173,4,0,0,1,678
2574,6,1,174,4,0,0,1,521
2575,6,1,175,4,1,1,1,680
2576,6,1,176,4,1,1,1,723
2577,6,1,177,4,1,1,1,446
2578,6,1,178,8,0,0,1,1279
2579,6,1,179,8,1,1,1,749
2580,6,1,180,8,1,1,1,1556
2581,6,1,181,4,1,1,1,683
2582,6,1,182,4,1,1,1,608
2583,6,1,183,4,0,0,1,783
2584,6,1,184,4,0,0,1,1228
2585,6,1,185,4,0,0,1,426
2586,6,1,186,8,1,1,1,755
2587,6,1,187,4,1,1,1,1281
2588,6,1,188,4,1,1,1,615
2589,6,1,189,4,0,0,1,726
2590,6,1,190,8,0,0,1,586
2591,6,1,191,8,1,1,1,1431
2592,6,1,192,8,0,0,1,568
2593,6,1,193,8,1,1,1,1209
2594,6,1,194,8,1,1,1,650
2595,6,1,195,4,1,1,1,634
2596,6,1,196,4,0,0,1,645
2597,6,1,197,4,1,1,1,592
2598,6,1,198,8,1,1,1,979
2599,6,1,199,4,0,0,1,991
2600,6,1,200,8,0,0,1,574
2601,6,1,201,4,1,1,1,866
2602,6,1,202,4,1,1,1,909
2603,6,1,203,8,0,0,1,1259
2604,6,1,204,8,1,1,1,761
2605,6,1,205,8,1,1,1,604
2606,6,1,206,4,0,0,1,754
2607,6,1,207,8,1,1,1,685
2608,6,1,208,8,0,0,1,837
2609,6,1,209,4,0,0,1,525
2610,6,1,210,8,1,1,1,553
2611,6,1,211,4,1,1,1,1048
2612,6,1,212,4,0,0,1,860
2613,6,1,213,8,0,0,1,912
2614,6,1,214,8,1,1,1,667
2615,6,1,215,4,1,1,0,980
2616,6,1,216,8,1,1,1,1068
2617,6,1,217,8,1,1,0,1524
2618,6,1,218,8,1,1,1,961
2619,6,1,219,8,0,0,1,723
2620,6,1,220,8,1,1,1,747
2621,6,1,221,4,1,1,1,499
2622,6,1,222,4,1,1,1,872
2623,6,1,223,4,1,1,1,822
2624,6,1,224,8,0,0,1,699
2625,6,1,225,8,0,0,1,927
2626,6,1,226,8,0,0,1,523
2627,6,1,227,8,1,1,1,1371
2628,6,1,228,8,1,1,1,929
2629,6,1,229,4,0,0,1,1192
2630,6,1,230,4,0,0,1,1087
2631,6,1,231,4,1,1,1,687
2632,6,1,232,8,1,1,1,1438
2633,6,1,233,4,1,1,1,781
2634,6,1,234,8,1,1,1,588
2635,6,1,235,4,1,1,1,666
2636,6,1,236,4,0,0,1,804
2637,6,1,237,4,0,0,1,618
2638,6,1,238,8,0,0,1,889
2639,6,1,239,8,1,1,1,725
2640,6,1,240,8,1,1,1,1455
2641,6,1,241,8,0,0,1,1576
2642,6,1,242,4,1,1,1,735
2643,6,1,243,4,1,1,1,1060
2644,6,1,244,8,1,1,1,770
2645,6,1,245,8,1,1,1,942
2646,6,1,246,8,0,0,1,1363
2647,6,1,247,4,1,1,1,977
2648,6,1,248,4,1,1,1,499
2649,6,1,249,8,1,1,1,1826
2650,6,1,250,4,1,1,1,994
2651,6,1,251,8,0,0,1,766
2652,6,1,252,8,1,1,1,664
2653,6,1,253,8,0,0,1,664
2654,6,1,254,4,0,0,1,521
2655,6,1,255,4,0,0,1,1131
2656,6,1,256,4,1,1,1,1156
2657,6,1,257,8,0,0,1,615
2658,6,1,258,8,1,1,1,1181
2659,6,1,259,8,0,0,1,1449
2660,6,1,260,8,1,1,1,859
2661,6,1,261,8,1,1,1,1141
2662,6,1,262,4,1,1,1,755
2663,6,1,263,8,0,0,1,724
2664,6,1,264,8,0,0,1,985
2665,6,1,265,8,0,0,1,600
2666,6,1,266,8,1,1,1,568
2667,6,1,267,4,0,0,1,691
2668,6,1,268,8,1,1,1,927
2669,6,1,269,4,0,0,1,1079
2670,6,1,270,8,1,1,1,1314
2671,6,1,271,4,1,1,1,772
2672,6,1,272,4,0,0,1,867
2673,6,1,273,4,0,0,0,595
2674,6,1,274,4,0,0,1,541
2675,6,1,275,4,0,0,1,1023
2676,6,1,276,4,1,1,1,1038
2677,6,1,277,8,0,0,1,1774
2678,6,1,278,8,1,1,1,1207
2679,6,1,279,4,1,1,0,549
2680,6,1,280,4,0,0,1,751
2681,6,1,281,4,1,1,0,721
2682,6,1,282,4,0,0,1,699
2683,6,1,283,8,1,1,1,602
2684,6,1,284,8,1,1,1,1027
2685,6,1,285,8,1,1,1,1971
2686,6,1,286,8,1,1,1,981
2687,6,1,287,8,0,0,1,603
2688,6,1,288,8,0,0,1,1229
2689,6,1,289,8,1,1,1,1260
2690,6,1,290,8,0,0,1,1096
2691,6,1,291,4,1,1,1,1403
2692,6,1,292,4,0,0,1,1188
2693,6,1,293,8,0,0,1,1334
2694,6,1,294,4,1,1,1,637
2695,6,1,295,4,1,1,1,565
2696,6,1,296,4,1,1,1,661
2697,6,1,297,8,1,1,1,812
2698,6,1,298,8,0,0,1,828
2699,6,1,299,8,1,1,1,523
2700,6,1,300,8,1,1,1,1102
2701,6,1,301,4,1,1,1,1294
2702,6,1,302,8,0,0,1,1132
2703,6,1,303,4,1,1,1,577
2704,6,1,304,8,1,1,1,537
2705,6,1,305,8,0,0,1,1200
2706,6,1,306,8,0,0,1,976
2707,6,1,307,8,0,0,1,624
2708,6,1,308,8,0,0,1,1043
2709,6,1,309,8,1,1,1,1390
2710,6,1,310,8,0,0,1,1168
2711,6,1,311,8,1,1,1,761
2712,6,1,312,4,0,0,1,573
2713,6,1,313,8,0,0,1,1089
2714,6,1,314,8,1,1,1,617
2715,6,1,315,4,0,0,1,713
2716,6,1,316,8,1,1,1,1566
2717,6,1,317,8,1,1,1,2076
2718,6,1,318,4,1,1,1,620
2719,6,1,319,8,1,1,1,694
2720,6,1,320,8,0,0,1,693
2721,6,1,321,8,1,1,1,667
2722,6,1,322,4,1,1,1,979
2723,6,1,323,4,1,1,1,690
2724,6,1,324,8,0,0,1,1307
2725,6,1,325,4,0,0,1,827
2726,6,1,326,8,0,0,1,610
2727,6,1,327,4,0,0,1,446
2728,6,1,328,4,0,0,1,1099
2729,6,1,329,4,1,1,1,1197
2730,6,1,330,8,0,0,1,1063
2731,6,1,331,8,0,0,1,2843
2732,6,1,332,8,0,0,1,1539
2733,6,1,333,4,0,0,1,579
2734,6,1,334,8,0,0,1,537
2735,6,1,335,8,1,1,1,697
2736,6,1,336,8,0,0,1,459
2737,6,1,337,8,1,1,1,761
2738,6,1,338,8,1,1,1,623
2739,6,1,339,8,1,1,1,1439
2740,6,1,340,4,0,0,1,1323
2741,6,1,341,8,0,0,1,1246
2742,6,1,342,4,0,0,1,601
2743,6,1,343,4,1,1,1,953
2744,6,1,344,8,0,0,1,658
2745,6,1,345,8,1,1,1,675
2746,6,1,346,4,1,1,1,1092
2747,6,1,347,8,0,0,1,737
2748,6,1,348,8,0,0,1,1861
2749,6,1,349,8,0,0,1,725
2750,6,1,350,4,0,0,1,863
2751,6,1,351,4,1,1,1,883
2752,6,1,352,8,1,1,1,1596
2753,6,1,353,8,1,1,1,1285
2754,6,1,354,8,1,1,1,854
2755,6,1,355,4,0,0,1,672
2756,6,1,356,4,0,0,1,790
2757,6,1,357,8,0,0,1,501
2758,6,1,358,4,1,1,1,1042
2759,6,1,359,4,0,0,1,978
2760,6,1,360,8,0,0,1,687
2761,6,1,361,8,0,0,1,605
2762,6,1,362,8,0,0,1,1832
2763,6,1,363,8,0,0,1,1046
2764,6,1,364,8,0,0,1,1482
2765,6,1,365,4,1,1,1,768
2766,6,1,366,8,0,0,1,861
2767,6,1,367,4,1,1,1,668
2768,6,1,368,8,1,1,0,840
2769,6,1,369,8,0,0,1,2231
2770,6,1,370,8,0,0,1,1650
2771,6,1,371,8,0,0,1,662
2772,6,1,372,4,1,1,1,807
2773,6,1,373,8,0,0,1,1126
2774,6,1,374,4,0,0,1,533
2775,6,1,375,8,0,0,1,647
2776,6,1,376,4,0,0,1,919
2777,6,1,377,4,1,1,0,520
2778,6,1,378,4,1,1,1,627
2779,6,1,379,8,0,0,1,2133
2780,6,1,380,4,1,1,1,853
2781,6,1,381,8,0,0,1,838
2782,6,1,382,4,0,0,1,1054
2783,6,1,383,4,0,0,1,569
2784,6,1,384,8,0,0,1,1941
2785,6,1,385,4,0,0,1,594
2786,6,1,386,8,0,0,1,802
2787,6,1,387,8,0,0,1,642
2788,6,1,388,8,0,0,1,1228
2789,6,1,389,8,1,1,1,1434
2790,6,1,390,8,1,1,1,739
2791,6,1,391,4,1,1,1,1359
2792,6,1,392,8,1,1,1,870
2793,6,1,393,4,1,1,1,895
2794,6,1,394,4,1,1,1,926
2795,6,1,395,4,0,0,1,787
2796,6,1,396,4,1,1,1,820
2797,6,1,397,8,0,0,1,649
2798,6,1,398,8,0,0,1,589
2799,6,1,399,8,0,0,1,1234
2800,6,1,400,4,1,1,1,802
2801,6,1,401,4,1,1,1,674
2802,6,1,402,8,1,1,1,1732
2803,6,1,403,4,1,1,1,537
2804,6,1,404,4,0,0,1,853
2805,6,1,405,8,1,1,1,1711
2806,6,1,406,4,0,0,1,845
2807,6,1,407,4,0,0,1,732
2808,6,1,408,4,1,1,1,469
2809,6,1,409,8,1,1,1,833
2810,6,1,410,4,0,0,1,1008
2811,6,1,411,4,1,1,1,564
2812,6,1,412,4,0,0,1,494
2813,6,1,413,4,0,0,1,472
2814,6,1,414,4,0,0,1,774
2815,6,1,415,4,0,0,1,1101
2816,6,1,416,4,1,1,1,1193
2817,6,1,417,4,1,1,1,626
2818,6,1,418,4,1,1,1,671
2819,6,1,419,4,1,1,1,625
2820,6,1,420,8,1,1,1,508
2821,6,1,421,4,0,0,1,436
2822,6,1,422,8,1,1,1,730
2823,6,1,423,8,0,0,1,830
2824,6,1,424,8,0,0,1,1500
2825,6,1,425,8,0,0,1,802
2826,6,1,426,4,0,0,1,496
2827,6,1,427,8,0,0,1,723
2828,6,1,428,8,0,0,1,725
2829,6,1,429,4,0,0,1,533
2830,6,1,430,4,1,1,1,557
2831,6,1,431,8,1,1,1,785
2832,6,1,432,8,0,0,0,876
2833,6,1,433,8,1,1,1,886
2834,6,1,434,4,0,0,1,1106
2835,6,1,435,4,1,1,1,736
2836,6,1,436,8,1,1,1,621
2837,6,1,437,8,0,0,1,1687
2838,6,1,438,8,0,0,1,1030
2839,6,1,439,4,0,0,1,587
2840,6,1,440,4,0,0,1,985
2841,6,1,441,4,1,1,1,937
2842,6,1,442,8,1,1,1,639
2843,6,1,443,4,1,1,1,535
2844,6,1,444,8,1,1,1,1106
2845,6,1,445,8,0,0,1,1056
2846,6,1,446,8,0,0,1,760
2847,6,1,447,4,1,1,1,1123
2848,6,1,448,8,1,1,1,708
2849,6,1,449,8,0,0,1,530
2850,6,1,450,8,0,0,1,600
2851,6,1,451,8,1,1,1,1158
2852,6,1,452,4,1,1,1,509
2853,6,1,453,4,0,0,1,544
2854,6,1,454,8,1,1,1,1410
2855,6,1,455,4,1,1,1,720
2856,6,1,456,8,1,1,1,832
2857,6,1,457,8,1,1,1,523
2858,6,1,458,4,0,0,1,608
2859,6,1,459,8,1,1,1,783
2860,6,1,460,4,0,0,1,514
2861,6,1,461,8,0,0,1,594
2862,6,1,462,4,1,1,1,678
2863,6,1,463,8,0,0,1,1096
2864,6,1,464,4,0,0,1,509
2865,6,1,465,8,0,0,1,748
2866,6,1,466,4,0,0,1,934
2867,6,1,467,8,1,1,1,2623
2868,6,1,468,4,0,0,1,564
2869,6,1,469,8,0,0,1,817
2870,6,1,470,4,1,1,1,579
2871,6,1,471,8,1,1,1,898
2872,6,1,472,4,0,0,0,576
2873,6,1,473,4,1,1,1,752
2874,6,1,474,8,1,1,1,527
2875,6,1,475,4,0,0,1,768
2876,6,1,476,4,0,0,1,646
2877,6,1,477,4,1,1,1,1090
2878,6,1,478,8,1,1,1,902
2879,6,1,479,8,0,0,1,1112
2880,6,1,480,4,1,1,1,542
2881,6,1,481,8,0,0,1,1404
2882,6,1,482,4,1,1,1,856
2883,6,1,483,4,0,0,1,870
2884,6,1,484,4,1,1,1,532
2885,6,1,485,8,1,1,1,1098
2886,6,1,486,4,1,1,1,462
2887,6,1,487,8,1,1,1,1004
2888,6,1,488,8,1,1,1,552
2889,6,1,489,8,1,1,1,913
2890,6,1,490,4,1,1,1,823
2891,6,1,491,4,0,0,1,838
2892,6,1,492,4,0,0,1,958
2893,6,1,493,8,0,0,1,1599
2894,6,1,494,8,1,1,1,1307
2895,6,1,495,8,0,0,1,1040
2896,6,1,496,4,0,0,1,929
2897,6,1,497,4,0,0,1,575
2898,6,1,498,8,0,0,1,1529
2899,6,1,499,4,1,1,1,896
2900,6,1,500,8,1,1,1,556
2901,6,1,501,8,0,0,1,794
2902,6,1,502,4,1,1,1,795
2903,6,1,503,8,0,0,1,552
2904,6,1,504,8,1,1,1,1060
2905,6,1,505,4,1,1,1,632
2906,6,1,506,4,0,0,1,987
2907,6,1,507,4,0,0,1,667
2908,6,1,508,4,0,0,1,700
2909,6,1,509,8,1,1,1,632
2910,6,1,510,8,0,0,1,1538
2911,6,1,511,8,0,0,1,2506
2912,6,1,512,4,1,1,1,598
2913,6,1,513,8,1,1,1,1341
2914,6,1,514,8,1,1,1,915
2915,6,1,515,4,0,0,1,904
2916,6,1,516,8,0,0,1,662
2917,6,1,517,8,1,1,1,1299
2918,6,1,518,4,0,0,1,620
2919,6,1,519,4,1,1,1,740
2920,6,1,520,4,1,1,1,1517
2921,6,1,521,8,1,1,1,1050
2922,6,1,522,4,1,1,1,841
2923,6,1,523,4,0,0,1,684
2924,6,1,524,4,1,1,1,622
2925,6,1,525,4,0,0,1,879
2926,6,1,526,8,1,1,1,778
2927,6,1,527,8,1,1,1,534
2928,6,1,528,8,1,1,1,609
2929,6,1,529,8,1,1,1,1287
2930,6,1,530,8,1,1,1,1292
2931,6,1,531,4,1,1,1,515
2932,6,1,532,8,0,0,1,775
2933,6,1,533,8,0,0,1,1099
2934,6,1,534,4,1,1,1,1141
2935,6,1,535,4,0,0,1,578
2936,6,1,536,8,0,0,1,1079
2937,6,1,537,4,1,1,1,751
2938,6,1,538,8,0,0,1,600
2939,6,1,539,4,1,1,1,626
2940,6,1,540,8,0,0,1,1003
2941,6,1,541,4,0,0,1,625
2942,6,1,542,8,0,0,1,572
2943,6,1,543,4,0,0,1,498
2944,6,1,544,8,1,1,1,580
2945,6,1,545,8,0,0,1,1040
2946,6,1,546,4,0,0,1,445
2947,6,1,547,4,0,0,1,1152
2948,6,1,548,4,1,1,1,566
2949,6,1,549,8,0,0,1,721
2950,6,1,550,4,0,0,1,483
2951,6,1,551,4,1,1,1,685
2952,6,1,552,4,0,0,1,624
2953,6,1,553,4,1,1,1,636
2954,6,1,554,4,0,0,1,993
2955,6,1,555,4,1,1,1,501
2956,6,1,556,8,1,1,1,572
2957,6,1,557,8,1,1,1,576
2958,6,1,558,4,1,1,1,946
2959,6,1,559,8,0,0,0,848
2960,6,1,560,8,0,0,1,592
2961,6,1,561,8,1,1,1,730
2962,6,1,562,8,0,0,1,1092
2963,6,1,563,8,1,1,1,705
2964,6,1,564,4,1,1,1,880
2965,6,1,565,4,0,0,1,1010
2966,6,1,566,4,1,1,1,614
2967,6,1,567,4,0,0,1,758
2968,6,1,568,8,1,1,1,2062
2969,6,1,569,8,1,1,1,507
2970,6,1,570,4,1,1,1,795
2971,6,1,571,8,0,0,1,640
2972,6,1,572,4,1,1,1,617
2973,6,1,573,4,1,1,1,528
2974,6,1,574,4,1,1,1,673
2975,6,1,575,4,1,1,1,687
2976,6,1,576,4,0,0,1,626
2977,6,1,577,4,0,0,1,859
2978,6,1,578,4,1,1,1,786
2979,6,1,579,8,1,1,1,699
2980,6,1,580,8,0,0,1,753
2981,6,1,581,8,1,1,1,1002
2982,6,1,582,4,1,1,1,694
2983,6,1,583,4,0,0,1,658
2984,6,1,584,4,0,0,1,589
2985,6,1,585,8,1,1,1,841
2986,6,1,586,8,1,1,1,498
2987,6,1,587,8,1,1,1,907
2988,6,1,588,8,1,1,1,1252
2989,6,1,589,8,1,1,1,521
2990,6,1,590,4,1,1,1,506
2991,6,1,591,4,0,0,1,976
2992,6,1,592,8,0,0,1,631
2993,6,1,593,4,0,0,1,457
2994,6,1,594,4,0,0,1,963
2995,6,1,595,4,0,0,1,785
2996,6,1,596,8,0,0,1,1463
2997,6,1,597,4,1,1,1,834
2998,6,1,598,4,0,0,1,1156
2999,6,1,599,4,0,0,1,662
3000,6,1,600,4,1,1,1,1181
3001,7,1,1,4,1,3,0,4994
3002,7,1,2,8,0,0,0,1203
3003,7,1,3,4,1,1,0,1773
3004,7,1,4,8,1,1,1,2717
3005,7,1,5,4,0,0,1,1627
3006,7,1,6,4,0,0,1,2069
3007,7,1,7,4,1,1,1,1312
3008,7,1,8,8,0,0,1,3513
3009,7,1,9,4,0,0,1,2222
3010,7,1,10,8,1,1,1,1784
3011,7,1,11,8,0,0,1,3634
3012,7,1,12,4,0,0,1,2030
3013,7,1,13,8,0,0,1,3840
3014,7,1,14,8,0,0,1,1286
3015,7,1,15,8,0,0,1,1323
3016,7,1,16,4,1,1,1,1617
3017,7,1,17,8,0,0,1,1162
3018,7,1,18,8,1,1,1,782
3019,7,1,19,8,0,0,1,1182
3020,7,1,20,4,0,0,1,869
3021,7,1,21,8,0,0,1,1329
3022,7,1,22,8,0,0,1,1473
3023,7,1,23,8,0,0,1,849
3024,7,1,24,8,1,1,1,862
3025,7,1,25,4,0,0,1,728
3026,7,1,26,4,0,0,1,640
3027,7,1,27,8,0,0,1,731
3028,7,1,28,8,1,1,1,1296
3029,7,1,29,8,0,0,1,712
3030,7,1,30,8,1,1,1,1357
3031,7,1,31,4,0,0,1,908
3032,7,1,32,8,0,0,1,646
3033,7,1,33,4,1,1,1,607
3034,7,1,34,4,0,0,1,866
3035,7,1,35,8,1,1,1,1200
3036,7,1,36,8,0,0,1,605
3037,7,1,37,8,0,0,0,1189
3038,7,1,38,8,0,0,1,1708
3039,7,1,39,8,1,1,1,1771
3040,7,1,40,8,0,0,1,1248
3041,7,1,41,4,1,1,1,1716
3042,7,1,42,4,0,0,1,840
3043,7,1,43,8,0,0,1,1723
3044,7,1,44,8,0,0,1,718
3045,7,1,45,8,1,1,1,793
3046,7,1,46,8,0,0,1,1608
3047,7,1,47,4,1,1,1,1033
3048,7,1,48,4,1,1,1,1054
3049,7,1,49,8,1,1,1,1035
3050,7,1,50,4,1,1,1,814
3051,7,1,51,4,1,1,1,1221
3052,7,1,52,4,0,0,1,859
3053,7,1,53,8,1,1,1,1361
3054,7,1,54,4,0,0,1,587
3055,7,1,55,8,0,0,1,1616
3056,7,1,56,8,1,1,1,2172
3057,7,1,57,4,0,0,1,1793
3058,7,1,58,8,1,1,1,956
3059,7,1,59,4,1,1,1,570
3060,7,1,60,4,1,1,1,753
3061,7,1,61,4,0,0,1,937
3062,7,1,62,8,1,1,1,656
3063,7,1,63,8,0,0,1,961
3064,7,1,64,4,0,0,1,742
3065,7,1,65,4,1,1,1,914
3066,7,1,66,8,1,1,1,1115
3067,7,1,67,4,1,1,1,765
3068,7,1,68,8,1,1,1,782
3069,7,1,69,4,0,0,1,1702
3070,7,1,70,4,1,1,1,889
3071,7,1,71,4,1,1,1,777
3072,7,1,72,4,0,0,1,1265
3073,7,1,73,4,1,1,1,986
3074,7,1,74,8,1,1,1,876
3075,7,1,75,8,0,0,1,1043
3076,7,1,76,4,0,0,1,696
3077,7,1,77,8,1,1,1,798
3078,7,1,78,8,1,1,1,775
3079,7,1,79,8,1,1,0,1307
3080,7,1,80,8,0,0,1,1432
3081,7,1,81,4,0,0,1,714
3082,7,1,82,8,1,1,1,1225
3083,7,1,83,8,1,1,1,903
3084,7,1,84,4,0,0,1,1568
3085,7,1,85,8,1,1,1,741
3086,7,1,86,4,1,1,1,639
3087,7,1,87,8,0,0,1,1609
3088,7,1,88,8,0,0,1,2719
3089,7,1,89,8,0,0,1,785
3090,7,1,90,4,0,0,1,920
3091,7,1,91,8,1,1,1,1777
3092,7,1,92,4,0,0,1,1045
3093,7,1,93,4,1,1,1,690
3094,7,1,94,8,1,1,1,1139
3095,7,1,95,8,1,1,1,735
3096,7,1,96,4,0,0,1,676
3097,7,1,97,8,0,0,1,867
3098,7,1,98,8,0,0,1,593
3099,7,1,99,8,1,1,1,2393
3100,7,1,100,4,1,1,1,1303
3101,7,1,101,8,0,0,1,1150
3102,7,1,102,8,1,1,1,977
3103,7,1,103,4,1,1,1,987
3104,7,1,104,4,1,1,1,747
3105,7,1,105,4,1,1,1,965
3106,7,1,106,8,1,1,1,1360
3107,7,1,107,4,1,1,1,575
3108,7,1,108,8,0,0,1,863
3109,7,1,109,4,1,1,0,648
3110,7,1,110,8,0,0,1,1320
3111,7,1,111,4,1,1,1,797
3112,7,1,112,4,1,1,1,533
3113,7,1,113,8,1,1,1,591
3114,7,1,114,8,1,1,1,723
3115,7,1,115,4,0,0,1,1123
3116,7,1,116,8,1,1,1,1071
3117,7,1,117,8,1,1,1,1804
3118,7,1,118,4,1,1,1,840
3119,7,1,119,4,0,0,1,647
3120,7,1,120,4,1,1,1,855
3121,7,1,121,8,0,0,1,1274
3122,7,1,122,4,1,1,1,901
3123,7,1,123,4,0,0,1,1121
3124,7,1,124,4,0,0,1,1234
3125,7,1,125,8,0,0,1,877
3126,7,1,126,8,0,0,1,1166
3127,7,1,127,8,1,1,1,994
3128,7,1,128,8,1,1,1,837
3129,7,1,129,4,0,0,1,1457
3130,7,1,130,4,1,1,1,810
3131,7,1,131,8,1,1,1,627
3132,7,1,132,4,1,1,1,912
3133,7,1,133,4,1,1,1,1685
3134,7,1,134,4,0,0,1,1098
3135,7,1,135,8,1,1,1,1342
3136,7,1,136,4,0,0,1,1061
3137,7,1,137,4,0,0,1,750
3138,7,1,138,4,0,0,1,974
3139,7,1,139,8,0,0,1,924
3140,7,1,140,4,1,1,1,933
3141,7,1,141,4,0,0,1,1527
3142,7,1,142,8,1,1,1,1042
3143,7,1,143,8,0,0,1,1851
3144,7,1,144,4,1,1,1,882
3145,7,1,145,8,0,0,1,719
3146,7,1,146,8,1,1,1,1038
3147,7,1,147,8,0,0,1,763
3148,7,1,148,4,0,0,1,611
3149,7,1,149,4,0,0,0,1099
3150,7,1,150,4,1,1,1,974
3151,7,1,151,8,0,0,1,1524
3152,7,1,152,8,0,0,1,1123
3153,7,1,153,4,1,1,1,1552
3154,7,1,154,8,0,0,1,805
3155,7,1,155,4,0,0,1,718
3156,7,1,156,4,0,0,1,640
3157,7,1,157,4,0,0,1,1048
3158,7,1,158,4,1,1,1,863
3159,7,1,159,8,1,1,1,701
3160,7,1,160,4,1,1,1,821
3161,7,1,161,8,0,0,1,720
3162,7,1,162,8,0,0,1,1270
3163,7,1,163,8,0,0,1,1738
3164,7,1,164,4,0,0,1,1095
3165,7,1,165,8,1,1,1,1621
3166,7,1,166,8,1,1,1,2070
3167,7,1,167,8,0,0,1,929
3168,7,1,168,8,0,0,1,678
3169,7,1,169,4,0,0,1,883
3170,7,1,170,4,1,1,1,1379
3171,7,1,171,8,0,0,1,629
3172,7,1,172,4,0,0,1,1139
3173,7,1,173,4,1,1,1,1124
3174,7,1,174,8,0,0,1,1473
3175,7,1,175,4,0,0,1,917
3176,7,1,176,8,1,1,1,1190
3177,7,1,177,4,0,0,1,1069
3178,7,1,178,8,1,1,1,1103
3179,7,1,179,4,0,0,1,694
3180,7,1,180,4,1,1,1,688
3181,7,1,181,4,0,0,1,1006
3182,7,1,182,8,0,0,1,786
3183,7,1,183,8,1,1,1,1394
3184,7,1,184,4,1,1,1,844
3185,7,1,185,4,0,0,1,823
3186,7,1,186,8,0,0,1,770
3187,7,1,187,8,1,1,1,1567
3188,7,1,188,8,1,1,1,799
3189,7,1,189,8,1,1,1,1105
3190,7,1,190,4,1,1,1,645
3191,7,1,191,4,1,1,1,696
3192,7,1,192,8,1,1,1,912
3193,7,1,193,8,1,1,1,924
3194,7,1,194,8,1,1,1,1524
3195,7,1,195,4,0,0,1,689
3196,7,1,196,4,1,1,1,1227
3197,7,1,197,8,0,0,0,1721
3198,7,1,198,4,1,1,1,1374
3199,7,1,199,8,0,0,1,870
3200,7,1,200,8,0,0,1,1972
3201,7,1,201,4,1,1,1,876
3202,7,1,202,8,1,1,1,797
3203,7,1,203,8,1,1,1,1332
3204,7,1,204,4,1,1,1,547
3205,7,1,205,4,0,0,1,669
3206,7,1,206,4,0,0,1,1399
3207,7,1,207,4,1,1,1,1162
3208,7,1,208,4,0,0,1,1047
3209,7,1,209,8,1,1,1,667
3210,7,1,210,4,0,0,1,1094
3211,7,1,211,8,0,0,1,1349
3212,7,1,212,8,1,1,1,2015
3213,7,1,213,4,0,0,1,917
3214,7,1,214,4,0,0,1,2115
3215,7,1,215,4,1,1,1,909
3216,7,1,216,4,0,0,1,786
3217,7,1,217,8,1,1,1,1727
3218,7,1,218,4,0,0,1,884
3219,7,1,219,8,1,1,1,912
3220,7,1,220,4,1,1,1,1648
3221,7,1,221,8,1,1,1,1076
3222,7,1,222,8,1,1,1,626
3223,7,1,223,8,0,0,1,824
3224,7,1,224,4,0,0,1,761
3225,7,1,225,4,1,1,1,620
3226,7,1,226,4,1,1,1,726
3227,7,1,227,4,0,0,1,725
3228,7,1,228,8,0,0,1,2882
3229,7,1,229,4,0,0,1,1350
3230,7,1,230,8,0,0,1,938
3231,7,1,231,4,1,1,1,1151
3232,7,1,232,8,1,1,1,2192
3233,7,1,233,8,0,0,1,2124
3234,7,1,234,8,1,1,1,2707
3235,7,1,235,8,0,0,1,2328
3236,7,1,236,4,0,0,1,1788
3237,7,1,237,4,1,1,1,1708
3238,7,1,238,4,0,0,1,1458
3239,7,1,239,8,1,1,1,846
3240,7,1,240,8,1,1,1,821
3241,7,1,241,8,0,0,1,2578
3242,7,1,242,8,0,0,1,1469
3243,7,1,243,4,1,1,1,788
3244,7,1,244,4,0,0,1,517
3245,7,1,245,4,1,1,1,926
3246,7,1,246,4,1,1,1,1321
3247,7,1,247,8,1,1,1,1047
3248,7,1,248,8,0,0,1,1138
3249,7,1,249,4,0,0,1,1061
3250,7,1,250,4,0,0,1,667
3251,7,1,251,4,1,1,1,733
3252,7,1,252,8,1,1,1,724
3253,7,1,253,4,1,1,1,1692
3254,7,1,254,4,1,1,1,1184
3255,7,1,255,4,0,0,1,807
3256,7,1,256,4,1,1,1,1000
3257,7,1,257,4,1,1,1,547
3258,7,1,258,4,1,1,0,1130
3259,7,1,259,8,1,1,1,2092
3260,7,1,260,4,1,1,1,1652
3261,7,1,261,4,1,1,1,590
3262,7,1,262,8,1,1,1,2473
3263,7,1,263,8,1,1,1,754
3264,7,1,264,4,0,0,1,2640
3265,7,1,265,8,1,1,1,1235
3266,7,1,266,8,1,1,1,1374
3267,7,1,267,4,0,0,1,1294
3268,7,1,268,4,1,1,1,2450
3269,7,1,269,8,1,1,1,621
3270,7,1,270,8,1,1,1,576
3271,7,1,271,4,1,1,1,1464
3272,7,1,272,8,1,1,1,791
3273,7,1,273,8,0,0,1,1213
3274,7,1,274,8,0,0,1,2919
3275,7,1,275,4,1,1,1,1248
3276,7,1,276,4,1,1,1,889
3277,7,1,277,4,0,0,1,1141
3278,7,1,278,8,0,0,1,2462
3279,7,1,279,4,1,1,1,649
3280,7,1,280,8,1,1,1,2948
3281,7,1,281,8,0,0,1,1957
3282,7,1,282,4,0,0,1,1963
3283,7,1,283,8,1,1,1,1297
3284,7,1,284,8,0,0,1,1343
3285,7,1,285,4,1,1,1,1073
3286,7,1,286,4,0,0,1,2794
3287,7,1,287,4,0,0,1,1176
3288,7,1,288,4,1,1,1,717
3289,7,1,289,8,1,1,1,2899
3290,7,1,290,4,1,1,1,934
3291,7,1,291,8,0,0,1,1644
3292,7,1,292,8,0,0,1,3164
3293,7,1,293,4,1,1,1,1382
3294,7,1,294,4,0,0,1,1821
3295,7,1,295,8,1,3,0,4994
3296,7,1,296,4,0,0,1,660
3297,7,1,297,8,0,0,1,1112
3298,7,1,298,8,0,0,1,681
3299,7,1,299,4,1,1,1,713
3300,7,1,300,8,1,1,1,503
3301,7,1,301,4,1,1,1,1343
3302,7,1,302,4,1,1,1,586
3303,7,1,303,8,0,0,0,1238
3304,7,1,304,4,0,0,1,1294
3305,7,1,305,4,1,1,1,627
3306,7,1,306,8,0,0,1,1685
3307,7,1,307,8,0,0,1,825
3308,7,1,308,4,0,0,1,1290
3309,7,1,309,4,1,1,1,713
3310,7,1,310,8,0,0,0,896
3311,7,1,311,4,1,1,1,590
3312,7,1,312,8,1,1,1,528
3313,7,1,313,8,1,1,1,713
3314,7,1,314,8,1,1,1,852
3315,7,1,315,8,0,0,1,651
3316,7,1,316,4,0,0,1,574
3317,7,1,317,8,1,1,1,509
3318,7,1,318,4,0,0,1,967
3319,7,1,319,8,0,0,1,1926
3320,7,1,320,8,0,0,1,1145
3321,7,1,321,4,0,0,1,987
3322,7,1,322,8,0,0,0,1023
3323,7,1,323,8,0,0,1,829
3324,7,1,324,8,1,1,1,938
3325,7,1,325,4,0,0,1,1133
3326,7,1,326,4,1,1,1,798
3327,7,1,327,8,0,0,1,1102
3328,7,1,328,4,0,0,1,544
3329,7,1,329,4,0,0,1,835
3330,7,1,330,8,0,0,1,597
3331,7,1,331,4,0,0,1,919
3332,7,1,332,4,0,0,1,604
3333,7,1,333,8,0,0,1,1491
3334,7,1,334,4,1,1,1,976
3335,7,1,335,8,1,1,1,1832
3336,7,1,336,8,0,0,1,2181
3337,7,1,337,8,0,0,1,760
3338,7,1,338,4,0,0,1,791
3339,7,1,339,8,0,0,1,1025
3340,7,1,340,8,0,0,1,1173
3341,7,1,341,4,0,0,1,551
3342,7,1,342,8,1,1,1,711
3343,7,1,343,8,1,1,1,1001
3344,7,1,344,8,1,1,1,621
3345,7,1,345,4,1,1,1,1007
3346,7,1,346,8,0,0,1,768
3347,7,1,347,4,0,0,1,1093
3348,7,1,348,8,0,0,1,1471
3349,7,1,349,8,0,0,1,1319
3350,7,1,350,4,0,0,1,674
3351,7,1,351,4,1,1,1,1314
3352,7,1,352,4,0,0,1,722
3353,7,1,353,4,0,0,1,796
3354,7,1,354,4,1,1,1,880
3355,7,1,355,8,1,1,1,1202
3356,7,1,356,8,0,0,1,686
3357,7,1,357,4,0,0,1,1290
3358,7,1,358,4,0,0,1,953
3359,7,1,359,4,1,1,1,930
3360,7,1,360,8,1,1,1,582
3361,7,1,361,8,0,0,1,1472
3362,7,1,362,4,1,1,1,722
3363,7,1,363,4,1,1,1,753
3364,7,1,364,4,1,1,1,588
3365,7,1,365,8,1,1,1,1435
3366,7,1,366,8,1,1,1,689
3367,7,1,367,4,1,1,1,507
3368,7,1,368,8,1,1,1,1831
3369,7,1,369,8,0,0,1,805
3370,7,1,370,8,0,0,1,823
3371,7,1,371,4,1,1,1,767
3372,7,1,372,4,1,1,1,1082
3373,7,1,373,4,0,0,1,929
3374,7,1,374,4,1,1,1,922
3375,7,1,375,8,1,1,1,1064
3376,7,1,376,8,0,0,1,1304
3377,7,1,377,4,1,1,1,1097
3378,7,1,378,8,0,0,1,1039
3379,7,1,379,8,0,0,1,891
3380,7,1,380,4,0,0,1,1176
3381,7,1,381,4,1,1,1,768
3382,7,1,382,8,0,0,1,1480
3383,7,1,383,8,0,0,1,1857
3384,7,1,384,4,1,1,1,658
3385,7,1,385,8,0,0,1,823
3386,7,1,386,8,1,1,1,1275
3387,7,1,387,8,1,1,1,982
3388,7,1,388,4,1,1,1,1149
3389,7,1,389,8,0,0,1,1394
3390,7,1,390,4,0,0,1,884
3391,7,1,391,4,1,1,1,1195
3392,7,1,392,4,1,1,1,854
3393,7,1,393,4,0,0,1,1000
3394,7,1,394,4,1,1,1,855
3395,7,1,395,8,1,1,1,1572
3396,7,1,396,4,1,1,1,668
3397,7,1,397,4,0,0,1,1764
3398,7,1,398,8,1,1,1,1233
3399,7,1,399,8,1,1,1,908
3400,7,1,400,8,1,1,1,1750
3401,7,1,401,8,0,0,1,710
3402,7,1,402,4,1,1,1,731
3403,7,1,403,4,1,1,1,699
3404,7,1,404,8,1,1,1,954
3405,7,1,405,4,1,1,1,666
3406,7,1,406,4,0,0,1,993
3407,7,1,407,8,1,1,1,497
3408,7,1,408,4,1,1,1,1244
3409,7,1,409,8,0,0,1,680
3410,7,1,410,8,0,0,1,713
3411,7,1,411,4,1,1,1,459
3412,7,1,412,4,0,0,1,460
3413,7,1,413,8,1,1,1,1026
3414,7,1,414,4,1,1,1,625
3415,7,1,415,4,1,1,1,483
3416,7,1,416,4,0,0,1,928
3417,7,1,417,4,0,0,0,567
3418,7,1,418,8,1,1,1,1672
3419,7,1,419,8,0,0,1,862
3420,7,1,420,4,0,0,1,1255
3421,7,1,421,4,0,0,1,766
3422,7,1,422,8,1,1,1,1014
3423,7,1,423,8,1,1,1,1014
3424,7,1,424,4,1,1,1,1050
3425,7,1,425,4,1,1,0,811
3426,7,1,426,8,0,0,1,842
3427,7,1,427,8,0,0,1,1285
3428,7,1,428,8,1,1,1,970
3429,7,1,429,8,0,0,1,1309
3430,7,1,430,4,0,0,1,1656
3431,7,1,431,8,1,1,1,831
3432,7,1,432,4,0,0,1,716
3433,7,1,433,4,1,1,1,572
3434,7,1,434,8,1,1,1,1928
3435,7,1,435,8,0,0,1,1375
3436,7,1,436,8,1,1,1,1220
3437,7,1,437,8,0,0,1,1459
3438,7,1,438,8,0,0,1,1019
3439,7,1,439,4,1,1,1,785
3440,7,1,440,8,0,0,1,1536
3441,7,1,441,8,0,0,1,732
3442,7,1,442,4,1,1,1,2067
3443,7,1,443,8,1,1,1,830
3444,7,1,444,4,0,0,1,1006
3445,7,1,445,8,0,0,1,1070
3446,7,1,446,4,1,1,1,959
3447,7,1,447,8,1,1,1,1022
3448,7,1,448,8,0,0,1,996
3449,7,1,449,4,1,1,1,1437
3450,7,1,450,8,1,1,1,1590
3451,7,1,451,4,0,0,1,634
3452,7,1,452,4,0,0,1,835
3453,7,1,453,4,1,1,1,1389
3454,7,1,454,8,1,1,1,759
3455,7,1,455,8,0,0,1,878
3456,7,1,456,4,1,1,1,921
3457,7,1,457,8,0,0,1,2361
3458,7,1,458,8,0,0,1,1008
3459,7,1,459,8,1,1,1,1886
3460,7,1,460,8,0,0,1,628
3461,7,1,461,4,0,0,1,597
3462,7,1,462,8,0,0,1,625
3463,7,1,463,4,0,0,0,529
3464,7,1,464,8,1,1,1,614
3465,7,1,465,8,1,1,1,542
3466,7,1,466,8,0,0,1,1370
3467,7,1,467,4,0,0,1,680
3468,7,1,468,4,0,0,1,645
3469,7,1,469,8,1,1,1,1660
3470,7,1,470,4,1,1,1,529
3471,7,1,471,8,1,1,1,755
3472,7,1,472,4,0,0,1,600
3473,7,1,473,8,1,1,1,869
3474,7,1,474,8,1,1,1,1138
3475,7,1,475,4,1,1,1,672
3476,7,1,476,4,0,0,1,857
3477,7,1,477,8,0,0,1,880
3478,7,1,478,8,1,1,1,2110
3479,7,1,479,4,1,1,1,1140
3480,7,1,480,4,0,0,1,853
3481,7,1,481,8,0,0,1,1868
3482,7,1,482,8,0,0,1,1957
3483,7,1,483,8,0,0,1,1783
3484,7,1,484,4,0,0,1,2216
3485,7,1,485,4,1,1,1,1072
3486,7,1,486,8,1,1,1,1331
3487,7,1,487,4,1,1,1,715
3488,7,1,488,4,0,0,1,567
3489,7,1,489,4,1,1,1,1038
3490,7,1,490,8,0,0,1,1786
3491,7,1,491,8,0,0,1,1364
3492,7,1,492,8,0,0,1,841
3493,7,1,493,8,1,1,1,787
3494,7,1,494,8,1,1,1,925
3495,7,1,495,4,1,1,1,1350
3496,7,1,496,4,0,0,1,1185
3497,7,1,497,8,0,0,1,1431
3498,7,1,498,4,1,1,1,862
3499,7,1,499,8,1,1,1,2587
3500,7,1,500,8,0,0,1,1035
3501,7,1,501,4,1,1,1,791
3502,7,1,502,8,1,1,1,1495
3503,7,1,503,8,1,1,1,2960
3504,7,1,504,4,0,0,0,1913
3505,7,1,505,8,1,1,1,1506
3506,7,1,506,8,0,0,1,1429
3507,7,1,507,8,0,0,1,683
3508,7,1,508,4,0,0,1,535
3509,7,1,509,4,1,1,1,690
3510,7,1,510,4,1,1,1,754
3511,7,1,511,4,0,0,1,952
3512,7,1,512,4,0,0,1,916
3513,7,1,513,4,1,1,1,1306
3514,7,1,514,8,1,1,1,1216
3515,7,1,515,4,1,1,1,1385
3516,7,1,516,4,0,0,1,686
3517,7,1,517,8,1,1,1,670
3518,7,1,518,8,1,1,1,1025
3519,7,1,519,8,1,1,1,866
3520,7,1,520,4,0,0,1,606
3521,7,1,521,4,1,1,1,529
3522,7,1,522,8,0,0,1,1135
3523,7,1,523,4,1,1,1,975
3524,7,1,524,4,0,0,1,903
3525,7,1,525,4,0,0,1,760
3526,7,1,526,4,0,0,1,1354
3527,7,1,527,8,0,0,1,634
3528,7,1,528,4,0,0,1,659
3529,7,1,529,4,1,1,1,967
3530,7,1,530,8,0,0,1,1285
3531,7,1,531,4,0,0,1,1154
3532,7,1,532,8,1,1,1,3571
3533,7,1,533,8,0,0,1,1163
3534,7,1,534,8,0,0,1,533
3535,7,1,535,8,0,0,1,565
3536,7,1,536,4,0,0,1,1041
3537,7,1,537,4,0,0,1,1091
3538,7,1,538,4,0,0,1,630
3539,7,1,539,8,0,0,1,2365
3540,7,1,540,4,0,0,1,692
3541,7,1,541,4,1,3,0,1282
3542,7,1,542,4,0,0,1,777
3543,7,1,543,4,0,0,1,815
3544,7,1,544,4,0,0,1,706
3545,7,1,545,4,1,1,1,666
3546,7,1,546,4,0,0,1,1352
3547,7,1,547,8,0,0,1,1685
3548,7,1,548,8,0,0,1,593
3549,7,1,549,4,1,1,1,730
3550,7,1,550,4,0,0,1,616
3551,7,1,551,4,0,0,1,843
3552,7,1,552,4,1,1,1,1710
3553,7,1,553,8,0,0,1,1901
3554,7,1,554,4,0,0,1,2733
3555,7,1,555,4,0,0,1,1199
3556,7,1,556,4,0,0,1,1287
3557,7,1,557,8,1,1,0,1122
3558,7,1,558,8,1,1,1,2520
3559,7,1,559,8,0,0,1,1266
3560,7,1,560,8,1,1,1,4239
3561,7,1,561,4,0,0,1,777
3562,7,1,562,8,1,1,1,597
3563,7,1,563,4,1,1,1,839
3564,7,1,564,8,1,1,1,519
3565,7,1,565,4,0,0,1,891
3566,7,1,566,4,1,1,1,497
3567,7,1,567,8,1,1,1,701
3568,7,1,568,8,1,1,1,595
3569,7,1,569,4,0,0,1,707
3570,7,1,570,8,1,1,1,2036
3571,7,1,571,4,1,1,1,1070
3572,7,1,572,8,1,1,1,779
3573,7,1,573,4,0,0,1,638
3574,7,1,574,4,1,1,1,1280
3575,7,1,575,8,0,0,1,1484
3576,7,1,576,8,1,1,1,2340
3577,7,1,577,8,1,1,1,759
3578,7,1,578,4,0,0,1,978
3579,7,1,579,4,0,0,1,709
3580,7,1,580,4,0,0,1,673
3581,7,1,581,4,0,0,1,1545
3582,7,1,582,8,1,1,0,624
3583,7,1,583,4,1,1,1,1068
3584,7,1,584,8,0,0,1,1453
3585,7,1,585,4,0,0,1,770
3586,7,1,586,4,1,1,1,670
3587,7,1,587,4,1,1,1,560
3588,7,1,588,4,0,0,1,1742
3589,7,1,589,8,0,0,1,2091
3590,7,1,590,8,1,1,1,715
3591,7,1,591,4,1,1,1,672
3592,7,1,592,4,1,1,1,862
3593,7,1,593,8,1,1,0,416
3594,7,1,594,8,0,0,1,2353
3595,7,1,595,8,1,1,1,744
3596,7,1,596,8,0,0,1,1381
3597,7,1,597,4,1,1,1,626
3598,7,1,598,8,1,1,1,617
3599,7,1,599,8,1,1,1,994
3600,7,1,600,4,1,1,1,693
3601,8,1,1,8,1,3,0,4989
3602,8,1,2,8,1,3,0,4999
3603,8,1,3,4,1,1,1,4489
3604,8,1,4,8,1,1,1,1425
3605,8,1,5,4,0,0,1,1222
3606,8,1,6,4,0,0,1,1251
3607,8,1,7,4,1,1,1,969
3608,8,1,8,8,0,0,1,1830
3609,8,1,9,4,1,1,1,936
3610,8,1,10,8,1,1,1,1071
3611,8,1,11,8,0,0,1,2070
3612,8,1,12,4,0,0,1,1309
3613,8,1,13,8,1,1,1,1332
3614,8,1,14,8,0,0,1,1449
3615,8,1,15,4,0,0,1,827
3616,8,1,16,4,1,1,1,1124
3617,8,1,17,8,1,1,1,1500
3618,8,1,18,4,0,0,1,821
3619,8,1,19,8,1,1,1,810
3620,8,1,20,8,0,0,1,688
3621,8,1,21,8,1,1,1,665
3622,8,1,22,4,1,1,1,994
3623,8,1,23,8,1,1,1,1932
3624,8,1,24,4,1,1,1,583
3625,8,1,25,4,0,0,1,831
3626,8,1,26,8,0,0,1,2018
3627,8,1,27,8,1,1,1,2024
3628,8,1,28,8,1,1,1,1242
3629,8,1,29,4,1,1,1,1148
3630,8,1,30,8,1,1,1,987
3631,8,1,31,4,1,1,1,1000
3632,8,1,32,8,1,1,1,1569
3633,8,1,33,4,0,0,1,1365
3634,8,1,34,8,0,0,1,811
3635,8,1,35,4,1,1,1,899
3636,8,1,36,8,1,1,1,1032
3637,8,1,37,4,1,1,1,1580
3638,8,1,38,8,1,1,1,1451
3639,8,1,39,8,0,0,1,957
3640,8,1,40,4,1,1,1,1477
3641,8,1,41,8,0,0,1,1769
3642,8,1,42,8,1,1,1,1158
3643,8,1,43,4,0,0,1,991
3644,8,1,44,4,0,0,1,713
3645,8,1,45,4,1,1,1,1823
3646,8,1,46,4,1,1,1,1310
3647,8,1,47,4,0,0,1,966
3648,8,1,48,8,0,0,1,1502
3649,8,1,49,8,1,1,1,1920
3650,8,1,50,8,0,0,1,1375
3651,8,1,51,4,0,0,1,1078
3652,8,1,52,8,1,1,1,1555
3653,8,1,53,4,0,0,0,750
3654,8,1,54,8,1,1,1,1485
3655,8,1,55,4,0,0,1,1610
3656,8,1,56,8,0,0,1,1539
3657,8,1,57,4,1,1,1,1275
3658,8,1,58,4,1,1,1,753
3659,8,1,59,4,0,0,1,1236
3660,8,1,60,4,0,0,1,1055
3661,8,1,61,4,1,1,1,1293
3662,8,1,62,4,1,1,1,871
3663,8,1,63,8,1,1,1,811
3664,8,1,64,8,0,0,1,727
3665,8,1,65,8,1,1,1,1096
3666,8,1,66,8,0,0,1,802
3667,8,1,67,4,0,0,1,1195
3668,8,1,68,8,1,1,1,971
3669,8,1,69,4,1,1,1,1035
3670,8,1,70,4,0,0,1,921
3671,8,1,71,8,1,1,1,1075
3672,8,1,72,8,1,1,1,1089
3673,8,1,73,8,1,1,1,1204
3674,8,1,74,4,0,0,1,1730
3675,8,1,75,8,1,1,1,1142
3676,8,1,76,4,1,1,1,1719
3677,8,1,77,4,0,0,1,1128
3678,8,1,78,8,0,0,1,1126
3679,8,1,79,4,1,1,1,1100
3680,8,1,80,8,0,0,1,2035
3681,8,1,81,4,1,1,1,1523
3682,8,1,82,4,1,1,1,940
3683,8,1,83,4,1,1,1,930
3684,8,1,84,4,1,1,1,729
3685,8,1,85,4,0,0,1,1002
3686,8,1,86,4,0,0,1,939
3687,8,1,87,4,1,1,1,1126
3688,8,1,88,8,1,1,1,1919
3689,8,1,89,8,1,1,1,1232
3690,8,1,90,4,0,0,1,702
3691,8,1,91,8,0,0,1,1367
3692,8,1,92,4,0,0,1,1055
3693,8,1,93,4,1,1,1,1245
3694,8,1,94,8,0,0,1,996
3695,8,1,95,4,0,0,1,1322
3696,8,1,96,8,1,1,1,2120
3697,8,1,97,8,1,1,1,2218
3698,8,1,98,4,1,1,1,981
3699,8,1,99,4,0,0,1,995
3700,8,1,100,4,1,1,1,1167
3701,8,1,101,4,0,0,1,1010
3702,8,1,102,4,1,1,1,917
3703,8,1,103,8,1,1,1,1401
3704,8,1,104,8,0,0,1,1392
3705,8,1,105,8,1,1,1,953
3706,8,1,106,8,0,0,1,1124
3707,8,1,107,8,0,0,1,1318
3708,8,1,108,8,0,0,1,1363
3709,8,1,109,4,1,1,1,1585
3710,8,1,110,4,1,1,1,651
3711,8,1,111,8,1,1,1,1869
3712,8,1,112,8,0,0,1,1945
3713,8,1,113,8,0,0,1,1955
3714,8,1,114,4,0,0,1,1358
3715,8,1,115,8,0,0,1,2172
3716,8,1,116,4,0,0,1,1065
3717,8,1,117,8,1,1,1,1235
3718,8,1,118,4,1,1,1,723
3719,8,1,119,8,1,1,1,1426
3720,8,1,120,8,0,0,1,976
3721,8,1,121,8,0,0,1,1299
3722,8,1,122,4,0,0,1,696
3723,8,1,123,8,0,0,1,1548
3724,8,1,124,4,1,1,1,976
3725,8,1,125,4,1,1,1,1355
3726,8,1,126,8,0,0,1,950
3727,8,1,127,4,1,1,1,1076
3728,8,1,128,4,1,1,1,864
3729,8,1,129,4,0,0,1,698
3730,8,1,130,8,1,1,1,1013
3731,8,1,131,8,1,1,1,1294
3732,8,1,132,4,0,0,1,1223
3733,8,1,133,4,1,1,1,1137
3734,8,1,134,4,1,1,1,875
3735,8,1,135,8,0,0,1,848
3736,8,1,136,4,1,1,1,657
3737,8,1,137,4,0,0,1,1041
3738,8,1,138,4,1,1,1,732
3739,8,1,139,4,1,1,1,841
3740,8,1,140,8,1,1,1,1720
3741,8,1,141,8,0,0,1,1369
3742,8,1,142,4,1,1,1,1109
3743,8,1,143,4,1,1,1,1477
3744,8,1,144,4,1,1,1,550
3745,8,1,145,8,1,1,1,1696
3746,8,1,146,8,0,0,1,752
3747,8,1,147,8,0,0,1,1887
3748,8,1,148,4,1,1,1,899
3749,8,1,149,4,1,1,1,818
3750,8,1,150,4,1,1,1,579
3751,8,1,151,8,0,0,1,1426
3752,8,1,152,4,0,0,1,703
3753,8,1,153,4,0,0,1,859
3754,8,1,154,4,1,1,1,925
3755,8,1,155,8,1,1,1,1293
3756,8,1,156,4,1,1,1,1525
3757,8,1,157,8,0,0,1,1791
3758,8,1,158,4,0,0,1,1089
3759,8,1,159,8,1,1,1,1274
3760,8,1,160,4,0,0,1,1234
3761,8,1,161,8,1,1,1,637
3762,8,1,162,8,0,0,1,1162
3763,8,1,163,4,0,0,1,1040
3764,8,1,164,8,0,0,1,1220
3765,8,1,165,8,0,0,1,909
3766,8,1,166,4,1,1,1,1340
3767,8,1,167,8,0,0,1,980
3768,8,1,168,8,0,0,1,776
3769,8,1,169,8,1,1,1,711
3770,8,1,170,4,1,1,1,1426
3771,8,1,171,4,1,1,1,611
3772,8,1,172,8,1,1,1,957
3773,8,1,173,8,1,1,1,1821
3774,8,1,174,8,0,0,1,1281
3775,8,1,175,4,0,0,1,1622
3776,8,1,176,8,1,1,1,1247
3777,8,1,177,4,0,0,1,936
3778,8,1,178,8,0,0,1,981
3779,8,1,179,8,0,0,1,951
3780,8,1,180,4,1,1,1,1198
3781,8,1,181,8,0,0,1,1550
3782,8,1,182,4,0,0,1,1129
3783,8,1,183,4,1,1,1,855
3784,8,1,184,4,1,1,1,1143
3785,8,1,185,8,0,0,1,699
3786,8,1,186,4,1,1,1,873
3787,8,1,187,4,0,0,1,988
3788,8,1,188,8,0,0,1,1601
3789,8,1,189,4,0,0,1,1206
3790,8,1,190,8,1,1,1,1129
3791,8,1,191,8,0,0,1,1008
3792,8,1,192,4,1,1,1,992
3793,8,1,193,4,0,0,1,1003
3794,8,1,194,8,0,0,1,829
3795,8,1,195,4,0,0,1,940
3796,8,1,196,8,1,1,1,2763
3797,8,1,197,8,1,1,1,1195
3798,8,1,198,4,0,0,1,662
3799,8,1,199,4,0,0,1,1600
3800,8,1,200,4,0,0,1,756
3801,8,1,201,4,0,0,1,1009
3802,8,1,202,4,1,1,1,1069
3803,8,1,203,8,1,1,1,1307
3804,8,1,204,4,0,0,1,862
3805,8,1,205,4,1,1,1,734
3806,8,1,206,4,1,1,1,1880
3807,8,1,207,4,0,0,1,1070
3808,8,1,208,4,0,0,1,1049
3809,8,1,209,8,0,0,1,774
3810,8,1,210,8,1,1,1,1172
3811,8,1,211,8,0,0,1,975
3812,8,1,212,8,1,1,1,946
3813,8,1,213,8,0,0,1,1968
3814,8,1,214,8,0,0,1,783
3815,8,1,215,4,1,1,1,862
3816,8,1,216,8,0,0,1,1977
3817,8,1,217,4,0,0,1,1042
3818,8,1,218,8,1,1,1,1336
3819,8,1,219,4,1,1,1,981
3820,8,1,220,4,0,0,1,1330
3821,8,1,221,4,1,1,1,1845
3822,8,1,222,4,0,0,1,1046
3823,8,1,223,8,1,1,1,2607
3824,8,1,224,4,0,0,1,1045
3825,8,1,225,8,1,1,1,1314
3826,8,1,226,4,1,1,1,1092
3827,8,1,227,8,0,0,1,4311
3828,8,1,228,4,0,0,1,966
3829,8,1,229,4,1,1,1,1174
3830,8,1,230,4,0,0,1,1426
3831,8,1,231,4,1,1,1,971
3832,8,1,232,8,1,1,1,1498
3833,8,1,233,8,1,1,1,1096
3834,8,1,234,8,0,0,1,919
3835,8,1,235,4,0,0,1,608
3836,8,1,236,8,1,1,1,1112
3837,8,1,237,8,0,0,1,1010
3838,8,1,238,8,1,1,1,1733
3839,8,1,239,8,0,0,1,887
3840,8,1,240,4,1,1,1,859
3841,8,1,241,8,0,0,1,2077
3842,8,1,242,8,1,1,1,1519
3843,8,1,243,4,0,0,1,1319
3844,8,1,244,8,0,0,1,510
3845,8,1,245,4,0,0,1,446
3846,8,1,246,4,0,0,0,1005
3847,8,1,247,8,0,0,1,866
3848,8,1,248,4,0,0,1,724
3849,8,1,249,4,1,1,1,1730
3850,8,1,250,8,1,1,1,793
3851,8,1,251,8,1,1,1,2578
3852,8,1,252,4,0,0,1,1252
3853,8,1,253,4,0,0,1,1010
3854,8,1,254,8,0,0,1,1450
3855,8,1,255,8,1,1,1,1122
3856,8,1,256,8,0,0,1,2121
3857,8,1,257,4,1,1,1,715
3858,8,1,258,8,1,1,1,1125
3859,8,1,259,8,1,1,1,931
3860,8,1,260,4,0,0,1,1156
3861,8,1,261,4,1,1,1,1237
3862,8,1,262,8,1,1,1,2898
3863,8,1,263,4,0,0,1,1092
3864,8,1,264,8,0,0,1,1648
3865,8,1,265,8,0,0,1,781
3866,8,1,266,8,1,1,1,1255
3867,8,1,267,8,0,0,1,634
3868,8,1,268,8,1,1,1,1570
3869,8,1,269,4,0,0,1,1511
3870,8,1,270,8,1,1,1,1754
3871,8,1,271,4,0,0,1,1308
3872,8,1,272,8,0,0,1,1244
3873,8,1,273,8,0,0,1,970
3874,8,1,274,4,0,0,1,658
3875,8,1,275,8,0,0,1,563
3876,8,1,276,8,1,1,1,1667
3877,8,1,277,4,1,1,1,1193
3878,8,1,278,8,1,1,1,2070
3879,8,1,279,4,1,1,1,1109
3880,8,1,280,8,1,1,1,2375
3881,8,1,281,8,1,1,1,1170
3882,8,1,282,8,0,0,1,1027
3883,8,1,283,8,0,0,1,1844
3884,8,1,284,8,0,0,1,1182
3885,8,1,285,8,1,1,1,2833
3886,8,1,286,8,0,0,1,1067
3887,8,1,287,8,1,1,1,1256
3888,8,1,288,4,1,1,1,662
3889,8,1,289,8,1,1,1,700
3890,8,1,290,8,0,0,1,1021
3891,8,1,291,4,0,0,1,1178
3892,8,1,292,4,1,1,1,677
3893,8,1,293,4,0,0,1,673
3894,8,1,294,4,1,1,1,616
3895,8,1,295,4,0,0,1,908
3896,8,1,296,8,0,0,1,967
3897,8,1,297,8,1,1,1,1128
3898,8,1,298,4,0,0,1,711
3899,8,1,299,8,1,1,1,719
3900,8,1,300,4,0,0,1,989
3901,8,1,301,4,0,0,1,1255
3902,8,1,302,4,1,1,1,936
3903,8,1,303,8,1,1,1,1099
3904,8,1,304,8,1,1,1,1854
3905,8,1,305,8,1,1,1,1317
3906,8,1,306,4,1,1,1,704
3907,8,1,307,4,0,0,1,1252
3908,8,1,308,8,0,0,1,639
3909,8,1,309,8,1,1,1,1489
3910,8,1,310,8,1,1,1,1395
3911,8,1,311,4,1,1,1,1080
3912,8,1,312,4,0,0,1,583
3913,8,1,313,4,1,1,1,1035
3914,8,1,314,8,1,1,1,1577
3915,8,1,315,8,0,0,1,1894
3916,8,1,316,4,0,0,1,1432
3917,8,1,317,8,0,0,1,1081
3918,8,1,318,8,1,1,1,2266
3919,8,1,319,8,1,1,1,2004
3920,8,1,320,8,0,0,1,1432
3921,8,1,321,8,0,0,1,2276
3922,8,1,322,8,1,1,1,1059
3923,8,1,323,4,0,0,1,986
3924,8,1,324,4,0,0,1,633
3925,8,1,325,4,1,1,1,1482
3926,8,1,326,4,1,1,1,1035
3927,8,1,327,8,0,0,1,924
3928,8,1,328,4,1,1,1,735
3929,8,1,329,8,1,1,1,1351
3930,8,1,330,8,1,1,1,1544
3931,8,1,331,4,0,0,1,1013
3932,8,1,332,8,0,0,1,1234
3933,8,1,333,4,0,0,1,1246
3934,8,1,334,8,1,1,1,1093
3935,8,1,335,8,0,0,1,1072
3936,8,1,336,4,1,1,1,1489
3937,8,1,337,4,1,1,1,1068
3938,8,1,338,8,1,1,1,809
3939,8,1,339,8,0,0,1,708
3940,8,1,340,4,0,0,1,1033
3941,8,1,341,4,1,1,1,1670
3942,8,1,342,8,0,0,1,1264
3943,8,1,343,8,0,0,1,1877
3944,8,1,344,4,0,0,1,887
3945,8,1,345,4,1,1,1,806
3946,8,1,346,8,1,1,1,573
3947,8,1,347,4,1,1,1,812
3948,8,1,348,8,0,0,1,1382
3949,8,1,349,8,1,1,1,1375
3950,8,1,350,4,1,1,1,632
3951,8,1,351,8,1,1,1,1116
3952,8,1,352,4,0,0,1,1118
3953,8,1,353,8,1,1,1,756
3954,8,1,354,4,1,1,1,893
3955,8,1,355,4,0,0,1,1197
3956,8,1,356,4,1,1,1,853
3957,8,1,357,8,0,0,1,1478
3958,8,1,358,4,1,1,1,887
3959,8,1,359,8,0,0,1,1257
3960,8,1,360,4,1,1,1,1349
3961,8,1,361,4,0,0,1,1142
3962,8,1,362,4,1,1,1,667
3963,8,1,363,4,1,1,1,739
3964,8,1,364,4,1,1,1,855
3965,8,1,365,8,0,0,1,1324
3966,8,1,366,4,0,0,1,1109
3967,8,1,367,4,0,0,1,731
3968,8,1,368,8,1,1,1,2234
3969,8,1,369,8,0,0,1,1228
3970,8,1,370,8,0,0,1,1267
3971,8,1,371,4,0,0,1,1008
3972,8,1,372,4,0,0,1,974
3973,8,1,373,8,0,0,1,1387
3974,8,1,374,4,1,1,1,1533
3975,8,1,375,4,1,1,1,626
3976,8,1,376,8,0,0,1,831
3977,8,1,377,8,0,0,1,1970
3978,8,1,378,4,0,0,1,1163
3979,8,1,379,8,0,0,1,674
3980,8,1,380,8,0,0,1,1042
3981,8,1,381,4,0,0,1,950
3982,8,1,382,4,0,0,1,1078
3983,8,1,383,4,1,1,1,757
3984,8,1,384,4,0,0,1,887
3985,8,1,385,4,0,0,1,562
3986,8,1,386,8,0,0,1,575
3987,8,1,387,8,1,1,1,941
3988,8,1,388,4,1,1,1,1575
3989,8,1,389,4,1,1,1,1113
3990,8,1,390,4,1,1,1,608
3991,8,1,391,4,0,0,1,553
3992,8,1,392,8,0,0,1,1118
3993,8,1,393,4,0,0,1,952
3994,8,1,394,4,0,0,1,1353
3995,8,1,395,4,0,0,1,902
3996,8,1,396,8,0,0,1,807
3997,8,1,397,4,1,1,1,993
3998,8,1,398,8,0,0,1,1419
3999,8,1,399,4,0,0,1,1371
4000,8,1,400,8,0,0,1,1159
4001,8,1,401,8,0,0,1,1677
4002,8,1,402,4,0,0,1,803
4003,8,1,403,4,1,1,1,956
4004,8,1,404,8,0,0,1,1090
4005,8,1,405,8,1,1,1,1962
4006,8,1,406,8,0,0,1,1634
4007,8,1,407,4,1,1,1,805
4008,8,1,408,4,1,1,1,765
4009,8,1,409,8,1,1,1,1191
4010,8,1,410,4,0,0,1,991
