trial_id,Subject,block_n,Trial,numDistractors,correctResponse,keyResponse,acc,RT
1,12,1,1,8,0,0,1,2213
2,12,1,2,4,0,0,1,2149
3,12,1,3,8,1,1,1,932
4,12,1,4,4,1,1,1,2478
5,12,1,5,4,0,0,1,712
6,12,1,6,4,1,1,1,2347
7,12,1,7,8,1,1,1,562
8,12,1,8,4,1,1,1,533
9,12,1,9,4,0,0,1,1556
10,12,1,10,8,1,1,1,1152
11,12,1,11,4,0,0,1,2415
12,12,1,12,8,0,0,1,1064
13,12,1,13,4,0,0,1,987
14,12,1,14,8,1,1,1,692
15,12,1,15,8,1,1,1,501
16,12,1,16,8,0,0,1,2253
17,12,1,17,8,0,0,1,2020
18,12,1,18,4,0,0,1,2298
19,12,1,19,8,1,1,1,2330
20,12,1,20,4,1,1,1,2263
21,12,1,21,8,1,1,1,1252
22,12,1,22,4,0,0,1,713
23,12,1,23,8,0,0,1,2990
24,12,1,24,4,1,1,1,732
25,12,1,25,8,1,3,0,4996
26,12,1,26,4,0,0,1,1570
27,12,1,27,8,1,1,1,1217
28,12,1,28,8,1,1,1,2399
29,12,1,29,4,0,0,1,1978
30,12,1,30,8,1,1,1,883
31,12,1,31,8,1,1,1,2159
32,12,1,32,4,0,0,1,890
33,12,1,33,4,1,1,1,2044
34,12,1,34,8,0,0,1,2214
35,12,1,35,4,0,0,1,657
36,12,1,36,4,1,1,1,2519
37,12,1,37,8,1,1,1,2933
38,12,1,38,8,1,1,1,1021
39,12,1,39,4,1,1,1,1698
40,12,1,40,4,1,1,1,692
41,12,1,41,4,1,1,1,863
42,12,1,42,8,0,0,1,2367
43,12,1,43,8,1,1,1,1734
44,12,1,44,4,1,1,1,1379
45,12,1,45,8,1,1,1,1674
46,12,1,46,8,0,0,1,1163
47,12,1,47,4,1,1,1,1556
48,12,1,48,4,1,1,1,1798
49,12,1,49,4,0,0,1,1579
50,12,1,50,8,0,0,1,1283
51,12,1,51,4,1,1,1,1092
52,12,1,52,4,0,0,1,751
53,12,1,53,8,1,1,1,657
54,12,1,54,4,1,1,1,697
55,12,1,55,8,1,1,1,1607
56,12,1,56,8,1,1,1,888
57,12,1,57,4,1,1,1,681
58,12,1,58,4,1,1,1,570
59,12,1,59,4,1,1,1,578
60,12,1,60,4,1,1,1,1789
61,12,1,61,8,0,0,1,1763
62,12,1,62,4,0,0,1,1398
63,12,1,63,8,0,0,1,701
64,12,1,64,4,0,0,1,1676
65,12,1,65,8,0,0,1,630
66,12,1,66,8,1,1,1,724
67,12,1,67,4,1,1,1,1049
68,12,1,68,8,1,1,1,1232
69,12,1,69,4,1,1,1,1333
70,12,1,70,8,0,0,1,2255
71,12,1,71,4,0,0,1,1516
72,12,1,72,8,0,0,1,1515
73,12,1,73,4,0,0,1,1177
74,12,1,74,8,0,0,1,920
75,12,1,75,4,0,0,1,700
76,12,1,76,4,1,1,1,599
77,12,1,77,8,0,0,1,1222
78,12,1,78,4,0,0,1,639
79,12,1,79,8,1,1,1,1008
80,12,1,80,4,1,1,1,809
81,12,1,81,8,0,0,1,1325
82,12,1,82,4,1,1,1,1811
83,12,1,83,8,1,1,1,868
84,12,1,84,8,1,1,1,1138
85,12,1,85,8,0,0,1,1041
86,12,1,86,4,0,0,1,616
87,12,1,87,4,0,0,1,1163
88,12,1,88,8,1,1,1,1314
89,12,1,89,8,0,0,1,1552
90,12,1,90,4,0,0,1,762
91,12,1,91,4,0,0,1,1209
92,12,1,92,4,1,1,1,957
93,12,1,93,4,0,0,1,1329
94,12,1,94,4,0,0,1,1101
95,12,1,95,4,0,0,1,952
96,12,1,96,4,1,1,1,1416
97,12,1,97,4,0,0,1,1161
98,12,1,98,8,0,0,1,829
99,12,1,99,4,0,0,1,1466
100,12,1,100,4,1,1,1,1836
101,12,1,101,8,1,1,1,1541
102,12,1,102,8,0,0,1,1347
103,12,1,103,4,0,0,1,673
104,12,1,104,8,1,1,1,730
105,12,1,105,4,1,1,1,1227
106,12,1,106,8,0,0,1,1337
107,12,1,107,4,0,0,1,599
108,12,1,108,4,0,0,1,1034
109,12,1,109,8,1,1,1,1406
110,12,1,110,4,1,1,1,925
111,12,1,111,8,1,1,1,2455
112,12,1,112,4,0,0,1,779
113,12,1,113,8,1,1,1,662
114,12,1,114,4,0,0,1,509
115,12,1,115,8,0,0,1,539
116,12,1,116,4,1,1,1,716
117,12,1,117,8,1,1,1,1278
118,12,1,118,4,0,0,1,1299
119,12,1,119,8,1,1,1,1150
120,12,1,120,8,0,0,1,2446
121,12,1,121,4,1,1,1,757
122,12,1,122,8,0,0,1,824
123,12,1,123,4,0,0,1,809
124,12,1,124,4,1,1,1,1027
125,12,1,125,8,0,0,1,875
126,12,1,126,4,0,0,1,845
127,12,1,127,4,1,1,1,692
128,12,1,128,8,0,0,1,981
129,12,1,129,8,1,1,1,1280
130,12,1,130,8,1,1,1,975
131,12,1,131,8,1,1,1,906
132,12,1,132,4,1,1,1,966
133,12,1,133,4,0,0,1,1407
134,12,1,134,8,0,0,1,1066
135,12,1,135,8,0,0,1,1660
136,12,1,136,8,0,0,1,1104
137,12,1,137,4,0,0,1,629
138,12,1,138,8,1,1,1,1805
139,12,1,139,4,1,1,1,968
140,12,1,140,4,0,0,1,1035
141,12,1,141,8,0,0,1,2774
142,12,1,142,4,1,1,1,3351
143,12,1,143,8,1,1,1,624
144,12,1,144,4,0,0,1,925
145,12,1,145,4,0,0,1,1075
146,12,1,146,4,0,0,1,945
147,12,1,147,4,1,1,1,1219
148,12,1,148,8,0,0,1,1191
149,12,1,149,8,0,0,1,1517
150,12,1,150,4,1,1,1,718
151,12,1,151,4,1,1,1,693
152,12,1,152,8,0,0,1,1014
153,12,1,153,4,0,0,1,2042
154,12,1,154,8,1,1,1,640
155,12,1,155,4,1,1,1,1542
156,12,1,156,8,1,1,1,1353
157,12,1,157,8,0,0,1,1328
158,12,1,158,4,1,1,1,987
159,12,1,159,4,1,1,1,796
160,12,1,160,4,0,0,1,679
161,12,1,161,4,1,1,1,819
162,12,1,162,4,1,1,1,580
163,12,1,163,8,1,1,1,1574
164,12,1,164,4,1,1,1,557
165,12,1,165,4,0,0,1,973
166,12,1,166,8,0,0,1,1693
167,12,1,167,8,1,1,1,1523
168,12,1,168,4,1,1,1,740
169,12,1,169,8,0,0,1,1978
170,12,1,170,8,0,0,1,1695
171,12,1,171,4,0,0,1,881
172,12,1,172,8,0,0,1,896
173,12,1,173,4,1,1,1,1592
174,12,1,174,8,0,0,1,1465
175,12,1,175,8,0,0,1,1293
176,12,1,176,8,0,0,1,916
177,12,1,177,8,1,1,1,1217
178,12,1,178,4,1,1,1,1127
179,12,1,179,8,1,1,1,731
180,12,1,180,8,0,0,1,1850
181,12,1,181,4,0,0,1,1342
182,12,1,182,4,0,0,1,670
183,12,1,183,4,1,1,1,1393
184,12,1,184,8,1,1,1,701
185,12,1,185,8,0,0,1,1080
186,12,1,186,8,1,1,1,761
187,12,1,187,8,0,0,1,1368
188,12,1,188,8,1,1,1,1091
189,12,1,189,8,1,1,1,1290
190,12,1,190,8,1,1,1,744
191,12,1,191,8,0,0,1,1819
192,12,1,192,4,0,0,1,752
193,12,1,193,8,0,0,1,1090
194,12,1,194,8,0,0,1,675
195,12,1,195,4,0,0,1,646
196,12,1,196,8,0,0,1,1825
197,12,1,197,4,1,1,1,1000
198,12,1,198,4,1,1,1,1696
199,12,1,199,8,0,0,1,1166
200,12,1,200,8,1,1,1,817
201,12,1,201,8,0,0,1,1058
202,12,1,202,4,1,1,1,854
203,12,1,203,8,1,1,1,930
204,12,1,204,8,1,1,1,659
205,12,1,205,4,1,1,1,781
206,12,1,206,8,1,1,1,948
207,12,1,207,8,1,1,1,1570
208,12,1,208,4,1,1,1,1039
209,12,1,209,8,0,0,1,767
210,12,1,210,4,0,0,1,675
211,12,1,211,8,0,0,1,1793
212,12,1,212,8,1,1,1,574
213,12,1,213,8,0,0,1,690
214,12,1,214,4,0,0,1,700
215,12,1,215,4,0,0,1,1781
216,12,1,216,4,0,0,1,716
217,12,1,217,8,0,0,1,1264
218,12,1,218,8,0,0,1,737
219,12,1,219,8,0,0,1,660
220,12,1,220,8,1,1,1,1123
221,12,1,221,4,0,0,1,716
222,12,1,222,8,1,1,1,1297
223,12,1,223,8,1,1,1,1194
224,12,1,224,4,0,0,1,684
225,12,1,225,4,0,0,1,622
226,12,1,226,8,0,0,1,702
227,12,1,227,4,1,1,1,1217
228,12,1,228,8,0,0,1,1242
229,12,1,229,8,1,1,1,1191
230,12,1,230,8,1,1,1,639
231,12,1,231,4,1,1,1,522
232,12,1,232,4,1,1,1,814
233,12,1,233,8,1,1,1,645
234,12,1,234,4,1,1,1,933
235,12,1,235,4,1,1,1,620
236,12,1,236,4,0,0,1,1398
237,12,1,237,4,0,0,1,1452
238,12,1,238,4,1,1,1,1181
239,12,1,239,4,0,0,1,1638
240,12,1,240,8,1,1,1,1109
241,12,1,241,8,1,1,1,1572
242,12,1,242,8,0,0,1,900
243,12,1,243,8,0,0,1,974
244,12,1,244,4,0,0,1,1096
245,12,1,245,8,0,0,1,705
246,12,1,246,8,0,0,1,2190
247,12,1,247,4,0,0,1,794
248,12,1,248,8,0,0,1,830
249,12,1,249,4,1,1,1,619
250,12,1,250,8,0,0,1,1336
251,12,1,251,4,0,0,1,1426
252,12,1,252,4,0,0,1,1139
253,12,1,253,8,1,1,1,1741
254,12,1,254,4,0,0,1,842
255,12,1,255,8,1,1,1,1782
256,12,1,256,8,1,1,1,1522
257,12,1,257,4,0,0,1,706
258,12,1,258,8,0,0,1,1122
259,12,1,259,4,1,1,1,929
260,12,1,260,4,0,0,1,852
261,12,1,261,4,0,0,1,622
262,12,1,262,8,1,1,1,864
263,12,1,263,8,1,1,1,715
264,12,1,264,8,1,1,1,930
265,12,1,265,4,0,0,1,1625
266,12,1,266,8,1,1,1,1650
267,12,1,267,8,0,0,1,1296
268,12,1,268,8,0,0,1,559
269,12,1,269,8,0,0,1,1375
270,12,1,270,8,0,0,1,1392
271,12,1,271,8,0,0,1,891
272,12,1,272,4,1,1,1,1271
273,12,1,273,4,0,0,1,868
274,12,1,274,8,1,1,1,2179
275,12,1,275,8,0,0,1,863
276,12,1,276,4,1,1,1,969
277,12,1,277,4,1,1,1,1127
278,12,1,278,4,1,1,1,726
279,12,1,279,4,0,0,1,871
280,12,1,280,4,1,1,1,1337
281,12,1,281,8,1,1,1,1175
282,12,1,282,4,1,1,1,998
283,12,1,283,4,0,0,1,901
284,12,1,284,4,1,1,1,1834
285,12,1,285,4,1,1,1,1209
286,12,1,286,8,1,1,1,2099
287,12,1,287,4,0,0,1,820
288,12,1,288,8,0,0,1,1025
289,12,1,289,4,1,1,1,641
290,12,1,290,4,0,0,1,532
291,12,1,291,8,0,0,1,1541
292,12,1,292,4,1,1,1,758
293,12,1,293,8,0,0,1,1621
294,12,1,294,4,1,1,1,579
295,12,1,295,8,0,0,1,2006
296,12,1,296,8,0,0,1,1588
297,12,1,297,4,0,0,1,1596
298,12,1,298,4,0,0,1,1303
299,12,1,299,8,1,1,1,1557
300,12,1,300,8,0,0,1,1346
301,12,1,301,4,0,0,1,880
302,12,1,302,4,0,0,1,1618
303,12,1,303,8,0,0,1,1468
304,12,1,304,4,0,0,1,919
305,12,1,305,8,0,0,1,1651
306,12,1,306,4,1,1,1,1342
307,12,1,307,4,1,1,1,753
308,12,1,308,4,0,0,1,645
309,12,1,309,8,0,0,1,556
310,12,1,310,8,1,1,1,1539
311,12,1,311,8,1,1,1,554
312,12,1,312,8,1,1,1,905
313,12,1,313,8,0,0,1,1236
314,12,1,314,8,1,1,1,1435
315,12,1,315,8,0,0,1,1450
316,12,1,316,4,0,0,1,763
317,12,1,317,4,0,0,1,1353
318,12,1,318,8,0,0,1,1310
319,12,1,319,4,0,0,1,511
320,12,1,320,8,1,1,1,982
321,12,1,321,8,1,1,1,521
322,12,1,322,4,1,1,1,572
323,12,1,323,4,1,1,1,798
324,12,1,324,8,0,0,1,1104
325,12,1,325,4,1,1,1,523
326,12,1,326,8,0,0,1,1812
327,12,1,327,8,1,1,1,1064
328,12,1,328,8,0,0,1,747
329,12,1,329,4,1,1,1,869
330,12,1,330,8,0,0,1,485
331,12,1,331,8,1,1,1,618
332,12,1,332,4,0,0,1,1041
333,12,1,333,4,1,1,1,849
334,12,1,334,4,0,0,1,1393
335,12,1,335,4,1,1,1,593
336,12,1,336,4,1,1,1,1416
337,12,1,337,4,1,1,1,1086
338,12,1,338,8,0,0,1,1588
339,12,1,339,8,1,1,1,706
340,12,1,340,8,0,0,1,525
341,12,1,341,8,1,1,1,520
342,12,1,342,4,0,0,1,872
343,12,1,343,8,0,0,1,694
344,12,1,344,4,1,1,1,851
345,12,1,345,8,0,0,1,2106
346,12,1,346,8,0,0,1,1024
347,12,1,347,4,1,1,1,531
348,12,1,348,8,0,0,1,550
349,12,1,349,8,0,0,1,551
350,12,1,350,8,1,1,1,1256
351,12,1,351,4,0,0,1,642
352,12,1,352,8,0,0,1,1750
353,12,1,353,8,1,1,1,1241
354,12,1,354,8,1,1,1,1130
355,12,1,355,8,0,0,1,786
356,12,1,356,8,0,0,1,522
357,12,1,357,8,0,0,1,617
358,12,1,358,4,1,1,1,590
359,12,1,359,4,0,0,1,468
360,12,1,360,4,0,0,1,780
361,12,1,361,4,0,0,1,873
362,12,1,362,4,1,1,1,594
363,12,1,363,8,1,1,1,714
364,12,1,364,8,1,1,1,1303
365,12,1,365,4,1,1,1,680
366,12,1,366,4,1,1,1,588
367,12,1,367,8,0,0,1,798
368,12,1,368,4,0,0,1,1237
369,12,1,369,8,0,0,1,1005
370,12,1,370,4,0,0,1,1274
371,12,1,371,4,0,0,1,1098
372,12,1,372,4,1,1,1,637
373,12,1,373,8,0,0,1,704
374,12,1,374,4,1,1,1,700
375,12,1,375,4,0,0,1,1189
376,12,1,376,8,1,1,1,663
377,12,1,377,8,0,0,1,1028
378,12,1,378,4,1,1,1,589
379,12,1,379,4,0,0,1,1313
380,12,1,380,8,1,1,1,1194
381,12,1,381,8,1,1,1,1351
382,12,1,382,8,0,0,1,1022
383,12,1,383,8,1,1,1,1300
384,12,1,384,4,0,0,1,777
385,12,1,385,8,1,1,1,2144
386,12,1,386,8,0,0,1,592
387,12,1,387,4,1,1,1,1007
388,12,1,388,8,1,1,1,2360
389,12,1,389,4,1,1,1,925
390,12,1,390,4,1,1,1,997
391,12,1,391,8,1,1,1,1599
392,12,1,392,4,0,0,1,2498
393,12,1,393,8,1,1,1,1920
394,12,1,394,8,0,0,1,778
395,12,1,395,8,1,1,1,1148
396,12,1,396,4,0,0,1,718
397,12,1,397,4,0,0,1,1391
398,12,1,398,4,0,0,1,1671
399,12,1,399,8,1,1,1,3029
400,12,1,400,8,0,0,1,638
401,12,1,401,8,0,0,1,1465
402,12,1,402,8,0,0,1,932
403,12,1,403,4,0,0,1,737
404,12,1,404,4,1,1,1,940
405,12,1,405,8,0,0,1,641
406,12,1,406,4,0,0,1,924
407,12,1,407,8,1,1,1,2602
408,12,1,408,4,1,1,1,794
409,12,1,409,4,1,1,1,1125
410,12,1,410,8,0,0,1,1577
411,12,1,411,4,0,0,1,555
412,12,1,412,4,1,1,1,1176
413,12,1,413,4,1,1,1,957
414,12,1,414,4,0,0,1,1085
415,12,1,415,8,1,1,1,1937
416,12,1,416,8,0,0,1,1694
417,12,1,417,4,0,0,1,660
418,12,1,418,8,1,1,1,633
419,12,1,419,8,0,0,1,1646
420,12,1,420,4,1,1,1,929
421,12,1,421,4,1,1,1,847
422,12,1,422,8,1,1,1,1883
423,12,1,423,4,1,1,1,447
424,12,1,424,4,1,1,1,1069
425,12,1,425,4,1,1,1,766
426,12,1,426,4,1,1,1,508
427,12,1,427,4,1,1,1,970
428,12,1,428,8,0,0,1,1392
429,12,1,429,4,1,1,1,731
430,12,1,430,8,1,1,1,1046
431,12,1,431,4,1,1,1,500
432,12,1,432,8,0,0,1,922
433,12,1,433,8,1,1,1,961
434,12,1,434,8,0,0,1,904
435,12,1,435,8,0,0,1,486
436,12,1,436,4,0,0,1,777
437,12,1,437,8,0,0,1,2984
438,12,1,438,4,0,0,1,954
439,12,1,439,4,0,0,1,648
440,12,1,440,8,1,1,1,1753
441,12,1,441,8,1,1,1,1069
442,12,1,442,8,1,1,1,947
443,12,1,443,4,1,1,1,792
444,12,1,444,4,1,1,1,591
445,12,1,445,8,0,0,1,1758
446,12,1,446,8,0,0,1,771
447,12,1,447,8,0,0,1,1397
448,12,1,448,4,1,1,1,795
449,12,1,449,8,1,1,1,1005
450,12,1,450,8,1,1,1,1616
451,12,1,451,4,1,1,1,756
452,12,1,452,8,1,1,1,926
453,12,1,453,8,0,0,1,2100
454,12,1,454,4,1,1,1,1482
455,12,1,455,4,1,1,1,660
456,12,1,456,8,0,0,1,858
457,12,1,457,4,0,0,1,1425
458,12,1,458,8,1,1,1,1389
459,12,1,459,4,1,1,1,1629
460,12,1,460,4,1,1,1,1791
461,12,1,461,8,1,1,1,804
462,12,1,462,8,0,0,1,1815
463,12,1,463,4,0,0,1,1019
464,12,1,464,4,1,1,1,1435
465,12,1,465,4,1,1,1,599
466,12,1,466,8,0,0,1,964
467,12,1,467,8,1,1,1,1851
468,12,1,468,8,1,1,1,696
469,12,1,469,4,1,1,1,884
470,12,1,470,4,0,0,1,2019
471,12,1,471,4,0,0,1,922
472,12,1,472,8,1,1,1,1724
473,12,1,473,8,1,1,1,778
474,12,1,474,4,1,1,1,1036
475,12,1,475,8,0,0,1,2309
476,12,1,476,4,0,0,1,1519
477,12,1,477,4,1,1,1,572
478,12,1,478,4,0,0,1,1396
479,12,1,479,4,1,1,1,1050
480,12,1,480,4,1,1,1,812
481,12,1,481,4,1,1,1,1230
482,12,1,482,4,0,0,1,584
483,12,1,483,8,1,1,1,818
484,12,1,484,8,0,0,1,432
485,12,1,485,4,0,0,1,814
486,12,1,486,4,1,1,1,543
487,12,1,487,4,0,0,1,659
488,12,1,488,4,1,1,1,886
489,12,1,489,8,1,1,1,876
490,12,1,490,4,0,0,1,644
491,12,1,491,4,0,0,1,586
492,12,1,492,4,1,1,1,1013
493,12,1,493,8,1,1,1,1569
494,12,1,494,4,1,1,1,1203
495,12,1,495,4,0,0,1,1219
496,12,1,496,4,0,0,1,608
497,12,1,497,4,1,1,1,1045
498,12,1,498,8,0,0,1,1705
499,12,1,499,8,0,0,1,1303
500,12,1,500,8,0,0,1,1015
501,12,1,501,4,0,0,1,1255
502,12,1,502,8,0,0,1,594
503,12,1,503,4,1,1,1,900
504,12,1,504,8,1,1,1,822
505,12,1,505,8,1,1,1,1899
506,12,1,506,8,1,1,1,2384
507,12,1,507,8,0,0,1,1019
508,12,1,508,4,1,1,1,785
509,12,1,509,8,1,1,1,948
510,12,1,510,4,0,0,1,1386
511,12,1,511,8,1,1,1,1046
512,12,1,512,4,1,1,1,710
513,12,1,513,8,0,0,1,1521
514,12,1,514,4,1,1,1,560
515,12,1,515,8,0,0,1,1934
516,12,1,516,8,1,1,1,1727
517,12,1,517,4,1,1,1,590
518,12,1,518,8,0,0,1,720
519,12,1,519,4,0,0,1,895
520,12,1,520,8,1,1,1,1396
521,12,1,521,8,1,1,1,608
522,12,1,522,8,0,0,1,720
523,12,1,523,8,1,1,1,1068
524,12,1,524,8,1,1,1,1702
525,12,1,525,8,0,0,1,694
526,12,1,526,8,0,0,1,3359
527,12,1,527,8,0,0,1,709
528,12,1,528,4,0,0,1,1383
529,12,1,529,4,0,0,1,1834
530,12,1,530,8,1,1,1,624
531,12,1,531,8,1,1,1,976
532,12,1,532,4,0,0,1,1157
533,12,1,533,8,0,0,1,1707
534,12,1,534,8,1,1,1,1358
535,12,1,535,4,1,1,1,854
536,12,1,536,8,1,1,1,1658
537,12,1,537,4,1,1,1,780
538,12,1,538,4,0,0,1,1300
539,12,1,539,4,1,1,1,952
540,12,1,540,8,0,0,1,700
541,12,1,541,4,0,0,1,2013
542,12,1,542,4,0,0,1,770
543,12,1,543,8,1,1,1,1703
544,12,1,544,4,1,1,1,550
545,12,1,545,8,0,0,1,1043
546,12,1,546,8,0,0,1,1153
547,12,1,547,4,0,0,1,848
548,12,1,548,8,0,0,1,1218
549,12,1,549,4,1,1,1,1062
550,12,1,550,8,1,1,1,823
551,12,1,551,8,1,1,1,600
552,12,1,552,8,1,1,1,734
553,12,1,553,4,0,0,1,515
554,12,1,554,8,0,0,1,820
555,12,1,555,4,0,0,1,1242
556,12,1,556,8,1,1,1,546
557,12,1,557,4,0,0,1,521
558,12,1,558,8,1,1,1,1319
559,12,1,559,8,0,0,1,1237
560,12,1,560,4,0,0,1,1010
561,12,1,561,4,0,0,1,1089
562,12,1,562,4,0,0,1,653
563,12,1,563,4,1,1,1,1010
564,12,1,564,8,1,1,1,896
565,12,1,565,4,0,0,1,507
566,12,1,566,4,0,0,1,1418
567,12,1,567,4,1,1,1,1007
568,12,1,568,4,0,0,1,1181
569,12,1,569,8,1,1,1,1599
570,12,1,570,8,0,0,1,680
571,12,1,571,8,1,1,1,1130
572,12,1,572,8,1,1,1,1328
573,12,1,573,4,0,0,1,1226
574,12,1,574,4,0,0,1,606
575,12,1,575,8,1,1,1,1433
576,12,1,576,8,1,1,1,752
577,12,1,577,4,0,0,1,614
578,12,1,578,8,0,0,1,1055
579,12,1,579,4,0,0,1,1255
580,12,1,580,4,1,1,1,1139
581,12,1,581,8,1,1,1,549
582,12,1,582,8,1,1,1,614
583,12,1,583,4,1,1,1,812
584,12,1,584,4,1,1,1,692
585,12,1,585,8,1,1,1,2216
586,12,1,586,4,0,0,1,1228
587,12,1,587,4,0,0,1,1383
588,12,1,588,4,0,0,1,1635
589,12,1,589,4,1,1,1,862
590,12,1,590,4,0,0,1,1294
591,12,1,591,8,0,0,1,2800
592,12,1,592,4,1,1,1,919
593,12,1,593,4,0,0,1,930
594,12,1,594,8,1,1,1,558
595,12,1,595,4,0,0,1,934
596,12,1,596,8,0,0,1,2638
597,12,1,597,4,1,1,1,543
598,12,1,598,4,1,1,1,1061
599,12,1,599,8,1,1,1,501
600,12,1,600,4,1,1,1,1323
601,13,1,1,8,1,3,0,4997
602,13,1,2,8,0,0,1,1626
603,13,1,3,4,1,1,1,1517
604,13,1,4,4,1,1,1,1413
605,13,1,5,4,0,0,1,1107
606,13,1,6,8,1,1,1,1844
607,13,1,7,4,1,1,1,1024
608,13,1,8,4,0,0,1,868
609,13,1,9,8,0,0,1,1217
610,13,1,10,4,1,1,1,1033
611,13,1,11,4,0,0,1,787
612,13,1,12,8,0,0,1,1252
613,13,1,13,4,0,0,1,1051
614,13,1,14,4,1,1,1,1452
615,13,1,15,4,0,0,1,954
616,13,1,16,4,1,1,1,815
617,13,1,17,4,0,0,1,1004
618,13,1,18,8,0,0,1,1142
619,13,1,19,4,1,1,1,1271
620,13,1,20,4,0,0,1,785
621,13,1,21,4,1,1,1,1483
622,13,1,22,4,0,0,1,783
623,13,1,23,8,1,1,1,879
624,13,1,24,4,0,0,1,728
625,13,1,25,8,1,1,1,1032
626,13,1,26,4,1,1,1,1053
627,13,1,27,8,0,0,1,667
628,13,1,28,8,1,1,1,946
629,13,1,29,4,1,1,1,1273
630,13,1,30,8,0,0,1,787
631,13,1,31,8,0,0,1,1147
632,13,1,32,4,1,1,1,1349
633,13,1,33,8,1,1,1,1114
634,13,1,34,8,0,0,1,899
635,13,1,35,8,1,1,1,1794
636,13,1,36,8,0,0,1,1456
637,13,1,37,4,0,0,1,853
638,13,1,38,4,0,0,1,1124
639,13,1,39,8,0,0,1,1607
640,13,1,40,4,1,1,1,709
641,13,1,41,4,1,1,1,887
642,13,1,42,8,0,0,1,900
643,13,1,43,4,1,1,1,782
644,13,1,44,8,0,0,1,1589
645,13,1,45,4,1,1,1,1037
646,13,1,46,4,1,1,1,972
647,13,1,47,8,1,1,1,1671
648,13,1,48,4,0,0,1,994
649,13,1,49,4,1,1,1,1007
650,13,1,50,8,0,0,1,833
651,13,1,51,8,0,0,1,952
652,13,1,52,4,0,0,0,956
653,13,1,53,4,1,1,1,956
654,13,1,54,4,1,1,1,798
655,13,1,55,8,0,0,1,1341
656,13,1,56,4,0,0,1,775
657,13,1,57,4,1,1,1,1436
658,13,1,58,8,1,1,1,1752
659,13,1,59,8,0,0,1,681
660,13,1,60,8,1,1,1,909
661,13,1,61,8,1,1,1,1790
662,13,1,62,4,1,1,1,1057
663,13,1,63,4,0,0,1,1346
664,13,1,64,4,1,1,1,943
665,13,1,65,4,1,1,1,1095
666,13,1,66,8,0,0,1,899
667,13,1,67,4,0,0,1,1105
668,13,1,68,4,1,1,1,1014
669,13,1,69,4,0,0,1,1122
670,13,1,70,4,1,1,1,1164
671,13,1,71,4,1,1,1,864
672,13,1,72,8,1,1,1,900
673,13,1,73,8,1,1,1,907
674,13,1,74,8,1,1,1,1475
675,13,1,75,8,0,0,1,1297
676,13,1,76,8,0,0,1,1350
677,13,1,77,8,1,1,1,842
678,13,1,78,4,1,1,1,1232
679,13,1,79,8,0,0,1,816
680,13,1,80,4,0,0,1,895
681,13,1,81,8,1,1,1,873
682,13,1,82,4,1,1,1,834
683,13,1,83,8,1,1,1,937
684,13,1,84,4,0,0,1,1284
685,13,1,85,8,1,1,1,1146
686,13,1,86,8,0,0,1,1798
687,13,1,87,8,1,1,1,1337
688,13,1,88,4,1,1,1,877
689,13,1,89,4,0,0,1,1328
690,13,1,90,8,1,1,1,837
691,13,1,91,8,0,0,1,914
692,13,1,92,8,0,0,1,2215
693,13,1,93,8,0,0,1,1310
694,13,1,94,4,1,1,1,919
695,13,1,95,4,1,1,1,1117
696,13,1,96,4,0,0,1,761
697,13,1,97,8,0,0,1,2408
698,13,1,98,4,0,0,1,948
699,13,1,99,4,1,1,1,1017
700,13,1,100,4,0,0,1,1668
701,13,1,101,4,0,0,1,925
702,13,1,102,4,0,0,1,1120
703,13,1,103,4,1,1,1,640
704,13,1,104,8,0,0,1,1479
705,13,1,105,4,0,0,1,832
706,13,1,106,8,0,0,1,1437
707,13,1,107,4,1,1,1,787
708,13,1,108,4,0,0,1,805
709,13,1,109,8,0,0,1,794
710,13,1,110,4,0,0,1,824
711,13,1,111,4,1,1,1,1182
712,13,1,112,4,1,1,1,680
713,13,1,113,8,0,0,1,719
714,13,1,114,8,0,0,1,1989
715,13,1,115,8,1,1,1,1548
716,13,1,116,8,1,1,1,1748
717,13,1,117,4,0,0,1,1202
718,13,1,118,8,1,1,1,981
719,13,1,119,8,0,0,1,1020
720,13,1,120,4,1,1,1,990
721,13,1,121,4,1,1,1,1003
722,13,1,122,4,0,0,1,563
723,13,1,123,4,0,0,1,882
724,13,1,124,8,0,3,0,2253
725,13,1,125,4,1,1,1,1167
726,13,1,126,8,0,0,1,1152
727,13,1,127,4,0,0,1,684
728,13,1,128,4,0,0,1,1348
729,13,1,129,4,1,1,1,747
730,13,1,130,4,0,0,1,507
731,13,1,131,4,0,0,1,658
732,13,1,132,8,1,1,1,1480
733,13,1,133,8,1,1,1,1226
734,13,1,134,8,0,0,1,659
735,13,1,135,8,1,1,1,997
736,13,1,136,8,0,0,1,1451
737,13,1,137,4,0,0,1,584
738,13,1,138,8,0,0,1,705
739,13,1,139,4,0,0,1,624
740,13,1,140,8,0,0,1,1125
741,13,1,141,4,0,0,1,865
742,13,1,142,4,0,0,1,718
743,13,1,143,8,0,0,1,764
744,13,1,144,8,1,1,1,829
745,13,1,145,8,1,1,1,971
746,13,1,146,8,1,1,1,1133
747,13,1,147,4,1,1,1,868
748,13,1,148,4,0,0,1,1128
749,13,1,149,8,1,1,1,1673
750,13,1,150,8,1,1,1,1441
751,13,1,151,4,1,1,1,587
752,13,1,152,8,1,1,1,1572
753,13,1,153,4,1,1,1,800
754,13,1,154,8,1,1,1,1607
755,13,1,155,4,1,1,1,1530
756,13,1,156,8,1,1,1,573
757,13,1,157,4,1,1,1,553
758,13,1,158,8,0,0,1,1015
759,13,1,159,8,0,0,1,1462
760,13,1,160,4,0,0,1,1162
761,13,1,161,8,1,1,1,1453
762,13,1,162,8,0,0,1,1702
763,13,1,163,4,0,0,1,750
764,13,1,164,8,1,1,1,1361
765,13,1,165,4,1,1,1,1112
766,13,1,166,4,0,0,1,719
767,13,1,167,4,1,1,1,963
768,13,1,168,4,1,1,1,694
769,13,1,169,8,0,0,1,875
770,13,1,170,8,0,0,1,1148
771,13,1,171,4,1,1,1,1423
772,13,1,172,4,1,1,1,870
773,13,1,173,4,1,1,1,1248
774,13,1,174,4,1,1,1,548
775,13,1,175,8,0,0,1,625
776,13,1,176,8,0,0,1,1198
777,13,1,177,8,1,1,1,1250
778,13,1,178,8,1,1,1,1342
779,13,1,179,4,1,1,1,669
780,13,1,180,8,0,0,1,717
781,13,1,181,4,1,1,1,1312
782,13,1,182,4,1,1,1,563
783,13,1,183,4,0,0,1,631
784,13,1,184,8,0,0,1,1518
785,13,1,185,8,1,1,1,836
786,13,1,186,4,1,1,1,1275
787,13,1,187,8,1,1,1,919
788,13,1,188,8,0,0,1,676
789,13,1,189,8,1,1,1,496
790,13,1,190,8,1,1,1,2162
791,13,1,191,4,0,0,1,1192
792,13,1,192,8,1,1,1,1213
793,13,1,193,4,0,0,1,564
794,13,1,194,4,0,0,1,559
795,13,1,195,8,0,0,1,1514
796,13,1,196,4,1,1,1,825
797,13,1,197,8,1,1,1,1608
798,13,1,198,4,0,0,1,2417
799,13,1,199,4,1,1,1,1068
800,13,1,200,4,1,1,1,741
801,13,1,201,8,0,0,1,729
802,13,1,202,8,0,0,1,1078
803,13,1,203,4,0,0,1,537
804,13,1,204,4,0,0,1,605
805,13,1,205,4,1,1,1,2065
806,13,1,206,8,0,0,1,636
807,13,1,207,8,1,1,1,735
808,13,1,208,4,1,1,1,710
809,13,1,209,4,0,0,1,651
810,13,1,210,8,1,1,1,917
811,13,1,211,4,0,0,1,837
812,13,1,212,8,0,0,1,1004
813,13,1,213,8,1,1,1,737
814,13,1,214,8,0,0,1,1348
815,13,1,215,4,0,0,1,955
816,13,1,216,8,0,0,1,639
817,13,1,217,4,0,0,1,2362
818,13,1,218,4,0,0,1,1303
819,13,1,219,4,0,0,1,578
820,13,1,220,8,0,0,1,705
821,13,1,221,8,1,1,1,1630
822,13,1,222,8,1,1,1,1337
823,13,1,223,8,0,0,1,909
824,13,1,224,4,1,1,1,631
825,13,1,225,8,1,1,1,1063
826,13,1,226,8,1,1,1,593
827,13,1,227,8,1,1,1,2108
828,13,1,228,4,0,0,1,699
829,13,1,229,8,1,1,1,1540
830,13,1,230,4,0,0,1,1055
831,13,1,231,8,1,1,1,691
832,13,1,232,4,1,1,1,927
833,13,1,233,8,1,1,1,705
834,13,1,234,4,1,1,1,788
835,13,1,235,4,1,1,1,702
836,13,1,236,8,0,0,1,1246
837,13,1,237,8,0,0,1,710
838,13,1,238,4,0,0,1,519
839,13,1,239,8,1,1,1,1212
840,13,1,240,8,1,1,1,760
841,13,1,241,4,1,1,1,962
842,13,1,242,8,1,1,1,1751
843,13,1,243,8,1,1,1,828
844,13,1,244,4,1,1,1,865
845,13,1,245,4,0,0,1,821
846,13,1,246,8,0,0,1,2563
847,13,1,247,8,0,0,1,1834
848,13,1,248,8,1,1,1,1002
849,13,1,249,8,1,1,1,855
850,13,1,250,8,0,0,1,687
851,13,1,251,4,1,1,1,947
852,13,1,252,8,1,1,1,836
853,13,1,253,8,1,1,1,847
854,13,1,254,8,1,1,1,883
855,13,1,255,8,0,0,1,746
856,13,1,256,8,0,0,1,1696
857,13,1,257,8,0,0,1,1105
858,13,1,258,8,1,1,1,1831
859,13,1,259,8,1,1,1,1179
860,13,1,260,8,1,1,1,1170
861,13,1,261,4,0,0,1,1262
862,13,1,262,8,0,0,1,617
863,13,1,263,4,0,0,1,645
864,13,1,264,4,1,1,1,1608
865,13,1,265,8,0,0,1,817
866,13,1,266,4,0,0,1,716
867,13,1,267,8,1,1,1,813
868,13,1,268,4,1,1,1,737
869,13,1,269,4,0,0,1,1599
870,13,1,270,8,0,0,1,1430
871,13,1,271,4,0,0,1,1413
872,13,1,272,8,1,1,1,1712
873,13,1,273,4,1,1,1,1567
874,13,1,274,4,1,1,1,1023
875,13,1,275,4,1,1,1,1275
876,13,1,276,8,0,0,1,1192
877,13,1,277,8,0,0,1,1978
878,13,1,278,4,0,0,1,794
879,13,1,279,8,0,0,1,726
880,13,1,280,8,1,1,1,869
881,13,1,281,8,1,1,1,898
882,13,1,282,8,0,0,1,808
883,13,1,283,8,0,0,1,763
884,13,1,284,8,1,1,1,991
885,13,1,285,8,0,0,1,850
886,13,1,286,4,0,0,1,1074
887,13,1,287,4,0,0,1,549
888,13,1,288,8,0,0,1,642
889,13,1,289,4,1,1,1,811
890,13,1,290,8,1,1,1,856
891,13,1,291,8,0,0,1,1256
892,13,1,292,8,0,0,1,1245
893,13,1,293,8,1,1,1,578
894,13,1,294,4,0,0,1,522
895,13,1,295,8,1,1,1,1011
896,13,1,296,4,1,1,1,1260
897,13,1,297,4,0,0,1,655
898,13,1,298,4,1,1,1,915
899,13,1,299,8,1,1,1,747
900,13,1,300,8,1,1,1,1002
901,13,1,301,8,1,1,1,1145
902,13,1,302,8,1,1,1,1280
903,13,1,303,8,1,1,1,2018
904,13,1,304,4,0,0,1,773
905,13,1,305,4,0,0,1,666
906,13,1,306,4,0,0,1,727
907,13,1,307,8,0,0,1,1611
908,13,1,308,4,1,1,1,668
909,13,1,309,4,1,1,1,623
910,13,1,310,4,1,1,1,667
911,13,1,311,8,0,0,1,813
912,13,1,312,4,1,1,1,581
913,13,1,313,8,1,1,1,696
914,13,1,314,4,0,0,1,584
915,13,1,315,8,1,1,1,1554
916,13,1,316,8,1,1,1,663
917,13,1,317,8,0,0,1,893
918,13,1,318,4,0,0,1,797
919,13,1,319,8,1,1,1,853
920,13,1,320,4,1,1,1,706
921,13,1,321,4,0,0,1,1104
922,13,1,322,4,1,1,1,979
923,13,1,323,8,1,1,1,1081
924,13,1,324,8,1,1,1,711
925,13,1,325,4,1,1,1,967
926,13,1,326,4,1,1,1,889
927,13,1,327,4,0,0,1,894
928,13,1,328,8,0,0,1,1418
929,13,1,329,8,0,0,1,1582
930,13,1,330,4,0,0,1,1174
931,13,1,331,4,1,1,1,1030
932,13,1,332,8,0,0,1,838
933,13,1,333,8,1,1,1,1871
934,13,1,334,4,0,0,1,1161
935,13,1,335,4,0,0,1,1485
936,13,1,336,4,1,1,1,825
937,13,1,337,8,1,1,1,1250
938,13,1,338,8,1,1,1,685
939,13,1,339,8,0,0,1,881
940,13,1,340,4,1,1,1,1391
941,13,1,341,8,1,1,1,993
942,13,1,342,8,1,1,1,617
943,13,1,343,8,0,0,1,762
944,13,1,344,8,0,0,1,1336
945,13,1,345,8,1,1,1,1138
946,13,1,346,4,0,0,1,1056
947,13,1,347,8,1,1,1,553
948,13,1,348,4,1,1,1,1278
949,13,1,349,8,0,0,1,1898
950,13,1,350,4,0,0,1,833
951,13,1,351,8,1,1,1,922
952,13,1,352,4,0,0,1,737
953,13,1,353,4,1,1,1,807
954,13,1,354,4,0,0,1,736
955,13,1,355,4,1,1,1,717
956,13,1,356,8,0,0,1,1240
957,13,1,357,4,0,0,1,911
958,13,1,358,8,0,0,1,925
959,13,1,359,4,0,0,1,1553
960,13,1,360,8,0,0,1,1299
961,13,1,361,8,0,0,1,1562
962,13,1,362,8,1,1,1,1029
963,13,1,363,4,0,0,1,1085
964,13,1,364,4,0,0,1,677
965,13,1,365,8,1,1,1,1633
966,13,1,366,8,0,0,1,760
967,13,1,367,4,0,0,1,1095
968,13,1,368,8,1,1,1,1246
969,13,1,369,8,1,1,1,2035
970,13,1,370,4,1,1,1,801
971,13,1,371,4,1,1,1,909
972,13,1,372,4,0,0,1,1381
973,13,1,373,4,0,0,1,786
974,13,1,374,8,0,0,1,845
975,13,1,375,4,0,0,1,504
976,13,1,376,8,1,1,1,1969
977,13,1,377,8,0,0,1,1317
978,13,1,378,8,0,0,1,874
979,13,1,379,8,1,1,1,771
980,13,1,380,8,0,0,1,976
981,13,1,381,4,0,0,1,825
982,13,1,382,8,1,1,1,2355
983,13,1,383,8,1,1,1,682
984,13,1,384,8,1,1,1,964
985,13,1,385,8,1,1,1,1184
986,13,1,386,4,0,0,1,879
987,13,1,387,4,0,0,1,651
988,13,1,388,4,0,0,1,812
989,13,1,389,8,0,0,1,835
990,13,1,390,8,1,1,1,850
991,13,1,391,8,1,1,1,2282
992,13,1,392,4,0,0,1,646
993,13,1,393,8,1,1,1,607
994,13,1,394,8,1,1,1,1027
995,13,1,395,8,1,1,1,1567
996,13,1,396,8,0,0,1,1012
997,13,1,397,8,0,0,1,968
998,13,1,398,8,1,1,1,880
999,13,1,399,4,0,0,1,882
1000,13,1,400,4,1,1,1,807
1001,13,1,401,8,0,0,1,1095
1002,13,1,402,4,0,0,1,1283
1003,13,1,403,4,1,1,1,631
1004,13,1,404,4,1,1,1,811
1005,13,1,405,4,1,1,1,787
1006,13,1,406,8,0,0,1,1012
1007,13,1,407,4,0,0,1,607
1008,13,1,408,8,1,1,1,968
1009,13,1,409,8,0,0,1,586
1010,13,1,410,8,1,1,1,985
1011,13,1,411,4,1,1,1,861
1012,13,1,412,4,1,1,1,884
1013,13,1,413,4,1,1,1,864
1014,13,1,414,4,0,0,1,719
1015,13,1,415,4,1,1,1,580
1016,13,1,416,8,1,1,1,940
1017,13,1,417,4,0,0,1,1387
1018,13,1,418,4,1,1,1,844
1019,13,1,419,4,0,0,1,882
1020,13,1,420,8,0,0,1,2017
1021,13,1,421,8,1,1,1,1078
1022,13,1,422,8,1,1,1,846
1023,13,1,423,4,0,0,1,735
1024,13,1,424,8,1,1,1,871
1025,13,1,425,8,0,0,1,784
1026,13,1,426,4,1,1,1,1414
1027,13,1,427,8,1,1,1,643
1028,13,1,428,8,0,0,1,1789
1029,13,1,429,8,1,1,1,1692
1030,13,1,430,8,1,1,1,1139
1031,13,1,431,8,1,1,1,879
1032,13,1,432,8,0,0,1,1297
1033,13,1,433,8,1,1,1,1758
1034,13,1,434,4,0,0,1,1506
1035,13,1,435,4,0,0,1,1134
1036,13,1,436,4,1,1,1,910
1037,13,1,437,8,0,0,1,1945
1038,13,1,438,8,1,1,1,654
1039,13,1,439,8,1,1,1,738
1040,13,1,440,4,1,1,1,997
1041,13,1,441,4,0,0,1,798
1042,13,1,442,4,0,0,1,828
1043,13,1,443,4,1,1,1,664
1044,13,1,444,4,0,0,1,700
1045,13,1,445,4,1,1,1,729
1046,13,1,446,8,0,0,1,1087
1047,13,1,447,4,1,1,1,529
1048,13,1,448,8,0,0,1,1507
1049,13,1,449,4,0,0,1,934
1050,13,1,450,4,1,1,1,639
1051,13,1,451,4,0,0,1,720
1052,13,1,452,4,0,0,1,1355
1053,13,1,453,4,1,1,1,705
1054,13,1,454,4,1,1,1,962
1055,13,1,455,8,0,0,1,734
1056,13,1,456,8,0,0,1,959
1057,13,1,457,8,0,0,1,945
1058,13,1,458,4,1,1,1,966
1059,13,1,459,4,0,0,1,1075
1060,13,1,460,8,0,0,1,1006
1061,13,1,461,8,0,0,1,1221
1062,13,1,462,4,1,1,1,889
1063,13,1,463,8,0,0,1,1428
1064,13,1,464,8,0,0,1,1049
1065,13,1,465,8,0,0,1,1117
1066,13,1,466,8,0,0,1,806
1067,13,1,467,4,1,1,1,973
1068,13,1,468,4,0,0,1,684
1069,13,1,469,4,0,0,1,1327
1070,13,1,470,4,1,1,1,600
1071,13,1,471,4,0,0,1,756
1072,13,1,472,4,1,1,1,1004
1073,13,1,473,4,0,0,1,720
1074,13,1,474,8,1,1,1,1798
1075,13,1,475,4,0,0,1,1037
1076,13,1,476,8,1,1,1,700
1077,13,1,477,8,1,1,1,798
1078,13,1,478,4,1,1,1,905
1079,13,1,479,4,0,0,1,686
1080,13,1,480,4,0,0,1,1757
1081,13,1,481,8,0,0,1,2277
1082,13,1,482,4,1,1,1,1165
1083,13,1,483,8,0,0,1,764
1084,13,1,484,4,0,0,1,702
1085,13,1,485,4,1,1,1,739
1086,13,1,486,8,1,1,1,994
1087,13,1,487,4,0,0,1,1099
1088,13,1,488,8,0,0,1,820
1089,13,1,489,8,0,0,1,1831
1090,13,1,490,4,1,1,1,1034
1091,13,1,491,4,0,0,1,674
1092,13,1,492,4,1,1,1,784
1093,13,1,493,4,1,1,1,740
1094,13,1,494,8,1,1,1,1908
1095,13,1,495,8,0,0,1,1773
1096,13,1,496,4,0,0,1,645
1097,13,1,497,8,0,0,1,564
1098,13,1,498,4,1,1,1,1325
1099,13,1,499,8,0,0,1,1307
1100,13,1,500,4,1,1,1,1035
1101,13,1,501,4,1,1,1,829
1102,13,1,502,4,1,1,1,635
1103,13,1,503,4,1,1,1,1688
1104,13,1,504,4,0,0,1,751
1105,13,1,505,8,1,1,1,1818
1106,13,1,506,4,0,0,1,1477
1107,13,1,507,4,0,0,1,871
1108,13,1,508,8,0,0,1,1377
1109,13,1,509,4,1,1,1,1017
1110,13,1,510,4,1,1,1,897
1111,13,1,511,8,0,0,1,1301
1112,13,1,512,8,1,1,1,1011
1113,13,1,513,8,0,0,1,750
1114,13,1,514,4,0,0,1,715
1115,13,1,515,8,1,1,1,1476
1116,13,1,516,4,0,0,1,611
1117,13,1,517,4,1,1,1,1011
1118,13,1,518,8,1,1,1,2169
1119,13,1,519,4,1,1,1,739
1120,13,1,520,8,1,1,1,866
1121,13,1,521,4,1,1,1,1017
1122,13,1,522,8,0,0,1,983
1123,13,1,523,4,1,1,1,529
1124,13,1,524,8,0,0,1,628
1125,13,1,525,8,1,1,1,1361
1126,13,1,526,8,1,1,1,786
1127,13,1,527,8,0,0,1,991
1128,13,1,528,4,1,1,1,1285
1129,13,1,529,8,1,1,1,654
1130,13,1,530,8,1,1,1,647
1131,13,1,531,4,1,1,1,749
1132,13,1,532,8,0,0,1,1474
1133,13,1,533,4,0,0,1,638
1134,13,1,534,4,1,1,1,658
1135,13,1,535,8,0,0,1,1318
1136,13,1,536,4,0,0,1,849
1137,13,1,537,4,0,0,1,1275
1138,13,1,538,4,1,1,1,856
1139,13,1,539,8,1,1,1,618
1140,13,1,540,8,0,0,1,916
1141,13,1,541,4,0,0,1,1287
1142,13,1,542,4,1,1,1,654
1143,13,1,543,8,1,1,1,1300
1144,13,1,544,8,0,0,1,2115
1145,13,1,545,4,1,1,1,1188
1146,13,1,546,4,1,1,1,1046
1147,13,1,547,4,0,0,1,612
1148,13,1,548,8,0,0,1,664
1149,13,1,549,8,1,1,1,2881
1150,13,1,550,4,1,1,1,935
1151,13,1,551,8,1,1,1,671
1152,13,1,552,4,0,0,1,539
1153,13,1,553,8,0,0,1,3725
1154,13,1,554,8,0,0,1,736
1155,13,1,555,8,1,1,1,1128
1156,13,1,556,4,1,1,1,1620
1157,13,1,557,8,0,0,1,1006
1158,13,1,558,8,1,1,1,788
1159,13,1,559,4,0,0,1,792
1160,13,1,560,8,0,0,1,1393
1161,13,1,561,4,0,0,1,1456
1162,13,1,562,4,1,1,1,1011
1163,13,1,563,4,0,0,1,1047
1164,13,1,564,8,0,0,1,1134
1165,13,1,565,8,1,1,1,593
1166,13,1,566,8,0,0,1,1886
1167,13,1,567,8,0,0,1,1681
1168,13,1,568,4,1,1,1,889
1169,13,1,569,8,1,1,1,1386
1170,13,1,570,4,0,0,1,796
1171,13,1,571,8,0,0,1,1000
1172,13,1,572,8,1,1,1,1515
1173,13,1,573,4,1,1,1,958
1174,13,1,574,4,0,0,1,1176
1175,13,1,575,8,0,0,1,1425
1176,13,1,576,8,1,1,1,997
1177,13,1,577,4,0,0,1,1173
1178,13,1,578,8,1,1,1,794
1179,13,1,579,8,0,0,1,1025
1180,13,1,580,4,0,0,1,1012
1181,13,1,581,4,0,0,1,1293
1182,13,1,582,4,0,0,1,2293
1183,13,1,583,4,0,0,1,1199
1184,13,1,584,8,0,0,1,1165
1185,13,1,585,4,0,0,1,800
1186,13,1,586,8,0,0,1,969
1187,13,1,587,4,1,1,1,799
1188,13,1,588,4,0,0,1,763
1189,13,1,589,4,1,1,1,1051
1190,13,1,590,8,0,0,1,1151
1191,13,1,591,4,0,0,1,774
1192,13,1,592,8,0,0,1,718
1193,13,1,593,4,0,0,1,851
1194,13,1,594,4,0,0,1,922
1195,13,1,595,8,1,1,1,1286
1196,13,1,596,8,1,1,1,1083
1197,13,1,597,4,1,1,1,1680
1198,13,1,598,4,1,1,1,1063
1199,13,1,599,4,1,1,1,863
1200,13,1,600,4,1,1,1,861
1201,14,1,1,4,1,3,0,4992
1202,14,1,2,4,0,0,1,3783
1203,14,1,3,8,1,1,1,1963
1204,14,1,4,8,1,1,1,1260
1205,14,1,5,4,1,1,1,1190
1206,14,1,6,4,1,1,1,1235
1207,14,1,7,8,0,0,1,1397
1208,14,1,8,8,0,0,1,656
1209,14,1,9,4,0,0,1,1200
1210,14,1,10,4,0,0,1,687
1211,14,1,11,8,1,1,1,3765
1212,14,1,12,8,1,1,1,1890
1213,14,1,13,4,0,0,1,1896
1214,14,1,14,8,1,1,1,1020
1215,14,1,15,4,0,0,1,1229
1216,14,1,16,4,1,1,1,1007
1217,14,1,17,4,0,0,1,935
1218,14,1,18,8,1,1,1,1241
1219,14,1,19,8,0,0,1,1891
1220,14,1,20,4,0,0,1,774
1221,14,1,21,8,0,0,1,1491
1222,14,1,22,4,1,1,1,644
1223,14,1,23,4,1,1,1,1844
1224,14,1,24,4,1,1,1,649
1225,14,1,25,8,0,0,1,563
1226,14,1,26,4,0,0,1,620
1227,14,1,27,8,0,0,1,1207
1228,14,1,28,8,0,0,1,1525
1229,14,1,29,8,0,0,1,1101
1230,14,1,30,4,1,1,1,1126
1231,14,1,31,4,1,1,1,569
1232,14,1,32,4,0,0,1,523
1233,14,1,33,8,0,0,1,1925
1234,14,1,34,4,1,1,1,652
1235,14,1,35,4,1,1,1,992
1236,14,1,36,8,0,0,1,2998
1237,14,1,37,8,1,1,1,4732
1238,14,1,38,8,1,1,1,1463
1239,14,1,39,8,1,1,1,1831
1240,14,1,40,8,0,0,1,1371
1241,14,1,41,8,1,1,1,2618
1242,14,1,42,4,0,0,1,951
1243,14,1,43,4,1,1,1,657
1244,14,1,44,8,0,0,1,2122
1245,14,1,45,8,1,1,1,1466
1246,14,1,46,4,0,0,1,611
1247,14,1,47,4,1,1,1,1859
1248,14,1,48,8,0,0,1,650
1249,14,1,49,4,0,0,1,811
1250,14,1,50,8,0,0,1,2020
1251,14,1,51,4,0,0,1,900
1252,14,1,52,8,0,0,1,2051
1253,14,1,53,4,1,1,1,748
1254,14,1,54,8,1,1,1,1651
1255,14,1,55,8,0,0,1,1048
1256,14,1,56,8,0,0,1,1790
1257,14,1,57,8,1,1,1,1500
1258,14,1,58,8,0,0,1,2556
1259,14,1,59,8,0,0,1,814
1260,14,1,60,8,1,1,1,939
1261,14,1,61,4,1,1,1,788
1262,14,1,62,8,1,1,1,697
1263,14,1,63,8,0,0,1,1653
1264,14,1,64,8,1,1,1,1749
1265,14,1,65,8,1,1,1,1716
1266,14,1,66,8,0,0,1,791
1267,14,1,67,4,1,1,1,1329
1268,14,1,68,4,1,1,1,1506
1269,14,1,69,8,1,1,1,1155
1270,14,1,70,8,1,1,1,831
1271,14,1,71,4,1,1,1,574
1272,14,1,72,8,1,1,1,955
1273,14,1,73,8,0,0,1,1273
1274,14,1,74,4,0,0,1,529
1275,14,1,75,4,0,0,1,1633
1276,14,1,76,4,0,0,1,1003
1277,14,1,77,4,1,1,1,762
1278,14,1,78,4,1,1,1,1360
1279,14,1,79,8,1,1,1,2432
1280,14,1,80,8,0,0,1,782
1281,14,1,81,8,0,0,1,925
1282,14,1,82,4,1,1,1,1158
1283,14,1,83,8,0,0,1,1059
1284,14,1,84,4,0,0,1,1209
1285,14,1,85,8,1,1,1,1116
1286,14,1,86,4,0,0,1,663
1287,14,1,87,8,0,0,1,1739
1288,14,1,88,8,1,1,1,1355
1289,14,1,89,8,1,1,1,1156
1290,14,1,90,8,1,1,1,1330
1291,14,1,91,4,1,1,1,988
1292,14,1,92,4,0,0,1,1165
1293,14,1,93,4,0,0,1,565
1294,14,1,94,8,1,1,1,1080
1295,14,1,95,4,1,1,1,599
1296,14,1,96,4,0,0,1,766
1297,14,1,97,8,0,0,1,1576
1298,14,1,98,4,0,0,1,1279
1299,14,1,99,8,1,1,1,1133
1300,14,1,100,8,0,0,1,1141
1301,14,1,101,4,0,0,1,616
1302,14,1,102,8,1,1,0,944
1303,14,1,103,8,0,0,1,1254
1304,14,1,104,8,1,1,1,681
1305,14,1,105,4,1,1,1,675
1306,14,1,106,4,0,0,1,793
1307,14,1,107,8,0,0,1,1674
1308,14,1,108,8,1,1,1,1473
1309,14,1,109,4,0,0,1,1551
1310,14,1,110,4,1,1,1,940
1311,14,1,111,4,0,0,1,939
1312,14,1,112,4,0,0,1,1194
1313,14,1,113,8,1,1,1,1253
1314,14,1,114,4,1,1,1,716
1315,14,1,115,4,1,1,1,1129
1316,14,1,116,8,1,1,1,2172
1317,14,1,117,4,1,1,1,761
1318,14,1,118,4,0,0,0,647
1319,14,1,119,4,0,0,1,633
1320,14,1,120,4,0,0,1,667
1321,14,1,121,4,0,0,1,1251
1322,14,1,122,4,1,1,1,639
1323,14,1,123,4,0,0,1,914
1324,14,1,124,8,1,1,1,1221
1325,14,1,125,4,1,1,1,671
1326,14,1,126,4,1,1,1,504
1327,14,1,127,4,0,0,1,1101
1328,14,1,128,8,1,1,1,1074
1329,14,1,129,8,1,1,1,1142
1330,14,1,130,4,0,0,1,589
1331,14,1,131,8,1,1,1,1161
1332,14,1,132,4,1,1,1,954
1333,14,1,133,8,0,0,1,1857
1334,14,1,134,4,0,0,1,630
1335,14,1,135,8,0,0,1,864
1336,14,1,136,8,0,0,1,1002
1337,14,1,137,8,0,0,1,1076
1338,14,1,138,4,0,0,1,883
1339,14,1,139,8,0,0,1,1045
1340,14,1,140,4,0,0,1,482
1341,14,1,141,4,0,0,1,484
1342,14,1,142,8,1,1,1,1053
1343,14,1,143,4,1,1,1,1144
1344,14,1,144,8,0,0,1,837
1345,14,1,145,4,0,0,1,676
1346,14,1,146,4,1,1,1,715
1347,14,1,147,8,0,0,1,1672
1348,14,1,148,4,0,0,1,808
1349,14,1,149,4,1,1,1,649
1350,14,1,150,4,0,0,1,898
1351,14,1,151,4,0,0,1,536
1352,14,1,152,4,0,0,1,567
1353,14,1,153,8,0,0,1,493
1354,14,1,154,8,1,1,1,1163
1355,14,1,155,8,0,0,1,643
1356,14,1,156,8,1,1,1,1367
1357,14,1,157,8,0,0,1,913
1358,14,1,158,8,1,1,1,694
1359,14,1,159,8,1,1,1,1170
1360,14,1,160,4,1,1,1,825
1361,14,1,161,4,0,0,1,1367
1362,14,1,162,8,1,1,1,508
1363,14,1,163,4,0,0,1,1046
1364,14,1,164,8,0,0,1,1837
1365,14,1,165,4,0,0,1,1063
1366,14,1,166,4,0,0,1,542
1367,14,1,167,8,1,1,1,573
1368,14,1,168,8,1,1,1,763
1369,14,1,169,8,0,0,1,696
1370,14,1,170,4,1,1,1,488
1371,14,1,171,4,0,0,1,1638
1372,14,1,172,4,1,1,1,589
1373,14,1,173,8,0,0,1,1917
1374,14,1,174,4,1,1,1,1543
1375,14,1,175,8,0,0,1,2636
1376,14,1,176,8,1,1,1,3659
1377,14,1,177,4,0,0,1,1303
1378,14,1,178,4,1,1,1,653
1379,14,1,179,4,0,0,1,1107
1380,14,1,180,8,1,1,1,1511
1381,14,1,181,4,1,1,1,866
1382,14,1,182,4,0,0,1,535
1383,14,1,183,8,1,1,1,1037
1384,14,1,184,4,1,1,1,1047
1385,14,1,185,4,1,1,1,725
1386,14,1,186,8,0,0,1,894
1387,14,1,187,8,0,0,1,923
1388,14,1,188,4,1,1,1,597
1389,14,1,189,8,1,1,1,1198
1390,14,1,190,8,1,1,1,1173
1391,14,1,191,8,1,1,1,774
1392,14,1,192,4,1,1,1,1001
1393,14,1,193,4,0,0,1,509
1394,14,1,194,8,0,0,1,1839
1395,14,1,195,8,1,1,1,610
1396,14,1,196,4,1,1,1,869
1397,14,1,197,8,1,1,1,689
1398,14,1,198,4,0,0,1,490
1399,14,1,199,4,1,1,1,958
1400,14,1,200,4,0,0,1,711
1401,14,1,201,4,0,0,1,573
1402,14,1,202,4,1,1,1,866
1403,14,1,203,4,0,0,1,491
1404,14,1,204,8,0,0,1,679
1405,14,1,205,4,0,0,1,391
1406,14,1,206,4,1,1,1,957
1407,14,1,207,8,0,0,1,1241
1408,14,1,208,8,0,0,1,3680
1409,14,1,209,8,0,0,1,1156
1410,14,1,210,4,1,1,1,744
1411,14,1,211,8,0,0,1,1868
1412,14,1,212,4,1,1,1,811
1413,14,1,213,4,1,1,1,481
1414,14,1,214,4,1,1,1,666
1415,14,1,215,4,1,1,1,1134
1416,14,1,216,8,1,1,1,1138
1417,14,1,217,4,0,0,1,595
1418,14,1,218,4,0,0,1,934
1419,14,1,219,4,0,0,1,1063
1420,14,1,220,8,0,0,1,818
1421,14,1,221,8,0,0,1,1767
1422,14,1,222,8,1,1,1,588
1423,14,1,223,8,0,0,1,532
1424,14,1,224,4,0,0,1,1049
1425,14,1,225,4,0,0,1,481
1426,14,1,226,4,1,1,1,1096
1427,14,1,227,4,0,0,1,992
1428,14,1,228,8,0,0,1,1988
1429,14,1,229,8,0,0,1,559
1430,14,1,230,8,1,1,1,847
1431,14,1,231,4,0,0,1,733
1432,14,1,232,4,1,1,1,530
1433,14,1,233,4,0,0,1,840
1434,14,1,234,4,0,0,1,531
1435,14,1,235,4,1,1,1,939
1436,14,1,236,4,1,1,1,565
1437,14,1,237,4,0,0,1,1077
1438,14,1,238,4,1,1,0,864
1439,14,1,239,8,1,1,1,827
1440,14,1,240,8,0,0,1,720
1441,14,1,241,4,0,0,1,572
1442,14,1,242,8,0,0,1,1082
1443,14,1,243,4,1,1,1,682
1444,14,1,244,8,1,1,1,1090
1445,14,1,245,8,0,0,1,1036
1446,14,1,246,4,1,1,1,682
1447,14,1,247,8,0,0,1,859
1448,14,1,248,4,0,0,1,1049
1449,14,1,249,8,1,1,1,2189
1450,14,1,250,4,0,0,1,473
1451,14,1,251,8,0,0,1,1489
1452,14,1,252,8,1,1,1,975
1453,14,1,253,8,1,1,1,677
1454,14,1,254,8,0,0,1,1785
1455,14,1,255,4,0,0,1,708
1456,14,1,256,4,0,0,1,1014
1457,14,1,257,8,1,1,1,2805
1458,14,1,258,4,1,1,1,503
1459,14,1,259,4,0,0,1,506
1460,14,1,260,8,1,1,1,680
1461,14,1,261,4,1,1,1,738
1462,14,1,262,8,0,0,1,805
1463,14,1,263,8,1,1,1,897
1464,14,1,264,8,1,1,1,657
1465,14,1,265,4,0,0,1,1004
1466,14,1,266,8,0,0,0,679
1467,14,1,267,8,0,0,1,797
1468,14,1,268,8,1,1,1,1113
1469,14,1,269,8,0,0,1,982
1470,14,1,270,8,1,1,1,1178
1471,14,1,271,4,1,1,1,778
1472,14,1,272,8,0,0,1,1606
1473,14,1,273,4,1,1,1,1087
1474,14,1,274,8,1,1,1,1293
1475,14,1,275,4,0,0,1,951
1476,14,1,276,8,1,1,1,1780
1477,14,1,277,4,0,0,1,485
1478,14,1,278,4,1,1,1,598
1479,14,1,279,4,1,1,1,763
1480,14,1,280,4,1,1,1,1149
1481,14,1,281,4,1,1,1,822
1482,14,1,282,4,0,0,1,605
1483,14,1,283,4,0,0,1,508
1484,14,1,284,8,0,0,1,572
1485,14,1,285,8,0,0,1,663
1486,14,1,286,4,1,1,1,735
1487,14,1,287,8,0,0,1,550
1488,14,1,288,8,1,1,1,1247
1489,14,1,289,8,1,1,1,993
1490,14,1,290,4,0,0,1,530
1491,14,1,291,8,1,1,1,1247
1492,14,1,292,8,1,1,1,676
1493,14,1,293,4,0,0,1,1247
1494,14,1,294,8,1,1,1,1482
1495,14,1,295,4,0,0,1,1127
1496,14,1,296,8,0,0,1,1868
1497,14,1,297,8,1,1,1,3237
1498,14,1,298,8,1,1,1,964
1499,14,1,299,4,0,0,1,675
1500,14,1,300,4,1,1,1,624
1501,14,1,301,4,1,1,1,933
1502,14,1,302,4,1,1,1,1381
1503,14,1,303,4,0,0,1,624
1504,14,1,304,8,0,0,1,1269
1505,14,1,305,4,1,1,1,788
1506,14,1,306,8,1,1,1,1833
1507,14,1,307,4,1,1,1,590
1508,14,1,308,8,1,1,1,891
1509,14,1,309,4,1,1,1,636
1510,14,1,310,8,0,0,1,2464
1511,14,1,311,8,1,1,1,1034
1512,14,1,312,4,1,1,1,1271
1513,14,1,313,8,1,1,1,1422
1514,14,1,314,8,0,0,1,1979
1515,14,1,315,8,1,1,1,580
1516,14,1,316,4,1,1,1,750
1517,14,1,317,8,1,1,1,1570
1518,14,1,318,8,1,1,1,877
1519,14,1,319,4,1,1,1,597
1520,14,1,320,8,0,0,1,1081
1521,14,1,321,4,1,1,1,521
1522,14,1,322,8,0,0,1,1203
1523,14,1,323,4,1,1,1,709
1524,14,1,324,8,0,0,1,1205
1525,14,1,325,8,0,0,1,929
1526,14,1,326,4,0,0,1,775
1527,14,1,327,8,0,0,1,1357
1528,14,1,328,8,1,1,1,637
1529,14,1,329,8,0,0,1,851
1530,14,1,330,4,0,0,1,592
1531,14,1,331,8,0,0,1,1586
1532,14,1,332,8,1,1,1,1370
1533,14,1,333,4,1,1,1,880
1534,14,1,334,4,0,0,1,734
1535,14,1,335,4,1,1,1,586
1536,14,1,336,4,0,0,1,647
1537,14,1,337,4,0,0,1,444
1538,14,1,338,4,0,0,1,563
1539,14,1,339,4,0,0,1,836
1540,14,1,340,8,0,0,1,938
1541,14,1,341,8,0,0,1,965
1542,14,1,342,4,1,1,1,1027
1543,14,1,343,8,1,1,1,1337
1544,14,1,344,8,0,0,1,1344
1545,14,1,345,8,0,0,1,1000
1546,14,1,346,8,0,0,1,1357
1547,14,1,347,8,0,0,1,913
1548,14,1,348,8,1,1,1,1513
1549,14,1,349,4,1,1,1,785
1550,14,1,350,4,1,1,1,1067
1551,14,1,351,4,1,1,1,926
1552,14,1,352,8,0,0,1,555
1553,14,1,353,8,1,1,1,819
1554,14,1,354,4,1,1,1,763
1555,14,1,355,4,1,1,1,1355
1556,14,1,356,4,0,0,1,855
1557,14,1,357,4,0,0,1,1246
1558,14,1,358,8,1,1,1,2433
1559,14,1,359,8,0,0,1,1358
1560,14,1,360,4,0,0,1,687
1561,14,1,361,4,0,0,1,794
1562,14,1,362,4,1,1,1,552
1563,14,1,363,8,0,0,1,1767
1564,14,1,364,4,1,1,1,1089
1565,14,1,365,8,1,1,1,1722
1566,14,1,366,4,1,1,1,844
1567,14,1,367,4,1,1,1,919
1568,14,1,368,8,1,1,1,1263
1569,14,1,369,4,0,0,1,682
1570,14,1,370,8,0,0,1,745
1571,14,1,371,8,0,0,1,1852
1572,14,1,372,8,1,1,1,654
1573,14,1,373,8,0,0,1,1131
1574,14,1,374,4,0,0,1,580
1575,14,1,375,4,0,0,1,659
1576,14,1,376,8,1,1,1,1482
1577,14,1,377,8,1,1,1,1343
1578,14,1,378,8,1,1,1,1256
1579,14,1,379,8,1,1,1,1230
1580,14,1,380,8,1,1,1,1356
1581,14,1,381,8,1,1,1,773
1582,14,1,382,4,1,1,1,965
1583,14,1,383,8,0,0,1,968
1584,14,1,384,4,0,0,1,1429
1585,14,1,385,4,0,0,1,902
1586,14,1,386,8,1,1,1,840
1587,14,1,387,8,0,0,1,894
1588,14,1,388,8,0,0,1,1351
1589,14,1,389,8,1,1,1,1128
1590,14,1,390,4,0,0,1,945
1591,14,1,391,4,1,1,1,739
1592,14,1,392,4,1,1,1,784
1593,14,1,393,8,0,0,1,1057
1594,14,1,394,4,0,0,1,1553
1595,14,1,395,8,1,1,1,1970
1596,14,1,396,8,1,1,1,974
1597,14,1,397,4,1,1,1,594
1598,14,1,398,8,0,0,1,803
1599,14,1,399,4,1,1,1,738
1600,14,1,400,8,0,0,1,996
1601,14,1,401,4,0,0,1,1058
1602,14,1,402,8,1,1,1,993
1603,14,1,403,4,0,0,1,656
1604,14,1,404,8,1,1,1,1344
1605,14,1,405,4,1,1,1,1267
1606,14,1,406,8,1,1,1,1606
1607,14,1,407,4,0,0,1,671
1608,14,1,408,8,0,0,1,2288
1609,14,1,409,4,1,1,1,604
1610,14,1,410,4,0,0,1,659
1611,14,1,411,8,0,0,1,785
1612,14,1,412,8,1,1,1,738
1613,14,1,413,4,0,0,1,970
1614,14,1,414,8,1,1,1,1163
1615,14,1,415,4,0,0,1,803
1616,14,1,416,8,0,0,1,527
1617,14,1,417,4,1,1,1,761
1618,14,1,418,4,0,0,1,540
1619,14,1,419,4,1,1,0,534
1620,14,1,420,4,1,1,1,869
1621,14,1,421,4,1,1,1,860
1622,14,1,422,4,0,0,1,1398
1623,14,1,423,8,0,0,1,633
1624,14,1,424,8,0,0,1,488
1625,14,1,425,8,0,0,1,1215
1626,14,1,426,4,0,0,1,541
1627,14,1,427,4,0,0,1,832
1628,14,1,428,8,0,0,1,1301
1629,14,1,429,8,1,1,1,1100
1630,14,1,430,8,1,1,1,959
1631,14,1,431,8,1,1,1,1118
1632,14,1,432,4,0,0,1,1446
1633,14,1,433,4,1,1,1,633
1634,14,1,434,8,0,0,1,1299
1635,14,1,435,4,0,0,1,730
1636,14,1,436,8,0,0,1,1592
1637,14,1,437,8,0,0,1,1321
1638,14,1,438,8,1,1,0,972
1639,14,1,439,8,0,0,1,2013
1640,14,1,440,4,1,1,1,769
1641,14,1,441,8,1,1,1,1215
1642,14,1,442,8,0,0,1,688
1643,14,1,443,4,1,1,1,1910
1644,14,1,444,4,1,1,1,816
1645,14,1,445,8,1,1,1,1053
1646,14,1,446,8,0,0,1,871
1647,14,1,447,4,1,1,1,515
1648,14,1,448,4,0,0,1,501
1649,14,1,449,4,0,0,1,616
1650,14,1,450,4,0,0,1,1172
1651,14,1,451,8,1,1,1,1203
1652,14,1,452,8,0,0,1,1838
1653,14,1,453,8,0,0,1,746
1654,14,1,454,4,0,0,1,756
1655,14,1,455,8,1,1,1,1072
1656,14,1,456,4,0,0,1,1365
1657,14,1,457,4,1,1,1,672
1658,14,1,458,8,1,1,1,545
1659,14,1,459,8,1,1,1,1594
1660,14,1,460,8,1,1,1,1744
1661,14,1,461,4,1,1,1,797
1662,14,1,462,8,1,1,1,976
1663,14,1,463,8,0,0,1,1035
1664,14,1,464,8,1,1,1,552
1665,14,1,465,4,1,1,1,746
1666,14,1,466,4,0,0,1,753
1667,14,1,467,4,0,0,1,1822
1668,14,1,468,8,1,1,1,1432
1669,14,1,469,4,1,1,1,1091
1670,14,1,470,8,0,0,1,1629
1671,14,1,471,4,1,1,1,1091
1672,14,1,472,4,1,1,1,757
1673,14,1,473,4,0,0,1,782
1674,14,1,474,8,0,0,1,1070
1675,14,1,475,8,0,0,1,647
1676,14,1,476,4,1,1,1,1031
1677,14,1,477,8,1,1,1,1098
1678,14,1,478,8,0,0,1,1810
1679,14,1,479,4,0,0,1,1021
1680,14,1,480,4,0,0,1,715
1681,14,1,481,4,0,0,1,691
1682,14,1,482,4,1,1,1,897
1683,14,1,483,8,1,1,1,1705
1684,14,1,484,4,1,1,1,544
1685,14,1,485,4,0,0,1,1456
1686,14,1,486,8,1,1,1,2935
1687,14,1,487,4,0,0,1,531
1688,14,1,488,8,0,0,1,880
1689,14,1,489,8,1,1,1,747
1690,14,1,490,4,1,1,1,1268
1691,14,1,491,4,1,1,1,683
1692,14,1,492,8,1,1,1,734
1693,14,1,493,8,0,0,1,807
1694,14,1,494,4,0,0,1,646
1695,14,1,495,4,1,1,1,668
1696,14,1,496,4,0,0,1,729
1697,14,1,497,4,1,1,1,658
1698,14,1,498,8,0,0,1,670
1699,14,1,499,8,1,1,1,697
1700,14,1,500,8,1,1,1,1312
1701,14,1,501,4,1,1,1,908
1702,14,1,502,8,0,0,1,1004
1703,14,1,503,4,1,1,1,534
1704,14,1,504,8,1,1,1,1430
1705,14,1,505,8,0,0,1,1931
1706,14,1,506,4,0,0,1,639
1707,14,1,507,8,0,0,1,1080
1708,14,1,508,4,0,0,1,1005
1709,14,1,509,8,0,0,1,2897
1710,14,1,510,4,1,1,1,595
1711,14,1,511,4,0,0,1,726
1712,14,1,512,4,1,1,1,665
1713,14,1,513,8,1,1,1,1849
1714,14,1,514,8,0,0,1,902
1715,14,1,515,8,1,1,1,571
1716,14,1,516,4,0,0,1,527
1717,14,1,517,8,0,0,1,879
1718,14,1,518,4,0,0,1,681
1719,14,1,519,4,0,0,1,509
1720,14,1,520,4,0,0,1,1371
1721,14,1,521,8,1,1,1,886
1722,14,1,522,8,1,1,1,796
1723,14,1,523,4,0,0,1,602
1724,14,1,524,4,1,1,1,1361
1725,14,1,525,4,0,0,1,975
1726,14,1,526,4,1,1,1,720
1727,14,1,527,4,1,1,1,675
1728,14,1,528,8,1,1,1,1463
1729,14,1,529,8,1,1,1,1972
1730,14,1,530,4,1,1,1,1175
1731,14,1,531,4,1,1,1,532
1732,14,1,532,4,1,1,1,813
1733,14,1,533,4,0,0,1,1045
1734,14,1,534,4,1,1,1,1260
1735,14,1,535,8,0,0,1,1315
1736,14,1,536,4,1,1,1,844
1737,14,1,537,4,1,1,1,654
1738,14,1,538,4,1,1,1,568
1739,14,1,539,4,0,0,1,702
1740,14,1,540,8,0,0,1,700
1741,14,1,541,8,0,0,1,1413
1742,14,1,542,4,0,0,1,643
1743,14,1,543,4,1,1,1,504
1744,14,1,544,4,0,0,1,473
1745,14,1,545,4,0,0,1,826
1746,14,1,546,4,1,1,1,1074
1747,14,1,547,8,1,1,1,1171
1748,14,1,548,8,0,0,1,954
1749,14,1,549,8,1,1,1,805
1750,14,1,550,8,0,0,1,702
1751,14,1,551,8,1,1,0,691
1752,14,1,552,8,1,1,1,1447
1753,14,1,553,8,0,0,1,875
1754,14,1,554,8,1,1,1,1399
1755,14,1,555,4,0,0,1,794
1756,14,1,556,8,1,1,1,1287
1757,14,1,557,4,1,1,1,500
1758,14,1,558,8,1,1,1,909
1759,14,1,559,4,0,0,1,1244
1760,14,1,560,4,0,0,1,1098
1761,14,1,561,8,0,0,1,972
1762,14,1,562,8,0,0,1,1022
1763,14,1,563,8,0,0,1,620
1764,14,1,564,8,1,1,1,1578
1765,14,1,565,4,1,1,1,578
1766,14,1,566,4,1,1,1,763
1767,14,1,567,4,1,1,1,588
1768,14,1,568,8,1,1,1,631
1769,14,1,569,8,0,0,1,1192
1770,14,1,570,8,1,1,1,1704
1771,14,1,571,4,0,0,1,612
1772,14,1,572,4,0,0,1,533
1773,14,1,573,8,0,0,1,1300
1774,14,1,574,8,1,1,1,771
1775,14,1,575,8,0,0,1,1332
1776,14,1,576,8,1,1,1,836
1777,14,1,577,8,0,0,1,1001
1778,14,1,578,8,1,1,1,1192
1779,14,1,579,8,0,0,1,594
1780,14,1,580,4,1,1,1,542
1781,14,1,581,4,0,0,1,859
1782,14,1,582,8,0,0,1,1581
1783,14,1,583,8,1,1,1,649
1784,14,1,584,4,1,1,1,814
1785,14,1,585,4,1,1,1,1002
1786,14,1,586,4,1,1,1,628
1787,14,1,587,8,0,0,1,1297
1788,14,1,588,8,0,0,1,926
1789,14,1,589,8,1,1,1,901
1790,14,1,590,4,0,0,1,601
1791,14,1,591,8,1,1,1,2319
1792,14,1,592,4,0,0,1,519
1793,14,1,593,4,1,1,1,832
1794,14,1,594,8,0,0,1,777
1795,14,1,595,8,0,0,1,1052
1796,14,1,596,4,1,1,1,649
1797,14,1,597,8,0,0,1,1454
1798,14,1,598,4,1,1,1,579
1799,14,1,599,8,0,0,1,854
1800,14,1,600,4,1,1,1,625
1801,15,1,1,8,0,0,1,4897
1802,15,1,2,8,0,3,0,4994
1803,15,1,3,4,0,0,1,1438
1804,15,1,4,8,0,0,1,673
1805,15,1,5,4,1,1,1,722
1806,15,1,6,8,0,0,1,1435
1807,15,1,7,8,1,1,1,1985
1808,15,1,8,8,0,0,1,2516
1809,15,1,9,4,1,1,1,627
1810,15,1,10,8,0,0,1,846
1811,15,1,11,4,0,0,1,1540
1812,15,1,12,4,0,0,1,756
1813,15,1,13,8,0,0,1,749
1814,15,1,14,4,0,0,1,1121
1815,15,1,15,4,0,0,1,793
1816,15,1,16,8,0,0,1,944
1817,15,1,17,8,1,1,1,1134
1818,15,1,18,4,0,0,1,500
1819,15,1,19,4,0,0,1,981
1820,15,1,20,8,0,0,1,616
1821,15,1,21,4,1,1,1,1056
1822,15,1,22,4,1,1,1,1106
1823,15,1,23,8,1,1,1,1561
1824,15,1,24,8,1,1,1,551
1825,15,1,25,8,0,0,1,1170
1826,15,1,26,8,0,0,1,1918
1827,15,1,27,8,1,1,1,4221
1828,15,1,28,8,0,0,1,2099
1829,15,1,29,4,1,1,1,938
1830,15,1,30,8,0,0,1,2448
1831,15,1,31,4,0,0,1,1616
1832,15,1,32,4,0,0,1,2358
1833,15,1,33,8,1,1,1,1571
1834,15,1,34,4,1,1,1,1439
1835,15,1,35,4,1,1,1,1051
1836,15,1,36,4,1,1,1,1433
1837,15,1,37,4,1,1,1,726
1838,15,1,38,8,1,1,1,3165
1839,15,1,39,8,1,1,1,1581
1840,15,1,40,4,1,1,1,1175
1841,15,1,41,4,1,1,1,3540
1842,15,1,42,8,1,1,1,858
1843,15,1,43,8,1,1,1,620
1844,15,1,44,8,0,0,1,767
1845,15,1,45,4,0,0,0,688
1846,15,1,46,4,0,0,1,1670
1847,15,1,47,4,1,1,1,966
1848,15,1,48,4,1,1,1,846
1849,15,1,49,8,0,0,1,1532
1850,15,1,50,4,0,0,1,976
1851,15,1,51,8,1,1,0,522
1852,15,1,52,4,1,1,1,817
1853,15,1,53,4,0,0,1,1502
1854,15,1,54,8,0,0,1,961
1855,15,1,55,4,0,0,1,2240
1856,15,1,56,4,1,1,1,1051
1857,15,1,57,8,0,0,1,576
1858,15,1,58,8,1,1,1,1120
1859,15,1,59,8,1,1,1,1051
1860,15,1,60,4,0,0,1,1344
1861,15,1,61,4,0,0,1,774
1862,15,1,62,8,1,1,1,1113
1863,15,1,63,8,0,0,1,724
1864,15,1,64,4,0,0,1,1095
1865,15,1,65,8,0,3,0,4993
1866,15,1,66,8,1,1,1,1433
1867,15,1,67,8,1,1,1,1251
1868,15,1,68,4,1,1,1,523
1869,15,1,69,8,0,0,1,1423
1870,15,1,70,8,0,0,1,1057
1871,15,1,71,8,1,1,1,928
1872,15,1,72,4,0,0,1,924
1873,15,1,73,8,0,0,1,1900
1874,15,1,74,8,0,0,1,758
1875,15,1,75,4,0,0,1,1859
1876,15,1,76,8,1,1,1,1677
1877,15,1,77,8,1,1,1,854
1878,15,1,78,8,0,0,1,1555
1879,15,1,79,8,1,1,1,1344
1880,15,1,80,8,0,0,1,874
1881,15,1,81,8,0,0,1,561
1882,15,1,82,8,1,1,1,795
1883,15,1,83,8,0,0,1,1163
1884,15,1,84,4,0,0,1,558
1885,15,1,85,8,0,0,1,1001
1886,15,1,86,4,1,1,1,1094
1887,15,1,87,8,0,0,1,1823
1888,15,1,88,8,1,1,1,1829
1889,15,1,89,4,1,1,1,1054
1890,15,1,90,8,0,0,1,1832
1891,15,1,91,4,1,1,1,1323
1892,15,1,92,8,0,0,1,727
1893,15,1,93,4,0,0,1,1130
1894,15,1,94,8,1,1,1,765
1895,15,1,95,8,0,0,1,840
1896,15,1,96,4,0,0,1,1454
1897,15,1,97,8,0,0,1,2081
1898,15,1,98,8,1,1,1,704
1899,15,1,99,8,0,0,1,745
1900,15,1,100,8,0,0,1,1316
1901,15,1,101,8,0,0,1,1892
1902,15,1,102,8,1,1,1,852
1903,15,1,103,4,0,0,1,776
1904,15,1,104,8,1,1,1,1826
1905,15,1,105,4,0,0,1,608
1906,15,1,106,4,1,1,1,541
1907,15,1,107,4,0,0,1,651
1908,15,1,108,8,1,1,1,1338
1909,15,1,109,4,1,1,1,1079
1910,15,1,110,8,0,0,1,1198
1911,15,1,111,4,0,0,1,661
1912,15,1,112,8,0,0,1,1315
1913,15,1,113,8,1,1,1,1541
1914,15,1,114,8,0,0,1,2901
1915,15,1,115,4,1,1,1,789
1916,15,1,116,8,1,1,1,807
1917,15,1,117,4,0,0,1,551
1918,15,1,118,8,0,0,0,548
1919,15,1,119,4,0,0,1,1766
1920,15,1,120,8,0,0,1,1591
1921,15,1,121,4,0,0,1,691
1922,15,1,122,4,1,1,1,2489
1923,15,1,123,4,1,1,1,758
1924,15,1,124,4,0,0,1,1502
1925,15,1,125,4,1,1,1,1655
1926,15,1,126,4,0,0,1,1388
1927,15,1,127,8,1,1,1,1063
1928,15,1,128,8,0,0,1,2377
1929,15,1,129,8,0,0,1,848
1930,15,1,130,4,1,1,1,1616
1931,15,1,131,8,0,0,1,993
1932,15,1,132,8,0,0,1,1736
1933,15,1,133,4,0,0,1,921
1934,15,1,134,4,1,1,1,573
1935,15,1,135,4,1,1,1,945
1936,15,1,136,8,0,0,1,581
1937,15,1,137,8,0,0,1,1831
1938,15,1,138,4,0,0,1,1842
1939,15,1,139,4,0,0,1,1193
1940,15,1,140,4,0,0,1,1386
1941,15,1,141,4,1,1,1,1494
1942,15,1,142,4,1,1,1,855
1943,15,1,143,8,0,0,1,1759
1944,15,1,144,4,1,1,1,480
1945,15,1,145,4,0,0,1,537
1946,15,1,146,4,0,0,1,1531
1947,15,1,147,8,1,1,1,3283
1948,15,1,148,8,1,1,1,1579
1949,15,1,149,4,1,1,1,1282
1950,15,1,150,8,0,0,1,1483
1951,15,1,151,8,1,1,1,2625
1952,15,1,152,8,0,0,1,735
1953,15,1,153,4,1,1,1,950
1954,15,1,154,8,0,0,1,1436
1955,15,1,155,8,1,1,1,981
1956,15,1,156,8,0,0,1,898
1957,15,1,157,8,0,0,1,710
1958,15,1,158,8,1,1,1,1010
1959,15,1,159,4,1,1,1,775
1960,15,1,160,8,0,0,1,948
1961,15,1,161,4,0,0,1,956
1962,15,1,162,8,1,1,1,2499
1963,15,1,163,4,0,0,1,637
1964,15,1,164,8,0,0,1,906
1965,15,1,165,4,0,0,1,1991
1966,15,1,166,4,0,0,1,465
1967,15,1,167,8,1,1,1,641
1968,15,1,168,8,0,0,1,1339
1969,15,1,169,8,0,0,1,648
1970,15,1,170,8,0,0,1,1047
1971,15,1,171,4,0,0,1,1068
1972,15,1,172,8,0,0,1,2006
1973,15,1,173,8,0,0,1,614
1974,15,1,174,8,1,1,1,892
1975,15,1,175,8,1,1,0,523
1976,15,1,176,8,1,1,1,1421
1977,15,1,177,4,0,0,1,1523
1978,15,1,178,8,0,0,1,1738
1979,15,1,179,4,0,0,1,785
1980,15,1,180,4,1,1,1,938
1981,15,1,181,8,1,1,1,1142
1982,15,1,182,4,1,1,1,710
1983,15,1,183,4,1,1,1,1486
1984,15,1,184,4,0,0,1,740
1985,15,1,185,4,1,1,1,764
1986,15,1,186,4,1,1,1,2168
1987,15,1,187,4,0,0,1,772
1988,15,1,188,8,0,0,1,1145
1989,15,1,189,8,1,1,1,1529
1990,15,1,190,4,1,1,1,1055
1991,15,1,191,4,0,0,1,1212
1992,15,1,192,4,0,0,1,760
1993,15,1,193,8,0,0,1,654
1994,15,1,194,8,1,1,1,1889
1995,15,1,195,8,1,1,1,1567
1996,15,1,196,8,1,1,1,1014
1997,15,1,197,4,0,0,1,938
1998,15,1,198,8,1,1,1,1369
1999,15,1,199,4,1,1,1,1509
2000,15,1,200,4,0,0,1,985
2001,15,1,201,4,0,0,1,1129
2002,15,1,202,4,1,1,1,1210
2003,15,1,203,8,0,0,1,1502
2004,15,1,204,4,1,1,1,1341
2005,15,1,205,4,1,1,1,989
2006,15,1,206,4,0,0,1,969
2007,15,1,207,8,0,0,1,1602
2008,15,1,208,4,0,0,1,1235
2009,15,1,209,4,1,1,1,872
2010,15,1,210,4,0,0,1,1662
2011,15,1,211,4,0,0,1,833
2012,15,1,212,8,1,1,1,1483
2013,15,1,213,4,0,0,1,586
2014,15,1,214,4,1,1,1,574
2015,15,1,215,8,1,1,1,1349
2016,15,1,216,4,1,1,1,1072
2017,15,1,217,4,1,1,1,2157
2018,15,1,218,8,1,1,1,1145
2019,15,1,219,4,0,0,1,1586
2020,15,1,220,4,1,1,1,791
2021,15,1,221,4,1,1,1,1154
2022,15,1,222,4,0,0,1,2206
2023,15,1,223,8,1,1,1,3201
2024,15,1,224,4,0,0,1,551
2025,15,1,225,4,0,0,1,1251
2026,15,1,226,4,0,0,1,1895
2027,15,1,227,4,1,1,1,1033
2028,15,1,228,4,1,1,1,1671
2029,15,1,229,4,1,1,1,1156
2030,15,1,230,8,1,1,1,1183
2031,15,1,231,4,1,1,1,1018
2032,15,1,232,8,1,1,1,1617
2033,15,1,233,8,0,0,1,948
2034,15,1,234,4,0,0,1,541
2035,15,1,235,4,0,0,1,1355
2036,15,1,236,4,1,1,1,973
2037,15,1,237,8,0,0,1,1372
2038,15,1,238,4,1,1,1,1362
2039,15,1,239,8,1,1,1,1141
2040,15,1,240,8,1,1,1,1004
2041,15,1,241,8,1,1,1,1755
2042,15,1,242,8,1,1,1,1143
2043,15,1,243,4,1,1,1,1047
2044,15,1,244,8,1,1,1,2049
2045,15,1,245,4,1,1,1,934
2046,15,1,246,4,0,0,1,1465
2047,15,1,247,4,0,0,1,835
2048,15,1,248,4,0,0,1,1091
2049,15,1,249,4,1,1,1,761
2050,15,1,250,8,1,1,1,1757
2051,15,1,251,4,0,0,1,1385
2052,15,1,252,4,1,1,1,669
2053,15,1,253,8,1,1,1,2203
2054,15,1,254,4,1,1,1,940
2055,15,1,255,4,0,0,1,758
2056,15,1,256,8,1,1,1,1372
2057,15,1,257,8,1,1,1,717
2058,15,1,258,8,0,0,1,2137
2059,15,1,259,4,1,1,1,981
2060,15,1,260,8,1,1,1,870
2061,15,1,261,8,0,0,1,1134
2062,15,1,262,4,0,0,1,655
2063,15,1,263,4,1,1,1,1060
2064,15,1,264,4,1,1,1,1763
2065,15,1,265,8,1,1,1,1211
2066,15,1,266,4,1,1,1,1347
2067,15,1,267,8,0,0,1,935
2068,15,1,268,8,0,0,1,755
2069,15,1,269,8,1,1,1,1214
2070,15,1,270,8,0,0,1,778
2071,15,1,271,8,1,1,1,1361
2072,15,1,272,8,0,0,1,1198
2073,15,1,273,4,0,0,1,1639
2074,15,1,274,4,1,1,1,1122
2075,15,1,275,8,0,0,1,1539
2076,15,1,276,8,1,1,1,802
2077,15,1,277,4,1,1,1,1673
2078,15,1,278,4,1,1,1,1533
2079,15,1,279,8,1,1,1,1134
2080,15,1,280,8,1,1,1,996
2081,15,1,281,8,1,1,1,2331
2082,15,1,282,8,0,0,1,2294
2083,15,1,283,8,0,0,1,539
2084,15,1,284,4,1,1,1,958
2085,15,1,285,8,0,0,1,589
2086,15,1,286,8,1,1,1,992
2087,15,1,287,8,1,1,1,733
2088,15,1,288,4,0,0,1,724
2089,15,1,289,4,0,0,1,771
2090,15,1,290,4,0,0,1,567
2091,15,1,291,4,1,1,1,1416
2092,15,1,292,4,1,1,1,859
2093,15,1,293,4,0,0,1,2047
2094,15,1,294,8,0,0,1,1111
2095,15,1,295,8,0,0,1,1061
2096,15,1,296,4,1,1,1,977
2097,15,1,297,8,1,1,1,960
2098,15,1,298,8,0,0,1,692
2099,15,1,299,8,1,1,1,1637
2100,15,1,300,4,0,0,1,1969
2101,15,1,301,8,0,0,1,1162
2102,15,1,302,4,1,1,1,432
2103,15,1,303,8,0,0,1,606
2104,15,1,304,4,1,1,1,609
2105,15,1,305,8,0,0,1,1147
2106,15,1,306,8,1,1,1,3373
2107,15,1,307,8,0,0,1,1313
2108,15,1,308,4,0,0,1,616
2109,15,1,309,8,1,1,1,538
2110,15,1,310,8,1,1,1,863
2111,15,1,311,4,1,1,1,1628
2112,15,1,312,8,1,1,1,515
2113,15,1,313,4,1,1,1,1253
2114,15,1,314,8,0,0,1,1494
2115,15,1,315,4,1,1,1,1009
2116,15,1,316,4,0,0,1,981
2117,15,1,317,4,0,0,1,809
2118,15,1,318,8,1,1,1,636
2119,15,1,319,8,1,1,1,2237
2120,15,1,320,4,1,1,1,1737
2121,15,1,321,4,0,0,1,970
2122,15,1,322,4,1,1,1,1303
2123,15,1,323,4,1,1,1,2255
2124,15,1,324,4,1,1,1,1575
2125,15,1,325,4,1,1,1,1663
2126,15,1,326,4,1,1,1,475
2127,15,1,327,8,0,0,1,891
2128,15,1,328,4,1,1,1,1055
2129,15,1,329,4,1,1,1,1145
2130,15,1,330,8,1,1,1,1365
2131,15,1,331,4,0,0,1,1155
2132,15,1,332,4,1,1,1,678
2133,15,1,333,8,0,0,1,1218
2134,15,1,334,8,1,1,1,956
2135,15,1,335,8,1,1,1,1898
2136,15,1,336,4,1,1,1,810
2137,15,1,337,4,1,1,1,1965
2138,15,1,338,4,1,1,1,603
2139,15,1,339,8,1,1,1,912
2140,15,1,340,4,0,0,1,2757
2141,15,1,341,4,0,0,1,1191
2142,15,1,342,4,1,1,1,1215
2143,15,1,343,8,1,1,1,1879
2144,15,1,344,4,1,1,1,998
2145,15,1,345,8,0,0,1,634
2146,15,1,346,8,0,0,1,554
2147,15,1,347,8,0,0,1,1306
2148,15,1,348,8,1,1,1,872
2149,15,1,349,8,1,1,1,1056
2150,15,1,350,4,1,1,1,1179
2151,15,1,351,4,0,0,1,804
2152,15,1,352,8,1,1,1,2076
2153,15,1,353,8,0,0,1,1332
2154,15,1,354,4,0,0,1,789
2155,15,1,355,8,0,0,1,858
2156,15,1,356,8,0,0,1,1330
2157,15,1,357,4,0,0,1,1469
2158,15,1,358,4,0,0,1,522
2159,15,1,359,4,1,1,1,544
2160,15,1,360,4,1,1,1,1413
2161,15,1,361,4,0,0,1,567
2162,15,1,362,4,1,1,1,862
2163,15,1,363,8,1,1,1,1283
2164,15,1,364,4,0,0,1,919
2165,15,1,365,4,1,1,1,1445
2166,15,1,366,4,0,0,1,1094
2167,15,1,367,8,0,0,1,802
2168,15,1,368,8,0,0,1,1606
2169,15,1,369,4,0,0,1,827
2170,15,1,370,4,0,0,1,1003
2171,15,1,371,4,0,0,1,650
2172,15,1,372,4,1,1,1,1018
2173,15,1,373,4,0,0,1,1659
2174,15,1,374,4,0,0,1,625
2175,15,1,375,4,1,1,1,524
2176,15,1,376,8,0,0,1,697
2177,15,1,377,8,1,1,1,2400
2178,15,1,378,4,1,1,1,982
2179,15,1,379,8,0,0,1,1080
2180,15,1,380,8,0,0,1,944
2181,15,1,381,4,1,1,1,740
2182,15,1,382,4,0,0,1,754
2183,15,1,383,8,1,1,1,3411
2184,15,1,384,4,0,0,1,2453
2185,15,1,385,8,0,0,1,1859
2186,15,1,386,8,1,1,1,703
2187,15,1,387,8,1,1,1,1712
2188,15,1,388,8,0,0,1,1907
2189,15,1,389,4,0,0,1,928
2190,15,1,390,8,1,1,1,1970
2191,15,1,391,4,0,0,1,989
2192,15,1,392,4,0,0,1,1232
2193,15,1,393,4,0,0,1,1098
2194,15,1,394,4,1,1,1,1053
2195,15,1,395,8,1,1,1,859
2196,15,1,396,8,0,0,1,1805
2197,15,1,397,4,1,1,1,1221
2198,15,1,398,8,1,1,1,1097
2199,15,1,399,4,1,1,1,564
2200,15,1,400,8,0,0,1,1321
2201,15,1,401,4,1,1,1,2799
2202,15,1,402,4,0,0,1,517
2203,15,1,403,8,1,1,1,1942
2204,15,1,404,8,0,0,1,482
2205,15,1,405,4,1,1,1,732
2206,15,1,406,8,1,1,1,563
2207,15,1,407,8,0,0,1,678
2208,15,1,408,4,1,1,1,869
2209,15,1,409,4,0,0,1,811
2210,15,1,410,8,0,0,1,560
2211,15,1,411,4,1,1,1,2519
2212,15,1,412,8,1,1,1,1773
2213,15,1,413,4,1,1,1,733
2214,15,1,414,8,1,1,1,757
2215,15,1,415,8,0,0,1,1900
2216,15,1,416,8,0,0,1,2021
2217,15,1,417,4,0,0,1,587
2218,15,1,418,4,1,1,1,570
2219,15,1,419,4,1,1,1,1422
2220,15,1,420,8,0,0,1,1563
2221,15,1,421,8,0,0,1,908
2222,15,1,422,4,1,1,1,835
2223,15,1,423,8,1,1,1,1168
2224,15,1,424,4,0,0,1,600
2225,15,1,425,8,0,0,1,622
2226,15,1,426,4,1,1,1,1298
2227,15,1,427,8,1,1,1,714
2228,15,1,428,8,1,1,1,1326
2229,15,1,429,4,1,1,1,616
2230,15,1,430,8,0,0,1,1163
2231,15,1,431,4,0,0,1,1350
2232,15,1,432,4,1,1,1,946
2233,15,1,433,8,1,1,1,2237
2234,15,1,434,8,1,1,1,953
2235,15,1,435,8,1,1,1,1506
2236,15,1,436,4,0,0,1,524
2237,15,1,437,4,1,1,1,705
2238,15,1,438,4,0,0,1,616
2239,15,1,439,8,1,1,1,2655
2240,15,1,440,8,1,1,1,726
2241,15,1,441,4,0,0,1,608
2242,15,1,442,4,0,0,1,908
2243,15,1,443,8,0,0,1,1878
2244,15,1,444,8,1,1,1,736
2245,15,1,445,4,0,0,1,826
2246,15,1,446,4,0,0,1,2164
2247,15,1,447,4,1,1,1,2494
2248,15,1,448,4,1,1,1,1543
2249,15,1,449,4,0,0,1,2121
2250,15,1,450,4,1,1,1,1776
2251,15,1,451,8,0,0,1,1675
2252,15,1,452,8,1,1,1,1131
2253,15,1,453,4,1,1,1,659
2254,15,1,454,8,0,0,1,860
2255,15,1,455,4,0,0,1,1823
2256,15,1,456,4,0,0,1,757
2257,15,1,457,4,0,0,1,588
2258,15,1,458,8,0,0,1,1628
2259,15,1,459,8,0,0,1,2111
2260,15,1,460,8,1,1,1,1311
2261,15,1,461,8,0,0,1,1063
2262,15,1,462,8,1,1,1,1564
2263,15,1,463,8,1,1,1,1725
2264,15,1,464,4,1,1,1,731
2265,15,1,465,4,0,0,1,1415
2266,15,1,466,8,1,1,1,1472
2267,15,1,467,4,0,0,1,1592
2268,15,1,468,8,1,1,1,1529
2269,15,1,469,8,1,1,1,1479
2270,15,1,470,8,1,1,1,672
2271,15,1,471,4,0,0,1,1318
2272,15,1,472,8,0,0,1,730
2273,15,1,473,8,0,0,1,1600
2274,15,1,474,8,1,1,1,1342
2275,15,1,475,8,0,0,1,1110
2276,15,1,476,4,0,0,1,1096
2277,15,1,477,8,0,0,1,1454
2278,15,1,478,4,1,1,1,1100
2279,15,1,479,4,1,1,1,771
2280,15,1,480,8,1,1,1,1388
2281,15,1,481,4,1,1,1,569
2282,15,1,482,8,0,0,1,1035
2283,15,1,483,4,1,1,1,598
2284,15,1,484,8,0,0,1,1295
2285,15,1,485,8,0,0,1,1424
2286,15,1,486,8,0,0,1,935
2287,15,1,487,8,1,1,1,1114
2288,15,1,488,4,0,0,1,684
2289,15,1,489,4,1,1,1,1630
2290,15,1,490,4,1,1,1,908
2291,15,1,491,4,0,0,1,1242
2292,15,1,492,8,1,1,1,682
2293,15,1,493,8,0,0,1,1651
2294,15,1,494,8,1,1,1,875
2295,15,1,495,4,1,1,1,892
2296,15,1,496,4,0,0,1,628
2297,15,1,497,4,0,0,1,1510
2298,15,1,498,8,1,1,1,786
2299,15,1,499,4,1,1,1,939
2300,15,1,500,8,1,1,1,868
2301,15,1,501,4,1,1,1,1360
2302,15,1,502,4,0,0,1,2440
2303,15,1,503,8,0,0,1,2947
2304,15,1,504,8,1,1,1,1568
2305,15,1,505,8,0,0,1,1555
2306,15,1,506,8,1,1,1,1486
2307,15,1,507,4,1,1,1,1291
2308,15,1,508,4,1,1,1,1300
2309,15,1,509,4,0,0,1,671
2310,15,1,510,4,1,1,1,1400
2311,15,1,511,8,1,1,1,1010
2312,15,1,512,8,1,1,1,1373
2313,15,1,513,8,1,1,1,988
2314,15,1,514,8,0,0,1,2401
2315,15,1,515,8,1,1,1,963
2316,15,1,516,4,1,1,1,700
2317,15,1,517,8,0,0,1,601
2318,15,1,518,4,0,0,1,959
2319,15,1,519,4,0,0,1,1070
2320,15,1,520,8,1,1,1,1105
2321,15,1,521,4,0,0,1,1196
2322,15,1,522,8,1,1,1,704
2323,15,1,523,8,0,0,1,1727
2324,15,1,524,8,0,0,1,1547
2325,15,1,525,8,0,0,1,2590
2326,15,1,526,4,1,1,1,1641
2327,15,1,527,4,0,0,1,1332
2328,15,1,528,4,0,0,1,1104
2329,15,1,529,4,0,0,1,1072
2330,15,1,530,8,1,1,1,1381
2331,15,1,531,4,1,1,1,493
2332,15,1,532,8,0,0,1,665
2333,15,1,533,4,0,0,1,895
2334,15,1,534,8,1,1,1,2587
2335,15,1,535,4,1,1,1,1280
2336,15,1,536,4,1,1,1,769
2337,15,1,537,8,0,0,1,1109
2338,15,1,538,4,1,1,1,581
2339,15,1,539,4,1,1,1,1113
2340,15,1,540,8,0,0,1,726
2341,15,1,541,8,1,1,1,1064
2342,15,1,542,8,1,1,1,1173
2343,15,1,543,4,1,1,1,1824
2344,15,1,544,8,0,0,1,1719
2345,15,1,545,8,1,1,1,535
2346,15,1,546,8,1,1,1,751
2347,15,1,547,4,0,0,1,1001
2348,15,1,548,4,1,1,1,810
2349,15,1,549,4,1,1,1,731
2350,15,1,550,8,0,0,1,1779
2351,15,1,551,4,0,0,1,1379
2352,15,1,552,4,0,0,1,1015
2353,15,1,553,4,0,0,1,1066
2354,15,1,554,4,1,1,1,1094
2355,15,1,555,8,0,0,1,1476
2356,15,1,556,4,0,0,1,828
2357,15,1,557,8,0,0,1,1330
2358,15,1,558,8,1,1,1,1519
2359,15,1,559,8,1,1,1,929
2360,15,1,560,8,0,0,1,1947
2361,15,1,561,4,0,0,1,1302
2362,15,1,562,4,0,0,1,550
2363,15,1,563,8,1,1,1,1536
2364,15,1,564,4,0,0,1,1051
2365,15,1,565,8,0,0,1,1559
2366,15,1,566,8,0,0,1,930
2367,15,1,567,4,0,0,1,553
2368,15,1,568,8,0,0,1,1822
2369,15,1,569,8,1,1,1,1366
2370,15,1,570,4,0,0,1,576
2371,15,1,571,8,0,0,1,1318
2372,15,1,572,8,1,1,1,1584
2373,15,1,573,4,1,1,1,558
2374,15,1,574,8,1,1,1,580
2375,15,1,575,4,0,0,1,1333
2376,15,1,576,8,0,0,1,1272
2377,15,1,577,4,0,0,1,892
2378,15,1,578,4,1,1,1,807
2379,15,1,579,8,1,1,1,706
2380,15,1,580,4,0,0,1,846
2381,15,1,581,8,1,1,1,1446
2382,15,1,582,4,1,1,1,1656
2383,15,1,583,8,1,1,1,2056
2384,15,1,584,8,0,0,1,2569
2385,15,1,585,4,1,1,1,772
2386,15,1,586,8,0,0,1,1423
2387,15,1,587,4,1,1,1,1064
2388,15,1,588,8,1,1,1,1171
2389,15,1,589,8,1,1,1,1311
2390,15,1,590,8,1,1,1,748
2391,15,1,591,8,0,0,1,1474
2392,15,1,592,4,1,1,1,749
2393,15,1,593,4,0,0,1,1371
2394,15,1,594,4,0,0,1,532
2395,15,1,595,4,0,0,1,1131
2396,15,1,596,4,0,0,1,575
2397,15,1,597,8,0,0,1,1689
2398,15,1,598,4,0,0,1,902
2399,15,1,599,4,1,1,1,1658
2400,15,1,600,8,1,1,1,1256
2401,16,1,1,4,0,3,0,4991
2402,16,1,2,4,0,0,1,1853
2403,16,1,3,8,0,0,1,2973
2404,16,1,4,4,1,1,1,924
2405,16,1,5,8,0,0,1,2129
2406,16,1,6,4,0,0,1,958
2407,16,1,7,8,1,1,1,768
2408,16,1,8,4,1,1,1,1115
2409,16,1,9,4,0,0,1,748
2410,16,1,10,8,1,1,1,3082
2411,16,1,11,4,0,0,1,1303
2412,16,1,12,4,0,0,1,646
2413,16,1,13,4,1,1,1,740
2414,16,1,14,4,0,0,1,2053
2415,16,1,15,4,0,0,1,892
2416,16,1,16,8,1,1,1,743
2417,16,1,17,8,1,1,1,475
2418,16,1,18,4,1,1,1,1212
2419,16,1,19,4,0,0,1,719
2420,16,1,20,8,1,1,1,799
2421,16,1,21,4,1,1,1,908
2422,16,1,22,8,0,0,1,1036
2423,16,1,23,8,1,1,1,656
2424,16,1,24,8,0,0,1,848
2425,16,1,25,8,0,0,1,885
2426,16,1,26,4,1,1,1,1760
2427,16,1,27,4,1,1,1,737
2428,16,1,28,4,0,0,1,1127
2429,16,1,29,4,0,0,1,725
2430,16,1,30,4,0,0,1,489
2431,16,1,31,4,1,1,1,524
2432,16,1,32,8,0,0,1,1473
2433,16,1,33,8,1,1,1,753
2434,16,1,34,8,1,1,1,1462
2435,16,1,35,4,1,1,1,1129
2436,16,1,36,4,1,1,1,667
2437,16,1,37,4,0,0,1,1518
2438,16,1,38,8,0,0,1,488
2439,16,1,39,8,1,1,1,1143
2440,16,1,40,8,0,0,1,1771
2441,16,1,41,4,0,0,1,681
2442,16,1,42,8,0,0,1,807
2443,16,1,43,8,1,1,1,1690
2444,16,1,44,8,1,1,1,578
2445,16,1,45,4,0,0,1,871
2446,16,1,46,8,0,0,1,813
2447,16,1,47,8,0,0,1,1754
2448,16,1,48,8,0,0,1,1123
2449,16,1,49,8,1,1,1,875
2450,16,1,50,8,0,0,1,749
2451,16,1,51,8,1,1,1,992
2452,16,1,52,4,0,0,1,694
2453,16,1,53,8,1,1,1,879
2454,16,1,54,4,0,0,1,1065
2455,16,1,55,8,1,1,1,1583
2456,16,1,56,8,0,0,1,1563
2457,16,1,57,4,1,1,1,987
2458,16,1,58,8,0,0,1,702
2459,16,1,59,8,0,0,1,437
2460,16,1,60,8,0,0,1,747
2461,16,1,61,4,1,1,1,1106
2462,16,1,62,8,1,1,1,728
2463,16,1,63,8,0,0,1,946
2464,16,1,64,8,1,1,1,949
2465,16,1,65,8,0,0,1,1246
2466,16,1,66,4,1,1,1,436
2467,16,1,67,4,0,0,1,801
2468,16,1,68,8,1,1,1,976
2469,16,1,69,8,1,1,1,617
2470,16,1,70,4,1,1,1,725
2471,16,1,71,4,1,1,1,661
2472,16,1,72,8,1,1,1,443
2473,16,1,73,8,0,0,1,569
2474,16,1,74,8,0,0,1,826
2475,16,1,75,4,1,1,1,914
2476,16,1,76,4,0,0,1,604
2477,16,1,77,8,0,0,1,903
2478,16,1,78,4,0,0,1,482
2479,16,1,79,4,0,0,1,438
2480,16,1,80,4,1,1,1,693
2481,16,1,81,4,0,0,1,1488
2482,16,1,82,4,1,1,1,670
2483,16,1,83,4,1,1,1,528
2484,16,1,84,8,1,1,1,1695
2485,16,1,85,4,1,1,1,635
2486,16,1,86,8,1,1,1,536
2487,16,1,87,8,0,0,1,1385
2488,16,1,88,4,1,1,1,601
2489,16,1,89,4,1,1,1,1021
2490,16,1,90,4,1,1,1,1207
2491,16,1,91,4,1,1,1,681
2492,16,1,92,4,0,0,1,1056
2493,16,1,93,4,1,1,1,633
2494,16,1,94,8,0,0,1,472
2495,16,1,95,8,1,1,1,571
2496,16,1,96,8,1,1,1,884
2497,16,1,97,8,1,1,1,1184
2498,16,1,98,8,0,0,1,509
2499,16,1,99,4,1,1,1,738
2500,16,1,100,8,1,1,1,1824
2501,16,1,101,4,1,1,1,539
2502,16,1,102,4,0,0,1,780
2503,16,1,103,8,1,1,1,602
2504,16,1,104,4,0,0,1,615
2505,16,1,105,8,0,0,1,714
2506,16,1,106,4,0,0,1,786
2507,16,1,107,8,0,0,1,1122
2508,16,1,108,8,0,0,1,626
2509,16,1,109,4,0,0,1,771
2510,16,1,110,8,1,1,1,1016
2511,16,1,111,8,1,1,1,511
2512,16,1,112,4,1,1,1,1121
2513,16,1,113,8,0,0,1,1320
2514,16,1,114,8,0,0,1,620
2515,16,1,115,4,1,1,1,640
2516,16,1,116,8,0,0,1,741
2517,16,1,117,8,1,1,1,980
2518,16,1,118,4,1,1,1,544
2519,16,1,119,8,1,1,1,563
2520,16,1,120,4,1,1,0,953
2521,16,1,121,4,0,0,1,1149
2522,16,1,122,8,1,1,1,576
2523,16,1,123,8,0,0,1,548
2524,16,1,124,4,1,1,1,492
2525,16,1,125,8,0,0,1,756
2526,16,1,126,8,0,0,1,1149
2527,16,1,127,8,1,1,1,746
2528,16,1,128,8,1,1,1,592
2529,16,1,129,4,1,1,1,627
2530,16,1,130,4,1,1,1,566
2531,16,1,131,8,1,1,1,569
2532,16,1,132,4,0,0,1,624
2533,16,1,133,8,1,1,1,515
2534,16,1,134,4,1,1,1,485
2535,16,1,135,4,1,1,1,703
2536,16,1,136,8,1,1,1,698
2537,16,1,137,8,1,1,1,893
2538,16,1,138,8,1,1,1,838
2539,16,1,139,4,1,1,1,1232
2540,16,1,140,8,1,1,1,2006
2541,16,1,141,8,0,0,1,523
2542,16,1,142,4,0,0,1,795
2543,16,1,143,8,1,1,1,739
2544,16,1,144,8,0,0,1,1808
2545,16,1,145,4,1,1,1,533
2546,16,1,146,4,0,0,1,810
2547,16,1,147,8,0,0,1,696
2548,16,1,148,8,0,0,1,539
2549,16,1,149,8,1,1,1,741
2550,16,1,150,4,0,0,1,1086
2551,16,1,151,4,0,0,1,550
2552,16,1,152,4,0,0,1,598
2553,16,1,153,8,1,1,1,614
2554,16,1,154,8,1,1,1,705
2555,16,1,155,4,0,0,1,595
2556,16,1,156,4,1,1,1,515
2557,16,1,157,4,1,1,0,475
2558,16,1,158,4,0,0,1,693
2559,16,1,159,4,0,0,1,474
2560,16,1,160,4,1,1,1,1055
2561,16,1,161,4,1,1,1,1333
2562,16,1,162,4,0,0,1,860
2563,16,1,163,4,0,0,1,773
2564,16,1,164,8,0,0,1,771
2565,16,1,165,8,0,0,1,620
2566,16,1,166,8,1,1,1,563
2567,16,1,167,8,0,0,1,620
2568,16,1,168,4,0,0,1,680
2569,16,1,169,4,0,0,1,715
2570,16,1,170,8,1,1,1,1453
2571,16,1,171,4,0,0,1,539
2572,16,1,172,4,0,0,1,638
2573,16,1,173,8,0,0,1,582
2574,16,1,174,8,0,0,1,1751
2575,16,1,175,8,1,1,1,1268
2576,16,1,176,4,1,1,1,788
2577,16,1,177,8,1,1,1,839
2578,16,1,178,8,1,1,1,1652
2579,16,1,179,4,1,1,1,694
2580,16,1,180,4,0,0,1,829
2581,16,1,181,8,0,0,1,541
2582,16,1,182,8,0,0,1,663
2583,16,1,183,4,0,0,1,429
2584,16,1,184,4,1,1,1,1522
2585,16,1,185,4,1,1,1,743
2586,16,1,186,8,0,0,1,1213
2587,16,1,187,4,0,0,1,1034
2588,16,1,188,8,0,0,1,592
2589,16,1,189,4,0,0,1,620
2590,16,1,190,8,0,0,1,1075
2591,16,1,191,4,1,1,1,457
2592,16,1,192,8,1,1,1,2296
2593,16,1,193,4,1,1,1,649
2594,16,1,194,8,1,1,1,1556
2595,16,1,195,8,1,1,1,1707
2596,16,1,196,4,0,0,1,650
2597,16,1,197,8,0,0,1,779
2598,16,1,198,4,1,1,1,963
2599,16,1,199,4,0,0,1,568
2600,16,1,200,4,1,1,1,447
2601,16,1,201,4,1,1,1,961
2602,16,1,202,4,0,0,1,480
2603,16,1,203,8,0,0,1,1261
2604,16,1,204,8,0,0,1,900
2605,16,1,205,4,0,0,1,551
2606,16,1,206,4,1,1,1,946
2607,16,1,207,8,1,1,1,898
2608,16,1,208,8,1,1,1,699
2609,16,1,209,8,0,0,1,450
2610,16,1,210,8,1,1,1,555
2611,16,1,211,4,1,1,1,691
2612,16,1,212,4,0,0,1,1206
2613,16,1,213,8,1,1,1,721
2614,16,1,214,4,0,0,1,630
2615,16,1,215,8,1,1,1,543
2616,16,1,216,4,0,0,1,729
2617,16,1,217,8,0,0,1,493
2618,16,1,218,4,0,0,1,589
2619,16,1,219,8,0,0,1,947
2620,16,1,220,8,0,0,1,1157
2621,16,1,221,4,1,1,1,386
2622,16,1,222,4,1,1,1,777
2623,16,1,223,8,0,0,1,442
2624,16,1,224,8,0,0,1,1486
2625,16,1,225,4,1,1,1,585
2626,16,1,226,4,1,1,1,460
2627,16,1,227,8,0,0,1,815
2628,16,1,228,8,0,0,1,748
2629,16,1,229,4,0,0,1,648
2630,16,1,230,4,1,1,1,860
2631,16,1,231,4,0,0,1,579
2632,16,1,232,8,0,0,1,918
2633,16,1,233,4,0,0,1,669
2634,16,1,234,8,1,1,1,932
2635,16,1,235,8,1,1,1,959
2636,16,1,236,8,0,0,1,1099
2637,16,1,237,8,0,0,1,1821
2638,16,1,238,4,0,0,1,535
2639,16,1,239,8,1,1,1,1125
2640,16,1,240,8,1,1,1,514
2641,16,1,241,8,1,1,1,1777
2642,16,1,242,4,1,1,1,467
2643,16,1,243,8,0,0,1,451
2644,16,1,244,8,0,0,1,1174
2645,16,1,245,8,1,1,1,409
2646,16,1,246,4,1,1,1,611
2647,16,1,247,8,1,1,1,567
2648,16,1,248,8,0,0,1,1018
2649,16,1,249,4,1,1,1,821
2650,16,1,250,8,0,0,1,2162
2651,16,1,251,4,1,1,1,578
2652,16,1,252,4,0,0,1,982
2653,16,1,253,8,1,1,1,1123
2654,16,1,254,8,1,1,1,690
2655,16,1,255,8,1,1,1,1484
2656,16,1,256,8,0,0,1,1201
2657,16,1,257,4,1,1,1,704
2658,16,1,258,8,1,1,1,1181
2659,16,1,259,8,0,0,1,684
2660,16,1,260,4,0,0,1,466
2661,16,1,261,4,1,1,1,497
2662,16,1,262,8,1,1,1,390
2663,16,1,263,8,1,1,1,683
2664,16,1,264,8,0,0,1,958
2665,16,1,265,8,1,1,1,1196
2666,16,1,266,4,0,0,1,652
2667,16,1,267,8,0,0,1,601
2668,16,1,268,4,1,1,1,777
2669,16,1,269,4,1,1,1,733
2670,16,1,270,8,0,0,1,1689
2671,16,1,271,8,0,0,1,562
2672,16,1,272,4,1,1,1,742
2673,16,1,273,8,1,1,1,1660
2674,16,1,274,4,1,1,1,594
2675,16,1,275,4,1,1,1,861
2676,16,1,276,8,1,1,1,610
2677,16,1,277,8,0,0,1,1831
2678,16,1,278,4,0,0,1,409
2679,16,1,279,8,1,1,1,2684
2680,16,1,280,8,1,1,1,980
2681,16,1,281,8,0,0,1,536
2682,16,1,282,8,0,0,1,1037
2683,16,1,283,8,0,0,1,977
2684,16,1,284,8,0,0,1,1673
2685,16,1,285,4,0,0,1,576
2686,16,1,286,8,0,0,1,955
2687,16,1,287,8,1,1,1,935
2688,16,1,288,4,0,0,1,464
2689,16,1,289,4,0,0,1,843
2690,16,1,290,4,1,1,1,864
2691,16,1,291,4,0,0,1,739
2692,16,1,292,8,1,1,1,1802
2693,16,1,293,4,0,0,1,842
2694,16,1,294,8,1,1,1,1924
2695,16,1,295,8,0,0,1,1425
2696,16,1,296,4,1,1,1,536
2697,16,1,297,8,0,0,1,1190
2698,16,1,298,8,0,0,1,704
2699,16,1,299,8,1,1,1,933
2700,16,1,300,8,0,0,1,650
2701,16,1,301,4,0,0,1,713
2702,16,1,302,4,1,1,1,807
2703,16,1,303,4,1,1,1,719
2704,16,1,304,8,1,1,1,569
2705,16,1,305,8,1,1,1,361
2706,16,1,306,4,0,0,1,420
2707,16,1,307,8,1,1,1,813
2708,16,1,308,8,1,1,1,954
2709,16,1,309,8,1,1,1,1424
2710,16,1,310,4,0,0,1,667
2711,16,1,311,4,1,1,1,432
2712,16,1,312,8,1,1,1,2125
2713,16,1,313,4,1,1,1,975
2714,16,1,314,8,0,0,1,670
2715,16,1,315,4,0,0,1,693
2716,16,1,316,4,0,0,1,1017
2717,16,1,317,8,0,0,1,1575
2718,16,1,318,8,0,0,1,2165
2719,16,1,319,4,1,1,1,978
2720,16,1,320,8,0,0,1,872
2721,16,1,321,4,0,0,1,628
2722,16,1,322,4,1,1,1,958
2723,16,1,323,4,0,0,1,621
2724,16,1,324,8,1,1,1,739
2725,16,1,325,8,0,0,1,687
2726,16,1,326,8,0,0,1,1072
2727,16,1,327,4,1,1,1,480
2728,16,1,328,4,1,1,1,584
2729,16,1,329,4,0,0,1,498
2730,16,1,330,8,1,1,1,1288
2731,16,1,331,8,0,0,1,788
2732,16,1,332,4,1,1,1,825
2733,16,1,333,4,1,1,1,613
2734,16,1,334,4,0,0,1,761
2735,16,1,335,4,0,0,1,692
2736,16,1,336,8,0,0,1,667
2737,16,1,337,8,1,1,1,1172
2738,16,1,338,4,0,0,1,532
2739,16,1,339,4,0,0,1,770
2740,16,1,340,8,0,0,1,1292
2741,16,1,341,4,0,0,1,1062
2742,16,1,342,4,1,1,1,569
2743,16,1,343,4,0,0,1,526
2744,16,1,344,8,1,1,1,883
2745,16,1,345,4,1,1,1,849
2746,16,1,346,4,0,0,1,481
2747,16,1,347,8,0,0,1,615
2748,16,1,348,8,1,1,1,866
2749,16,1,349,4,0,0,1,545
2750,16,1,350,4,0,0,1,689
2751,16,1,351,4,0,0,1,527
2752,16,1,352,4,0,0,1,600
2753,16,1,353,8,1,1,1,1018
2754,16,1,354,8,0,0,1,522
2755,16,1,355,4,1,1,1,605
2756,16,1,356,4,0,0,1,952
2757,16,1,357,8,0,0,1,441
2758,16,1,358,8,0,0,1,693
2759,16,1,359,8,0,0,1,1130
2760,16,1,360,8,1,1,1,574
2761,16,1,361,4,0,0,1,881
2762,16,1,362,4,1,1,1,662
2763,16,1,363,8,1,1,1,1107
2764,16,1,364,8,1,1,1,721
2765,16,1,365,4,1,1,1,989
2766,16,1,366,4,1,1,1,786
2767,16,1,367,4,0,0,1,603
2768,16,1,368,4,0,0,1,591
2769,16,1,369,8,0,0,1,529
2770,16,1,370,4,0,0,1,718
2771,16,1,371,8,1,1,1,1230
2772,16,1,372,8,0,0,1,1843
2773,16,1,373,4,0,0,1,443
2774,16,1,374,8,0,0,1,1302
2775,16,1,375,8,0,0,1,1220
2776,16,1,376,4,1,1,1,574
2777,16,1,377,4,0,0,1,908
2778,16,1,378,4,0,0,1,598
2779,16,1,379,4,0,0,1,743
2780,16,1,380,4,1,1,1,472
2781,16,1,381,8,0,0,1,472
2782,16,1,382,4,1,1,1,701
2783,16,1,383,8,0,0,1,698
2784,16,1,384,8,0,0,1,912
2785,16,1,385,4,1,1,1,381
2786,16,1,386,4,0,0,1,572
2787,16,1,387,8,1,1,1,1540
2788,16,1,388,8,1,1,1,979
2789,16,1,389,4,0,0,1,459
2790,16,1,390,8,0,0,1,672
2791,16,1,391,4,0,0,1,862
2792,16,1,392,8,1,1,1,506
2793,16,1,393,8,0,0,1,529
2794,16,1,394,4,0,0,1,567
2795,16,1,395,8,0,0,1,935
2796,16,1,396,4,1,1,1,1183
2797,16,1,397,8,0,0,1,635
2798,16,1,398,8,0,0,1,668
2799,16,1,399,8,0,0,1,762
2800,16,1,400,8,1,1,1,594
2801,16,1,401,8,1,1,1,572
2802,16,1,402,8,1,1,1,587
2803,16,1,403,4,1,1,1,755
2804,16,1,404,4,1,1,1,449
2805,16,1,405,4,1,1,1,519
2806,16,1,406,4,0,0,1,669
2807,16,1,407,8,1,1,1,830
2808,16,1,408,8,1,1,1,627
2809,16,1,409,8,0,0,1,1224
2810,16,1,410,4,0,0,1,822
2811,16,1,411,4,1,1,1,476
2812,16,1,412,8,1,1,1,564
2813,16,1,413,4,0,0,1,780
2814,16,1,414,8,0,0,1,593
2815,16,1,415,4,0,0,1,504
2816,16,1,416,4,0,0,1,487
2817,16,1,417,4,1,1,1,1034
2818,16,1,418,4,1,1,1,544
2819,16,1,419,8,0,0,1,541
2820,16,1,420,4,1,1,1,489
2821,16,1,421,8,1,1,1,813
2822,16,1,422,4,1,1,1,526
2823,16,1,423,8,0,0,1,1589
2824,16,1,424,4,1,1,1,885
2825,16,1,425,8,0,0,1,1189
2826,16,1,426,4,1,1,1,797
2827,16,1,427,8,1,1,1,487
2828,16,1,428,8,1,1,1,532
2829,16,1,429,4,1,1,1,432
2830,16,1,430,4,0,0,1,560
2831,16,1,431,8,0,0,1,493
2832,16,1,432,8,0,0,1,1092
2833,16,1,433,8,1,1,1,990
2834,16,1,434,8,0,0,1,546
2835,16,1,435,8,0,0,1,1236
2836,16,1,436,8,1,1,1,1982
2837,16,1,437,8,0,0,1,730
2838,16,1,438,8,0,0,1,442
2839,16,1,439,8,1,1,1,525
2840,16,1,440,4,1,1,1,399
2841,16,1,441,4,0,0,1,853
2842,16,1,442,4,0,0,1,590
2843,16,1,443,8,0,0,1,654
2844,16,1,444,8,0,0,1,576
2845,16,1,445,8,1,1,1,472
2846,16,1,446,8,0,0,1,451
2847,16,1,447,4,1,1,1,429
2848,16,1,448,8,0,0,1,483
2849,16,1,449,4,1,1,1,1370
2850,16,1,450,8,0,0,1,500
2851,16,1,451,4,1,1,1,604
2852,16,1,452,8,1,1,1,606
2853,16,1,453,8,0,0,1,723
2854,16,1,454,8,0,0,1,500
2855,16,1,455,8,1,1,1,1246
2856,16,1,456,8,1,1,1,1036
2857,16,1,457,4,0,0,1,523
2858,16,1,458,8,0,0,1,1254
2859,16,1,459,4,0,0,1,931
2860,16,1,460,4,0,0,1,526
2861,16,1,461,8,0,0,1,1795
2862,16,1,462,8,0,0,1,646
2863,16,1,463,8,1,1,1,731
2864,16,1,464,4,1,1,1,1101
2865,16,1,465,8,0,0,1,546
2866,16,1,466,4,0,0,1,496
2867,16,1,467,4,1,1,1,762
2868,16,1,468,8,1,1,1,746
2869,16,1,469,8,1,1,1,1223
2870,16,1,470,4,1,1,1,552
2871,16,1,471,8,0,0,1,559
2872,16,1,472,4,1,1,1,388
2873,16,1,473,4,1,1,0,424
2874,16,1,474,8,0,0,1,589
2875,16,1,475,8,1,1,1,607
2876,16,1,476,4,1,1,1,533
2877,16,1,477,4,0,0,1,1313
2878,16,1,478,4,1,1,1,396
2879,16,1,479,4,0,0,1,448
2880,16,1,480,8,0,0,1,358
2881,16,1,481,8,1,1,1,1220
2882,16,1,482,4,1,1,1,595
2883,16,1,483,4,0,0,1,621
2884,16,1,484,4,0,0,1,362
2885,16,1,485,4,0,0,1,1137
2886,16,1,486,8,1,1,1,512
2887,16,1,487,4,1,1,1,731
2888,16,1,488,8,1,1,1,862
2889,16,1,489,4,0,0,1,582
2890,16,1,490,8,1,1,1,1131
2891,16,1,491,4,0,0,1,1086
2892,16,1,492,8,0,0,1,1116
2893,16,1,493,4,0,0,1,993
2894,16,1,494,8,0,0,1,956
2895,16,1,495,8,1,1,1,1572
2896,16,1,496,4,0,0,1,500
2897,16,1,497,8,1,1,1,594
2898,16,1,498,8,0,0,1,1161
2899,16,1,499,8,1,1,1,496
2900,16,1,500,4,0,0,1,463
2901,16,1,501,8,0,0,1,1577
2902,16,1,502,4,0,0,1,628
2903,16,1,503,4,0,0,1,444
2904,16,1,504,8,0,0,1,485
2905,16,1,505,8,1,1,1,530
2906,16,1,506,8,1,1,1,1637
2907,16,1,507,4,0,0,1,1160
2908,16,1,508,8,0,0,1,903
2909,16,1,509,4,1,1,1,447
2910,16,1,510,4,1,1,1,820
2911,16,1,511,4,1,1,1,611
2912,16,1,512,4,0,0,1,428
2913,16,1,513,4,1,1,1,825
2914,16,1,514,8,0,0,1,1012
2915,16,1,515,4,1,1,1,391
2916,16,1,516,4,0,0,1,1086
2917,16,1,517,4,0,0,1,757
2918,16,1,518,4,0,0,1,572
2919,16,1,519,8,1,1,1,600
2920,16,1,520,4,1,1,1,432
2921,16,1,521,4,0,0,1,867
2922,16,1,522,8,1,1,1,409
2923,16,1,523,4,0,0,1,410
2924,16,1,524,4,1,1,1,392
2925,16,1,525,4,0,0,1,1262
2926,16,1,526,8,1,1,1,854
2927,16,1,527,4,1,1,1,546
2928,16,1,528,4,0,0,1,764
2929,16,1,529,8,1,1,1,446
2930,16,1,530,4,1,1,1,511
2931,16,1,531,8,0,0,1,971
2932,16,1,532,8,0,0,1,1861
2933,16,1,533,4,0,0,1,555
2934,16,1,534,4,0,0,1,1120
2935,16,1,535,8,1,1,1,1042
2936,16,1,536,4,1,1,1,1117
2937,16,1,537,4,0,0,1,411
2938,16,1,538,8,1,1,1,830
2939,16,1,539,4,0,0,1,613
2940,16,1,540,4,1,1,1,883
2941,16,1,541,4,1,1,1,1130
2942,16,1,542,4,1,1,1,758
2943,16,1,543,4,1,1,1,544
2944,16,1,544,4,1,1,1,1702
2945,16,1,545,4,1,1,1,577
2946,16,1,546,8,0,0,1,1221
2947,16,1,547,4,0,0,1,425
2948,16,1,548,4,1,1,1,531
2949,16,1,549,4,0,0,1,448
2950,16,1,550,8,1,1,1,518
2951,16,1,551,4,1,1,1,1306
2952,16,1,552,8,1,1,1,748
2953,16,1,553,4,1,1,1,694
2954,16,1,554,8,1,1,1,1144
2955,16,1,555,8,1,1,1,1291
2956,16,1,556,4,1,1,1,1127
2957,16,1,557,8,1,1,1,1100
2958,16,1,558,4,1,1,1,754
2959,16,1,559,4,0,0,1,392
2960,16,1,560,8,1,1,1,722
2961,16,1,561,8,1,1,1,1655
2962,16,1,562,4,1,1,1,550
2963,16,1,563,8,1,1,1,570
2964,16,1,564,8,0,0,1,1592
2965,16,1,565,4,1,1,1,1154
2966,16,1,566,4,0,0,1,538
2967,16,1,567,8,1,1,1,802
2968,16,1,568,4,0,0,1,542
2969,16,1,569,8,0,0,1,720
2970,16,1,570,4,0,0,1,1293
2971,16,1,571,4,1,1,1,484
2972,16,1,572,4,1,1,1,427
2973,16,1,573,4,0,0,1,368
2974,16,1,574,4,1,1,1,599
2975,16,1,575,4,0,0,1,391
2976,16,1,576,4,0,0,1,650
2977,16,1,577,4,1,1,1,613
2978,16,1,578,4,0,0,1,502
2979,16,1,579,8,1,1,1,713
2980,16,1,580,8,1,1,1,741
2981,16,1,581,4,0,0,1,645
2982,16,1,582,8,0,0,1,931
2983,16,1,583,4,1,1,1,697
2984,16,1,584,8,1,1,1,683
2985,16,1,585,8,1,1,1,1378
2986,16,1,586,4,0,0,1,1180
2987,16,1,587,4,1,1,1,596
2988,16,1,588,4,0,0,1,437
2989,16,1,589,4,1,1,1,421
2990,16,1,590,4,1,1,1,752
2991,16,1,591,4,1,1,1,857
2992,16,1,592,8,1,1,1,1121
2993,16,1,593,8,0,0,1,901
2994,16,1,594,4,1,1,1,461
2995,16,1,595,8,0,0,1,970
2996,16,1,596,8,0,0,1,1693
2997,16,1,597,8,1,1,1,1549
2998,16,1,598,8,1,1,1,536
2999,16,1,599,8,1,1,1,1294
3000,16,1,600,4,1,1,1,478
3001,17,1,1,8,1,3,0,4990
3002,17,1,2,8,0,0,1,1858
3003,17,1,3,8,1,1,1,2303
3004,17,1,4,8,0,0,1,1904
3005,17,1,5,8,0,0,1,949
3006,17,1,6,4,1,1,1,1949
3007,17,1,7,8,1,1,1,2602
3008,17,1,8,4,0,0,1,1290
3009,17,1,9,4,0,0,1,1194
3010,17,1,10,4,1,1,1,1219
3011,17,1,11,4,1,1,1,1219
3012,17,1,12,4,1,1,1,995
3013,17,1,13,8,0,0,1,748
3014,17,1,14,8,1,1,1,1159
3015,17,1,15,4,0,0,1,759
3016,17,1,16,4,0,0,1,1597
3017,17,1,17,8,0,0,1,1407
3018,17,1,18,8,0,0,1,1044
3019,17,1,19,4,1,1,1,871
3020,17,1,20,4,0,0,1,920
3021,17,1,21,4,0,0,1,1314
3022,17,1,22,4,0,0,1,867
3023,17,1,23,8,0,0,1,718
3024,17,1,24,8,0,0,1,1361
3025,17,1,25,8,0,0,1,628
3026,17,1,26,8,0,0,1,1785
3027,17,1,27,4,1,1,1,1244
3028,17,1,28,8,1,1,1,1144
3029,17,1,29,8,0,0,1,834
3030,17,1,30,4,1,1,1,658
3031,17,1,31,4,1,1,1,1462
3032,17,1,32,8,1,1,1,760
3033,17,1,33,4,0,0,1,899
3034,17,1,34,8,1,1,1,759
3035,17,1,35,4,1,1,1,552
3036,17,1,36,8,1,1,1,870
3037,17,1,37,8,0,0,1,617
3038,17,1,38,4,0,0,1,621
3039,17,1,39,4,1,1,1,1227
3040,17,1,40,8,0,0,1,1765
3041,17,1,41,8,0,0,1,974
3042,17,1,42,4,0,0,1,1089
3043,17,1,43,4,1,1,1,1757
3044,17,1,44,8,1,1,1,781
3045,17,1,45,4,1,1,1,1080
3046,17,1,46,4,1,1,1,911
3047,17,1,47,4,0,0,1,925
3048,17,1,48,4,1,1,1,942
3049,17,1,49,4,0,0,1,990
3050,17,1,50,8,1,1,1,1212
3051,17,1,51,8,0,0,1,612
3052,17,1,52,8,0,0,1,1031
3053,17,1,53,4,1,1,1,1563
3054,17,1,54,8,1,1,1,2089
3055,17,1,55,8,1,1,1,734
3056,17,1,56,4,0,0,1,705
3057,17,1,57,8,1,1,1,871
3058,17,1,58,4,0,0,1,1210
3059,17,1,59,8,1,1,1,2565
3060,17,1,60,4,1,1,1,587
3061,17,1,61,4,1,1,1,882
3062,17,1,62,4,1,1,1,650
3063,17,1,63,4,0,0,1,732
3064,17,1,64,8,0,0,1,1291
3065,17,1,65,4,0,0,1,1087
3066,17,1,66,4,0,0,1,649
3067,17,1,67,8,0,0,1,587
3068,17,1,68,4,1,1,1,854
3069,17,1,69,8,1,1,1,1842
3070,17,1,70,4,0,0,1,719
3071,17,1,71,4,0,0,1,720
3072,17,1,72,8,1,1,1,974
3073,17,1,73,4,0,0,1,442
3074,17,1,74,8,0,0,1,971
3075,17,1,75,4,0,0,1,891
3076,17,1,76,4,1,1,1,759
3077,17,1,77,4,1,1,1,907
3078,17,1,78,4,1,1,1,702
3079,17,1,79,4,1,1,1,813
3080,17,1,80,4,1,1,1,1327
3081,17,1,81,4,1,1,1,664
3082,17,1,82,4,0,0,1,581
3083,17,1,83,4,1,1,1,817
3084,17,1,84,8,1,1,1,815
3085,17,1,85,4,1,1,1,741
3086,17,1,86,8,0,0,1,978
3087,17,1,87,8,1,1,1,588
3088,17,1,88,8,0,0,1,1076
3089,17,1,89,4,1,1,1,503
3090,17,1,90,8,1,1,1,1283
3091,17,1,91,4,1,1,1,657
3092,17,1,92,4,0,0,1,927
3093,17,1,93,8,0,0,1,832
3094,17,1,94,4,1,1,1,734
3095,17,1,95,8,0,0,1,625
3096,17,1,96,4,0,0,1,575
3097,17,1,97,4,0,0,1,869
3098,17,1,98,4,0,0,1,1414
3099,17,1,99,8,0,0,1,676
3100,17,1,100,8,1,1,1,1266
3101,17,1,101,8,0,0,1,969
3102,17,1,102,4,1,1,1,584
3103,17,1,103,8,0,0,1,1406
3104,17,1,104,4,1,1,1,585
3105,17,1,105,8,0,0,1,848
3106,17,1,106,4,0,0,1,514
3107,17,1,107,8,1,1,1,1426
3108,17,1,108,8,0,0,1,1451
3109,17,1,109,8,0,0,1,708
3110,17,1,110,8,0,0,1,959
3111,17,1,111,8,0,0,1,1246
3112,17,1,112,8,1,1,1,752
3113,17,1,113,4,1,1,1,1270
3114,17,1,114,8,1,1,1,1191
3115,17,1,115,4,1,1,1,913
3116,17,1,116,4,1,1,1,961
3117,17,1,117,8,0,0,1,1001
3118,17,1,118,4,0,0,1,1612
3119,17,1,119,8,1,1,1,1857
3120,17,1,120,4,1,1,1,916
3121,17,1,121,8,1,1,1,545
3122,17,1,122,8,1,1,1,695
3123,17,1,123,4,1,1,1,790
3124,17,1,124,4,0,0,1,781
3125,17,1,125,8,0,0,1,873
3126,17,1,126,4,1,1,1,1173
3127,17,1,127,4,0,0,1,1116
3128,17,1,128,8,0,0,1,775
3129,17,1,129,4,0,0,1,548
3130,17,1,130,4,0,0,1,570
3131,17,1,131,8,1,1,1,710
3132,17,1,132,8,1,1,1,560
3133,17,1,133,8,1,1,1,1535
3134,17,1,134,4,1,1,1,453
3135,17,1,135,8,1,1,1,448
3136,17,1,136,8,0,0,1,714
3137,17,1,137,4,0,0,1,1639
3138,17,1,138,8,0,0,1,589
3139,17,1,139,8,0,0,1,1428
3140,17,1,140,4,1,1,1,564
3141,17,1,141,8,0,0,1,1419
3142,17,1,142,8,0,0,1,610
3143,17,1,143,4,0,0,1,1103
3144,17,1,144,4,1,1,1,763
3145,17,1,145,4,1,1,1,729
3146,17,1,146,4,0,0,1,878
3147,17,1,147,4,0,0,1,979
3148,17,1,148,4,0,0,1,754
3149,17,1,149,4,0,0,1,677
3150,17,1,150,8,0,0,1,1076
3151,17,1,151,4,1,1,1,1124
3152,17,1,152,8,0,0,1,713
3153,17,1,153,8,0,0,1,886
3154,17,1,154,8,0,0,1,978
3155,17,1,155,8,1,1,1,700
3156,17,1,156,4,0,0,1,585
3157,17,1,157,4,1,1,1,806
3158,17,1,158,4,0,0,1,1126
3159,17,1,159,4,1,1,1,963
3160,17,1,160,8,0,0,1,1365
3161,17,1,161,8,0,0,1,699
3162,17,1,162,4,1,1,1,609
3163,17,1,163,8,1,1,1,1445
3164,17,1,164,8,0,0,1,775
3165,17,1,165,4,0,0,1,485
3166,17,1,166,4,1,1,1,873
3167,17,1,167,8,0,0,1,945
3168,17,1,168,8,0,0,1,845
3169,17,1,169,4,1,1,1,553
3170,17,1,170,8,0,0,1,487
3171,17,1,171,8,1,1,1,1993
3172,17,1,172,8,1,1,1,1031
3173,17,1,173,8,0,0,1,2214
3174,17,1,174,8,0,0,1,1036
3175,17,1,175,4,0,0,1,1277
3176,17,1,176,4,0,0,1,990
3177,17,1,177,4,0,0,1,976
3178,17,1,178,8,0,0,1,1217
3179,17,1,179,8,1,1,1,1313
3180,17,1,180,4,1,1,1,936
3181,17,1,181,4,1,1,1,636
3182,17,1,182,8,1,1,1,1436
3183,17,1,183,8,0,0,1,1051
3184,17,1,184,8,1,1,1,706
3185,17,1,185,4,0,0,1,768
3186,17,1,186,8,1,1,1,2214
3187,17,1,187,4,0,0,1,1623
3188,17,1,188,8,0,0,1,699
3189,17,1,189,4,0,0,1,826
3190,17,1,190,4,0,0,1,592
3191,17,1,191,4,1,1,1,746
3192,17,1,192,4,0,0,1,1063
3193,17,1,193,4,0,0,1,1069
3194,17,1,194,4,0,0,1,684
3195,17,1,195,8,0,0,1,809
3196,17,1,196,8,0,0,1,640
3197,17,1,197,4,0,0,1,574
3198,17,1,198,8,1,1,1,997
3199,17,1,199,4,0,0,1,488
3200,17,1,200,4,1,1,1,780
3201,17,1,201,8,0,0,1,587
3202,17,1,202,8,0,0,1,2264
3203,17,1,203,4,1,1,1,745
3204,17,1,204,8,0,0,1,1982
3205,17,1,205,4,0,0,1,646
3206,17,1,206,4,1,1,1,553
3207,17,1,207,8,0,0,1,847
3208,17,1,208,8,1,1,1,1930
3209,17,1,209,4,0,0,1,628
3210,17,1,210,8,0,0,1,1660
3211,17,1,211,8,1,1,1,2216
3212,17,1,212,8,0,0,1,1291
3213,17,1,213,8,1,1,1,989
3214,17,1,214,4,0,0,1,1369
3215,17,1,215,4,1,1,1,1523
3216,17,1,216,8,0,0,1,926
3217,17,1,217,8,0,0,1,1461
3218,17,1,218,8,0,0,1,707
3219,17,1,219,8,1,1,1,918
3220,17,1,220,4,0,0,1,792
3221,17,1,221,4,0,0,1,673
3222,17,1,222,8,1,1,1,1156
3223,17,1,223,8,0,0,1,1501
3224,17,1,224,4,0,0,1,772
3225,17,1,225,8,0,0,1,1404
3226,17,1,226,4,0,0,1,671
3227,17,1,227,8,0,0,1,1704
3228,17,1,228,8,0,0,1,2383
3229,17,1,229,8,1,1,1,697
3230,17,1,230,4,0,0,1,775
3231,17,1,231,8,1,1,1,1065
3232,17,1,232,8,1,1,1,1189
3233,17,1,233,4,0,0,1,877
3234,17,1,234,4,1,1,1,979
3235,17,1,235,8,1,1,1,867
3236,17,1,236,8,0,0,1,1082
3237,17,1,237,4,0,0,1,1624
3238,17,1,238,8,1,1,1,763
3239,17,1,239,8,0,0,1,1136
3240,17,1,240,8,1,1,1,1170
3241,17,1,241,8,1,1,1,1150
3242,17,1,242,4,0,0,1,794
3243,17,1,243,4,1,1,1,1093
3244,17,1,244,8,1,1,1,591
3245,17,1,245,8,0,0,1,684
3246,17,1,246,4,1,1,1,479
3247,17,1,247,8,1,1,1,1429
3248,17,1,248,4,1,1,1,894
3249,17,1,249,8,0,0,1,636
3250,17,1,250,8,0,0,1,649
3251,17,1,251,4,0,0,1,744
3252,17,1,252,4,1,1,1,933
3253,17,1,253,8,0,0,1,1503
3254,17,1,254,8,0,0,1,1213
3255,17,1,255,8,0,0,1,2592
3256,17,1,256,4,1,1,1,1016
3257,17,1,257,4,0,0,1,1236
3258,17,1,258,4,0,0,1,489
3259,17,1,259,8,1,1,1,996
3260,17,1,260,8,1,1,1,1393
3261,17,1,261,8,1,1,1,1069
3262,17,1,262,4,1,1,1,721
3263,17,1,263,8,0,0,1,866
3264,17,1,264,4,1,1,1,594
3265,17,1,265,8,1,1,1,799
3266,17,1,266,8,0,0,1,803
3267,17,1,267,4,0,0,1,844
3268,17,1,268,4,1,1,1,841
3269,17,1,269,8,1,1,1,703
3270,17,1,270,8,1,1,1,521
3271,17,1,271,8,0,0,1,1503
3272,17,1,272,4,0,0,1,578
3273,17,1,273,4,1,1,1,1384
3274,17,1,274,8,1,1,1,677
3275,17,1,275,4,0,0,1,688
3276,17,1,276,8,1,1,1,885
3277,17,1,277,8,0,0,1,1738
3278,17,1,278,8,0,0,1,577
3279,17,1,279,4,1,1,1,576
3280,17,1,280,4,1,1,1,479
3281,17,1,281,4,0,0,1,1322
3282,17,1,282,4,0,0,1,490
3283,17,1,283,4,0,0,1,470
3284,17,1,284,8,0,0,1,1083
3285,17,1,285,8,1,1,1,1119
3286,17,1,286,8,0,0,1,571
3287,17,1,287,8,1,1,1,1208
3288,17,1,288,4,0,0,1,583
3289,17,1,289,8,0,0,1,1115
3290,17,1,290,4,0,0,1,1089
3291,17,1,291,4,0,0,1,552
3292,17,1,292,4,0,0,1,889
3293,17,1,293,8,1,1,1,933
3294,17,1,294,4,0,0,1,723
3295,17,1,295,4,1,1,1,846
3296,17,1,296,4,1,1,1,1109
3297,17,1,297,8,1,1,1,970
3298,17,1,298,4,1,1,1,494
3299,17,1,299,4,0,0,1,969
3300,17,1,300,8,0,0,1,1168
3301,17,1,301,8,1,1,1,1202
3302,17,1,302,4,1,1,1,665
3303,17,1,303,4,0,0,1,640
3304,17,1,304,4,1,1,1,1073
3305,17,1,305,4,1,1,1,850
3306,17,1,306,4,1,1,1,1035
3307,17,1,307,8,0,0,1,1335
3308,17,1,308,4,1,1,1,1145
3309,17,1,309,4,1,1,1,561
3310,17,1,310,8,0,0,1,1726
3311,17,1,311,8,1,1,1,1237
3312,17,1,312,8,1,1,1,500
3313,17,1,313,8,1,1,1,746
3314,17,1,314,4,1,1,1,972
3315,17,1,315,8,0,0,1,997
3316,17,1,316,8,1,1,1,1877
3317,17,1,317,8,1,1,1,981
3318,17,1,318,4,1,1,1,1080
3319,17,1,319,8,1,1,1,872
3320,17,1,320,4,0,0,1,530
3321,17,1,321,4,1,1,1,613
3322,17,1,322,8,0,0,1,1218
3323,17,1,323,8,0,0,1,799
3324,17,1,324,4,1,1,1,791
3325,17,1,325,8,1,1,1,1134
3326,17,1,326,4,0,0,1,1341
3327,17,1,327,4,1,1,1,884
3328,17,1,328,8,0,0,1,1049
3329,17,1,329,8,0,0,1,1134
3330,17,1,330,4,0,0,1,1088
3331,17,1,331,4,1,1,1,876
3332,17,1,332,4,1,1,1,959
3333,17,1,333,8,1,1,1,941
3334,17,1,334,8,0,0,1,1474
3335,17,1,335,8,0,0,1,599
3336,17,1,336,4,1,1,1,1159
3337,17,1,337,4,0,0,1,744
3338,17,1,338,4,1,1,1,714
3339,17,1,339,8,1,1,1,501
3340,17,1,340,8,0,0,1,576
3341,17,1,341,4,0,0,1,458
3342,17,1,342,8,1,1,1,792
3343,17,1,343,8,1,1,1,840
3344,17,1,344,8,1,1,1,559
3345,17,1,345,4,0,0,1,489
3346,17,1,346,8,1,1,1,853
3347,17,1,347,8,0,0,1,679
3348,17,1,348,8,1,1,1,1177
3349,17,1,349,4,0,0,1,583
3350,17,1,350,8,0,0,1,919
3351,17,1,351,8,1,1,1,521
3352,17,1,352,4,1,1,1,1022
3353,17,1,353,4,1,1,1,1775
3354,17,1,354,4,1,1,1,484
3355,17,1,355,4,0,0,1,869
3356,17,1,356,4,1,1,1,587
3357,17,1,357,4,1,1,1,614
3358,17,1,358,4,1,1,1,817
3359,17,1,359,4,1,1,1,426
3360,17,1,360,4,1,1,1,871
3361,17,1,361,4,1,1,1,1328
3362,17,1,362,4,1,1,1,435
3363,17,1,363,4,1,1,1,483
3364,17,1,364,8,1,1,1,544
3365,17,1,365,4,1,1,1,747
3366,17,1,366,8,1,1,1,954
3367,17,1,367,4,0,0,1,590
3368,17,1,368,4,1,1,1,739
3369,17,1,369,8,0,0,1,2039
3370,17,1,370,4,0,0,1,1114
3371,17,1,371,8,1,1,1,944
3372,17,1,372,8,0,0,1,1252
3373,17,1,373,4,0,0,1,795
3374,17,1,374,4,1,1,1,1293
3375,17,1,375,4,0,0,1,976
3376,17,1,376,8,1,1,1,1283
3377,17,1,377,4,1,1,1,841
3378,17,1,378,4,0,0,1,907
3379,17,1,379,8,1,1,1,801
3380,17,1,380,8,1,1,1,1584
3381,17,1,381,8,1,1,1,657
3382,17,1,382,8,1,1,1,1566
3383,17,1,383,4,0,0,1,1271
3384,17,1,384,4,1,1,1,1481
3385,17,1,385,8,1,1,1,1048
3386,17,1,386,4,0,0,1,789
3387,17,1,387,8,1,1,1,815
3388,17,1,388,8,0,0,1,1287
3389,17,1,389,4,0,0,1,897
3390,17,1,390,8,1,1,1,714
3391,17,1,391,4,1,1,1,540
3392,17,1,392,8,1,1,1,903
3393,17,1,393,8,0,0,1,684
3394,17,1,394,4,1,1,1,653
3395,17,1,395,4,1,1,1,529
3396,17,1,396,8,1,1,1,676
3397,17,1,397,4,0,0,1,893
3398,17,1,398,4,0,0,1,697
3399,17,1,399,4,0,0,1,554
3400,17,1,400,4,0,0,1,874
3401,17,1,401,8,1,1,1,1480
3402,17,1,402,8,0,0,1,679
3403,17,1,403,8,0,0,1,1604
3404,17,1,404,4,0,0,1,829
3405,17,1,405,4,1,1,1,1081
3406,17,1,406,4,0,0,1,760
3407,17,1,407,8,1,1,1,1856
3408,17,1,408,4,1,1,1,1042
3409,17,1,409,4,0,0,1,898
3410,17,1,410,8,1,1,1,922
3411,17,1,411,4,1,1,1,535
3412,17,1,412,4,0,0,1,728
3413,17,1,413,4,1,1,1,963
3414,17,1,414,4,0,0,1,1179
3415,17,1,415,8,0,0,1,1107
3416,17,1,416,8,1,1,1,1592
3417,17,1,417,4,0,0,1,852
3418,17,1,418,4,1,1,1,492
3419,17,1,419,4,1,1,1,701
3420,17,1,420,4,0,0,1,634
3421,17,1,421,8,0,0,1,1383
3422,17,1,422,8,0,0,1,858
3423,17,1,423,4,0,0,1,400
3424,17,1,424,8,0,0,1,862
3425,17,1,425,8,1,1,1,1086
3426,17,1,426,4,0,0,1,1516
3427,17,1,427,8,0,0,1,1159
3428,17,1,428,8,1,1,1,1988
3429,17,1,429,4,1,1,1,936
3430,17,1,430,4,1,1,1,767
3431,17,1,431,4,0,0,1,509
3432,17,1,432,4,0,0,1,603
3433,17,1,433,4,0,0,1,1172
3434,17,1,434,4,1,1,1,525
3435,17,1,435,8,0,0,1,663
3436,17,1,436,4,1,1,1,532
3437,17,1,437,8,1,1,1,1423
3438,17,1,438,8,0,0,1,1039
3439,17,1,439,8,1,1,0,2191
3440,17,1,440,4,1,1,1,1045
3441,17,1,441,4,0,0,1,1301
3442,17,1,442,4,1,1,1,445
3443,17,1,443,4,1,1,1,692
3444,17,1,444,4,1,1,1,851
3445,17,1,445,8,0,0,1,1617
3446,17,1,446,8,1,1,1,388
3447,17,1,447,8,1,1,1,952
3448,17,1,448,4,1,1,1,499
3449,17,1,449,8,1,1,1,1057
3450,17,1,450,8,0,0,1,699
3451,17,1,451,8,1,1,1,608
3452,17,1,452,8,0,0,1,705
3453,17,1,453,4,1,1,1,780
3454,17,1,454,8,1,1,1,1842
3455,17,1,455,4,0,0,1,554
3456,17,1,456,8,0,0,1,708
3457,17,1,457,4,1,1,1,642
3458,17,1,458,8,1,1,1,1513
3459,17,1,459,8,0,0,1,1028
3460,17,1,460,8,0,0,1,475
3461,17,1,461,4,0,0,1,498
3462,17,1,462,8,0,0,1,1076
3463,17,1,463,4,0,0,1,1056
3464,17,1,464,8,0,0,1,746
3465,17,1,465,4,1,1,1,1083
3466,17,1,466,4,0,0,1,1084
3467,17,1,467,4,1,1,1,681
3468,17,1,468,8,1,1,1,1001
3469,17,1,469,8,0,0,1,1325
3470,17,1,470,8,0,0,1,591
3471,17,1,471,4,0,0,1,1060
3472,17,1,472,8,1,1,1,1407
3473,17,1,473,8,1,1,1,986
3474,17,1,474,4,0,0,1,643
3475,17,1,475,8,0,0,1,1181
3476,17,1,476,4,1,1,1,599
3477,17,1,477,8,1,1,1,930
3478,17,1,478,8,0,0,1,1702
3479,17,1,479,4,0,0,1,749
3480,17,1,480,4,1,1,1,895
3481,17,1,481,4,0,0,1,774
3482,17,1,482,4,1,1,1,505
3483,17,1,483,8,0,0,1,629
3484,17,1,484,8,0,0,1,1078
3485,17,1,485,4,1,1,1,798
3486,17,1,486,8,0,0,1,1133
3487,17,1,487,8,0,0,1,1072
3488,17,1,488,8,1,1,1,563
3489,17,1,489,8,0,0,1,824
3490,17,1,490,8,1,1,1,1682
3491,17,1,491,4,1,1,1,596
3492,17,1,492,8,1,1,1,1052
3493,17,1,493,8,1,1,1,805
3494,17,1,494,4,0,0,1,826
3495,17,1,495,8,1,1,1,920
3496,17,1,496,8,1,1,1,1335
3497,17,1,497,8,0,0,1,861
3498,17,1,498,4,0,0,1,750
3499,17,1,499,8,0,0,1,1484
3500,17,1,500,4,0,0,1,817
3501,17,1,501,8,1,1,1,614
3502,17,1,502,8,1,1,1,1349
3503,17,1,503,8,0,0,1,694
3504,17,1,504,4,0,0,1,513
3505,17,1,505,8,1,1,1,506
3506,17,1,506,4,0,0,1,1000
3507,17,1,507,8,1,1,1,925
3508,17,1,508,8,1,1,1,897
3509,17,1,509,4,0,0,1,742
3510,17,1,510,4,1,1,1,1104
3511,17,1,511,4,1,1,1,830
3512,17,1,512,4,0,0,1,1718
3513,17,1,513,4,0,0,1,1125
3514,17,1,514,8,1,1,1,1557
3515,17,1,515,4,0,0,1,789
3516,17,1,516,8,1,1,1,995
3517,17,1,517,8,0,0,1,1694
3518,17,1,518,8,1,1,1,872
3519,17,1,519,8,0,0,1,1520
3520,17,1,520,4,1,1,1,2192
3521,17,1,521,4,0,0,1,716
3522,17,1,522,8,0,0,1,567
3523,17,1,523,8,1,1,1,1382
3524,17,1,524,4,0,0,1,1206
3525,17,1,525,8,0,0,1,1708
3526,17,1,526,4,0,0,1,1288
3527,17,1,527,8,1,1,1,2292
3528,17,1,528,4,1,1,1,1930
3529,17,1,529,8,1,1,1,1472
3530,17,1,530,8,1,1,1,1027
3531,17,1,531,8,0,0,1,2197
3532,17,1,532,8,0,0,1,986
3533,17,1,533,4,1,1,1,980
3534,17,1,534,8,1,1,1,629
3535,17,1,535,8,0,0,1,1282
3536,17,1,536,4,0,0,1,634
3537,17,1,537,4,0,0,1,565
3538,17,1,538,8,1,1,1,739
3539,17,1,539,4,1,1,1,562
3540,17,1,540,8,0,0,1,987
3541,17,1,541,8,1,1,1,949
3542,17,1,542,8,1,1,1,1514
3543,17,1,543,8,1,1,1,660
3544,17,1,544,4,1,1,1,577
3545,17,1,545,8,1,1,1,1571
3546,17,1,546,4,1,1,1,845
3547,17,1,547,4,0,0,1,969
3548,17,1,548,8,1,1,1,629
3549,17,1,549,4,1,1,1,481
3550,17,1,550,8,1,1,1,1441
3551,17,1,551,8,0,0,1,1585
3552,17,1,552,8,0,0,1,1232
3553,17,1,553,4,0,0,1,1054
3554,17,1,554,4,1,1,1,729
3555,17,1,555,4,1,1,1,971
3556,17,1,556,8,1,1,1,860
3557,17,1,557,4,1,1,1,671
3558,17,1,558,4,1,1,1,1147
3559,17,1,559,8,1,1,1,1512
3560,17,1,560,8,0,0,1,1328
3561,17,1,561,8,0,0,1,1592
3562,17,1,562,8,1,1,1,2470
3563,17,1,563,4,0,0,1,1367
3564,17,1,564,4,1,1,1,1051
3565,17,1,565,4,1,1,1,954
3566,17,1,566,4,1,1,1,1070
3567,17,1,567,4,0,0,1,828
3568,17,1,568,8,1,1,1,1597
3569,17,1,569,8,0,0,1,749
3570,17,1,570,4,0,0,1,936
3571,17,1,571,8,0,0,1,871
3572,17,1,572,4,0,0,1,622
3573,17,1,573,8,0,0,1,1400
3574,17,1,574,4,0,0,1,1145
3575,17,1,575,4,0,0,1,1036
3576,17,1,576,4,0,0,1,641
3577,17,1,577,8,1,1,1,744
3578,17,1,578,4,1,1,1,795
3579,17,1,579,4,0,0,1,1550
3580,17,1,580,8,1,1,1,825
3581,17,1,581,4,0,0,1,1090
3582,17,1,582,8,1,1,1,801
3583,17,1,583,4,1,1,1,763
3584,17,1,584,8,1,1,1,1356
3585,17,1,585,4,0,0,1,1152
3586,17,1,586,4,0,0,1,667
3587,17,1,587,8,1,1,1,678
3588,17,1,588,8,0,0,1,1902
3589,17,1,589,8,1,1,1,1373
3590,17,1,590,4,0,0,1,493
3591,17,1,591,8,0,0,1,1742
3592,17,1,592,8,1,1,1,1557
3593,17,1,593,4,1,1,1,1004
3594,17,1,594,8,0,0,1,988
3595,17,1,595,8,0,0,1,1588
3596,17,1,596,4,0,0,1,1138
3597,17,1,597,4,1,1,1,623
3598,17,1,598,4,1,1,1,831
3599,17,1,599,8,1,1,1,785
3600,17,1,600,4,1,1,1,1254
3601,19,1,1,8,1,1,1,2448
3602,19,1,2,8,1,1,1,1277
3603,19,1,3,4,0,0,1,1463
3604,19,1,4,4,0,0,1,2612
3605,19,1,5,4,1,1,1,1316
3606,19,1,6,8,0,0,1,2187
3607,19,1,7,8,1,1,1,3835
3608,19,1,8,8,1,1,1,1527
3609,19,1,9,8,0,0,1,925
3610,19,1,10,4,0,0,1,974
3611,19,1,11,8,0,0,1,2060
3612,19,1,12,4,1,1,1,1474
3613,19,1,13,8,0,0,1,1004
3614,19,1,14,4,1,1,1,1983
3615,19,1,15,8,0,0,1,1603
3616,19,1,16,4,1,1,1,2175
3617,19,1,17,4,0,0,1,1561
3618,19,1,18,8,0,0,1,814
3619,19,1,19,4,1,1,1,1456
3620,19,1,20,8,0,0,1,1776
3621,19,1,21,8,0,3,0,4998
3622,19,1,22,8,1,1,1,696
3623,19,1,23,8,0,0,1,980
3624,19,1,24,8,0,0,1,716
3625,19,1,25,8,0,0,1,520
3626,19,1,26,8,1,1,1,2026
3627,19,1,27,4,1,1,1,738
3628,19,1,28,8,1,1,1,722
3629,19,1,29,4,1,1,1,2249
3630,19,1,30,8,1,1,1,1424
3631,19,1,31,8,1,1,1,1516
3632,19,1,32,4,0,0,1,1111
3633,19,1,33,8,0,0,1,2004
3634,19,1,34,4,0,0,1,1119
3635,19,1,35,8,1,1,1,1383
3636,19,1,36,4,1,1,1,1904
3637,19,1,37,4,0,0,1,737
3638,19,1,38,4,0,0,1,1147
3639,19,1,39,4,0,0,1,1400
3640,19,1,40,8,1,1,1,2151
3641,19,1,41,8,0,0,1,1894
3642,19,1,42,8,0,0,1,2279
3643,19,1,43,4,0,0,1,1671
3644,19,1,44,8,0,0,1,1484
3645,19,1,45,8,1,1,1,1097
3646,19,1,46,4,0,0,1,661
3647,19,1,47,8,1,1,1,1513
3648,19,1,48,8,0,0,1,1032
3649,19,1,49,4,0,0,1,605
3650,19,1,50,4,1,1,1,2061
3651,19,1,51,4,0,0,1,583
3652,19,1,52,4,1,1,1,1895
3653,19,1,53,8,1,1,1,1815
3654,19,1,54,8,0,0,1,1412
3655,19,1,55,8,0,0,1,2324
3656,19,1,56,4,0,0,1,1087
3657,19,1,57,8,0,0,1,1886
3658,19,1,58,8,0,0,1,1399
3659,19,1,59,8,0,0,1,1704
3660,19,1,60,4,1,1,1,861
3661,19,1,61,8,0,0,1,573
3662,19,1,62,8,0,0,1,437
3663,19,1,63,4,0,0,1,1075
3664,19,1,64,4,0,0,1,711
3665,19,1,65,4,1,1,1,1129
3666,19,1,66,8,0,0,1,2298
3667,19,1,67,4,0,0,1,1032
3668,19,1,68,8,1,1,1,847
3669,19,1,69,8,1,1,1,796
3670,19,1,70,4,0,0,1,668
3671,19,1,71,4,0,0,1,732
3672,19,1,72,4,0,0,1,1198
3673,19,1,73,4,1,1,1,1567
3674,19,1,74,8,1,1,1,1548
3675,19,1,75,8,1,1,1,4329
3676,19,1,76,4,1,1,1,1731
3677,19,1,77,4,1,1,1,728
3678,19,1,78,8,1,1,1,1434
3679,19,1,79,8,0,0,1,1748
3680,19,1,80,4,0,0,1,667
3681,19,1,81,4,1,1,1,1768
3682,19,1,82,8,1,1,1,963
3683,19,1,83,8,0,0,1,2131
3684,19,1,84,8,1,1,1,1306
3685,19,1,85,4,0,0,1,2094
3686,19,1,86,4,0,0,1,2202
3687,19,1,87,4,0,0,1,1400
3688,19,1,88,8,1,1,1,1631
3689,19,1,89,4,0,0,1,2751
3690,19,1,90,8,0,0,1,868
3691,19,1,91,4,1,1,1,695
3692,19,1,92,4,0,0,1,736
3693,19,1,93,8,1,1,1,1267
3694,19,1,94,4,0,0,1,679
3695,19,1,95,8,0,0,1,1151
3696,19,1,96,8,1,1,1,1706
3697,19,1,97,8,1,1,1,1197
3698,19,1,98,4,0,0,1,1923
3699,19,1,99,4,0,0,1,2021
3700,19,1,100,4,1,1,1,2705
3701,19,1,101,8,0,0,1,697
3702,19,1,102,4,1,1,1,1281
3703,19,1,103,8,0,0,1,831
3704,19,1,104,8,1,1,1,1395
3705,19,1,105,8,1,1,1,1700
3706,19,1,106,4,1,1,1,904
3707,19,1,107,4,0,0,1,825
3708,19,1,108,4,0,0,1,621
3709,19,1,109,4,1,1,1,637
3710,19,1,110,8,1,1,1,1182
3711,19,1,111,4,0,0,1,576
3712,19,1,112,4,1,1,1,3038
3713,19,1,113,4,0,0,1,1941
3714,19,1,114,4,0,0,1,919
3715,19,1,115,8,0,0,1,2285
3716,19,1,116,8,1,1,1,1661
3717,19,1,117,4,1,1,1,1682
3718,19,1,118,4,0,0,1,871
3719,19,1,119,4,0,0,1,1960
3720,19,1,120,4,0,0,1,1020
3721,19,1,121,8,1,1,1,1177
3722,19,1,122,8,0,0,1,1659
3723,19,1,123,4,0,0,1,729
3724,19,1,124,4,1,1,1,898
3725,19,1,125,8,0,0,1,2129
3726,19,1,126,4,1,1,1,1161
3727,19,1,127,4,0,0,1,1316
3728,19,1,128,4,0,0,1,2035
3729,19,1,129,4,1,1,1,1867
3730,19,1,130,4,0,0,1,1458
3731,19,1,131,8,1,1,1,1930
3732,19,1,132,8,1,1,1,2242
3733,19,1,133,8,1,1,1,2551
3734,19,1,134,4,0,0,1,1528
3735,19,1,135,4,0,0,1,633
3736,19,1,136,8,0,0,1,1867
3737,19,1,137,8,0,0,1,715
3738,19,1,138,8,0,0,1,1121
3739,19,1,139,4,1,1,1,498
3740,19,1,140,4,0,0,1,1616
3741,19,1,141,4,0,0,1,929
3742,19,1,142,4,1,1,1,579
3743,19,1,143,8,0,0,1,1086
3744,19,1,144,4,0,0,1,2711
3745,19,1,145,8,1,1,1,1139
3746,19,1,146,8,1,1,1,1365
3747,19,1,147,4,1,1,1,2606
3748,19,1,148,8,0,0,1,2354
3749,19,1,149,8,0,0,1,1934
3750,19,1,150,8,1,1,1,1312
3751,19,1,151,8,1,1,1,1155
3752,19,1,152,4,0,0,1,1185
3753,19,1,153,8,1,1,1,2585
3754,19,1,154,8,0,0,1,1046
3755,19,1,155,4,1,1,1,1121
3756,19,1,156,4,1,1,1,851
3757,19,1,157,8,0,0,1,756
3758,19,1,158,4,1,1,1,464
3759,19,1,159,4,0,0,1,1059
3760,19,1,160,8,0,0,1,1927
3761,19,1,161,4,0,0,1,1731
3762,19,1,162,8,1,1,1,1343
3763,19,1,163,4,0,0,1,1443
3764,19,1,164,8,1,1,1,1117
3765,19,1,165,4,1,1,1,2528
3766,19,1,166,4,1,1,1,2574
3767,19,1,167,8,0,0,1,834
3768,19,1,168,8,1,1,1,1196
3769,19,1,169,4,1,1,1,573
3770,19,1,170,4,0,0,1,1066
3771,19,1,171,4,1,1,1,1436
3772,19,1,172,4,1,1,1,1587
3773,19,1,173,4,1,1,1,1134
3774,19,1,174,8,0,0,1,1024
3775,19,1,175,8,0,0,1,2161
3776,19,1,176,4,1,1,1,1851
3777,19,1,177,4,1,1,1,1717
3778,19,1,178,8,0,0,1,611
3779,19,1,179,4,1,1,1,1610
3780,19,1,180,4,0,0,1,770
3781,19,1,181,4,0,0,1,1722
3782,19,1,182,4,0,0,1,1165
3783,19,1,183,4,1,1,1,890
3784,19,1,184,4,1,1,1,605
3785,19,1,185,4,1,1,1,1378
3786,19,1,186,8,1,1,1,910
3787,19,1,187,4,0,0,1,496
3788,19,1,188,4,0,0,1,1241
3789,19,1,189,8,1,1,1,1624
3790,19,1,190,4,0,0,1,1088
3791,19,1,191,4,1,1,1,1124
3792,19,1,192,8,1,1,1,731
3793,19,1,193,8,0,0,1,936
3794,19,1,194,8,1,1,1,625
3795,19,1,195,8,1,1,1,3493
3796,19,1,196,4,0,0,1,1035
3797,19,1,197,8,0,0,1,1572
3798,19,1,198,8,1,1,1,2743
3799,19,1,199,4,1,1,1,2193
3800,19,1,200,4,1,1,1,1498
3801,19,1,201,4,0,0,1,1583
3802,19,1,202,4,1,1,1,958
3803,19,1,203,8,1,1,1,673
3804,19,1,204,4,1,1,1,529
3805,19,1,205,4,1,1,1,2022
3806,19,1,206,8,1,1,1,879
3807,19,1,207,8,1,1,1,861
3808,19,1,208,4,1,1,1,1601
3809,19,1,209,8,0,0,1,2484
3810,19,1,210,4,0,0,1,1793
3811,19,1,211,4,0,0,1,419
3812,19,1,212,8,0,0,1,1064
3813,19,1,213,8,1,1,1,1859
3814,19,1,214,4,0,0,1,1205
3815,19,1,215,4,0,0,1,565
3816,19,1,216,8,0,0,1,734
3817,19,1,217,8,1,1,1,1937
3818,19,1,218,8,0,0,1,1618
3819,19,1,219,8,0,0,1,1550
3820,19,1,220,8,0,0,1,1640
3821,19,1,221,4,1,1,1,881
3822,19,1,222,4,1,1,1,604
3823,19,1,223,8,0,0,1,538
3824,19,1,224,8,1,1,1,2394
3825,19,1,225,4,1,1,1,2111
3826,19,1,226,8,0,0,1,1968
3827,19,1,227,4,1,1,1,1543
3828,19,1,228,4,0,0,1,582
3829,19,1,229,4,0,0,1,645
3830,19,1,230,8,1,1,1,1048
3831,19,1,231,8,0,0,1,671
3832,19,1,232,8,1,1,1,1726
3833,19,1,233,4,1,1,1,1383
3834,19,1,234,4,1,1,1,671
3835,19,1,235,8,0,0,1,895
3836,19,1,236,8,0,0,1,1687
3837,19,1,237,8,1,1,1,941
3838,19,1,238,8,1,1,1,1770
3839,19,1,239,8,0,0,1,658
3840,19,1,240,4,0,0,1,1713
3841,19,1,241,8,0,0,1,1446
3842,19,1,242,4,0,0,1,1678
3843,19,1,243,4,0,0,1,1277
3844,19,1,244,4,1,1,1,1769
3845,19,1,245,8,1,1,1,1470
3846,19,1,246,4,0,0,1,907
3847,19,1,247,8,1,1,1,2284
