trial_id,Subject,block_n,Trial,set_size,correctResponse,keyResponse,acc,RT
1,1,1,1,5,0,0,1,1761
2,1,1,2,20,0,0,1,857
3,1,1,3,20,0,0,1,743
4,1,1,4,3,0,0,1,1053
5,1,1,5,3,0,0,1,506
6,1,1,6,3,1,1,1,421
7,1,1,7,1,0,0,1,519
8,1,1,8,10,0,0,1,735
9,1,1,9,10,0,0,1,533
10,1,1,10,1,1,1,1,530
11,1,1,11,32,1,1,1,761
12,1,1,12,10,1,1,0,702
13,1,1,13,1,0,0,1,880
14,1,1,14,5,0,0,1,722
15,1,1,15,1,1,1,1,821
16,1,1,16,5,0,0,1,878
17,1,1,17,3,0,0,1,714
18,1,1,18,5,0,0,1,833
19,1,1,19,20,0,0,1,819
20,1,1,20,1,1,1,1,568
21,1,1,21,1,1,1,1,509
22,1,1,22,3,0,0,1,463
23,1,1,23,32,1,1,1,714
24,1,1,24,3,1,1,1,757
25,1,1,25,32,0,0,1,576
26,1,1,26,32,0,0,1,587
27,1,1,27,32,0,0,1,878
28,1,1,28,20,0,0,1,578
29,1,1,29,1,0,0,1,519
30,1,1,30,1,1,1,1,570
31,1,1,31,20,0,0,1,657
32,1,1,32,5,1,1,1,506
33,1,1,33,1,1,1,1,393
34,1,1,34,1,1,1,1,411
35,1,1,35,20,1,1,1,425
36,1,1,36,32,0,0,1,442
37,1,1,37,3,1,1,1,450
38,1,1,38,1,1,1,1,500
39,1,1,39,5,1,1,1,752
40,1,1,40,5,0,0,1,534
41,1,1,41,1,1,1,1,448
42,1,1,42,10,0,0,1,934
43,1,1,43,3,1,1,1,730
44,1,1,44,3,1,1,1,758
45,1,1,45,20,1,1,1,766
46,1,1,46,5,1,1,1,807
47,1,1,47,20,1,1,1,642
48,1,1,48,10,1,1,1,600
49,1,1,49,32,0,0,1,483
50,1,1,50,32,1,1,1,546
51,1,1,51,32,1,1,1,540
52,1,1,52,3,1,1,1,888
53,1,1,53,3,0,0,1,730
54,1,1,54,10,1,1,1,464
55,1,1,55,20,1,1,1,489
56,1,1,56,5,1,1,1,467
57,1,1,57,1,1,1,1,599
58,1,1,58,5,1,1,1,573
59,1,1,59,3,1,1,1,393
60,1,1,60,3,1,1,1,678
61,1,1,61,32,0,0,1,629
62,1,1,62,32,0,0,1,825
63,1,1,63,3,1,1,1,603
64,1,1,64,1,0,0,1,437
65,1,1,65,3,0,0,1,738
66,1,1,66,3,1,1,1,816
67,1,1,67,1,1,1,1,478
68,1,1,68,10,0,0,1,442
69,1,1,69,20,0,0,1,606
70,1,1,70,10,0,0,1,782
71,1,1,71,32,1,1,1,1089
72,1,1,72,10,1,1,1,846
73,1,1,73,20,0,0,1,764
74,1,1,74,1,1,1,1,386
75,1,1,75,5,1,1,1,725
76,1,1,76,3,0,0,1,430
77,1,1,77,10,1,1,1,429
78,1,1,78,3,0,0,1,376
79,1,1,79,32,0,0,1,675
80,1,1,80,20,0,0,1,681
81,1,1,81,20,1,1,1,545
82,1,1,82,5,0,0,1,604
83,1,1,83,5,1,1,1,627
84,1,1,84,3,0,0,1,864
85,1,1,85,3,0,0,1,613
86,1,1,86,10,1,1,1,643
87,1,1,87,10,0,0,1,533
88,1,1,88,32,0,0,1,720
89,1,1,89,5,0,0,1,600
90,1,1,90,32,0,0,1,587
91,1,1,91,10,1,1,1,459
92,1,1,92,32,0,0,1,490
93,1,1,93,20,1,1,1,529
94,1,1,94,20,1,1,1,671
95,1,1,95,1,0,0,1,366
96,1,1,96,1,0,0,1,437
97,1,1,97,1,0,0,0,324
98,1,1,98,10,0,0,1,852
99,1,1,99,10,0,0,1,870
100,1,1,100,10,0,0,1,688
101,1,1,101,32,1,1,1,503
102,1,1,102,10,0,0,1,634
103,1,1,103,32,1,1,1,483
104,1,1,104,20,0,0,1,532
105,1,1,105,32,1,1,1,524
106,1,1,106,20,0,0,1,766
107,1,1,107,32,1,1,1,717
108,1,1,108,1,1,1,1,543
109,1,1,109,32,0,0,1,679
110,1,1,110,5,0,0,1,734
111,1,1,111,32,0,0,1,744
112,1,1,112,1,0,0,1,413
113,1,1,113,32,1,1,1,591
114,1,1,114,5,0,0,1,558
115,1,1,115,10,1,1,1,646
116,1,1,116,32,1,1,1,819
117,1,1,117,3,0,0,1,705
118,1,1,118,3,0,0,1,1011
119,1,1,119,10,0,0,1,721
120,1,1,120,10,1,1,1,509
121,1,1,121,1,1,1,1,429
122,1,1,122,10,1,1,1,514
123,1,1,123,3,1,1,1,502
124,1,1,124,32,1,1,1,601
125,1,1,125,32,0,0,1,457
126,1,1,126,32,0,0,1,497
127,1,1,127,1,1,1,1,636
128,1,1,128,5,1,1,1,723
129,1,1,129,1,0,0,1,517
130,1,1,130,1,1,1,1,400
131,1,1,131,20,0,0,1,546
132,1,1,132,10,0,0,1,507
133,1,1,133,32,1,1,1,484
134,1,1,134,32,1,1,1,572
135,1,1,135,32,0,0,1,710
136,1,1,136,20,0,0,1,702
137,1,1,137,3,0,0,1,728
138,1,1,138,10,0,0,1,731
139,1,1,139,1,0,0,1,433
140,1,1,140,5,1,1,1,609
141,1,1,141,5,0,0,1,725
142,1,1,142,1,0,0,1,371
143,1,1,143,10,1,1,1,441
144,1,1,144,32,0,0,1,575
145,1,1,145,10,1,1,1,525
146,1,1,146,10,0,0,1,825
147,1,1,147,10,0,0,0,453
148,1,1,148,3,0,0,1,482
149,1,1,149,32,1,1,1,570
150,1,1,150,10,1,1,1,717
151,1,1,151,1,0,0,1,403
152,1,1,152,1,0,0,1,447
153,1,1,153,20,0,0,1,700
154,1,1,154,1,1,1,1,476
155,1,1,155,5,0,0,1,533
156,1,1,156,20,0,0,1,612
157,1,1,157,3,0,0,1,463
158,1,1,158,1,0,0,1,461
159,1,1,159,20,1,1,1,482
160,1,1,160,10,1,1,1,531
161,1,1,161,5,0,0,1,666
162,1,1,162,20,0,0,1,584
163,1,1,163,10,1,1,1,609
164,1,1,164,32,0,0,1,549
165,1,1,165,3,1,1,1,404
166,1,1,166,20,1,1,1,677
167,1,1,167,20,0,0,1,561
168,1,1,168,5,0,0,1,592
169,1,1,169,1,1,1,1,491
170,1,1,170,3,0,0,1,820
171,1,1,171,5,1,1,1,428
172,1,1,172,1,1,1,1,525
173,1,1,173,10,1,1,1,483
174,1,1,174,3,0,0,1,781
175,1,1,175,3,0,0,1,797
176,1,1,176,1,1,1,1,538
177,1,1,177,3,1,1,1,813
178,1,1,178,32,1,1,1,551
179,1,1,179,10,1,1,1,414
180,1,1,180,1,0,0,1,408
181,1,1,181,20,1,1,1,487
182,1,1,182,10,0,0,1,520
183,1,1,183,10,1,1,1,602
184,1,1,184,3,0,0,1,703
185,1,1,185,1,0,0,1,372
186,1,1,186,1,0,0,1,419
187,1,1,187,5,0,0,1,559
188,1,1,188,5,0,0,1,611
189,1,1,189,32,0,0,1,580
190,1,1,190,5,0,0,1,649
191,1,1,191,32,1,1,1,500
192,1,1,192,1,1,1,1,506
193,1,1,193,32,0,0,1,439
194,1,1,194,32,0,0,1,453
195,1,1,195,3,1,1,1,422
196,1,1,196,1,0,0,1,365
197,1,1,197,20,0,0,1,724
198,1,1,198,32,1,1,1,433
199,1,1,199,3,0,0,1,562
200,1,1,200,10,1,1,1,466
201,1,1,201,32,1,1,1,495
202,1,1,202,3,0,0,1,543
203,1,1,203,3,1,1,1,674
204,1,1,204,3,1,1,1,512
205,1,1,205,10,1,1,1,712
206,1,1,206,20,0,0,1,446
207,1,1,207,3,0,0,1,593
208,1,1,208,5,1,1,1,601
209,1,1,209,10,0,0,1,544
210,1,1,210,32,1,1,1,1018
211,1,1,211,20,0,0,1,642
212,1,1,212,1,0,0,1,423
213,1,1,213,20,1,1,1,520
214,1,1,214,3,1,1,1,813
215,1,1,215,1,0,0,1,456
216,1,1,216,20,0,0,1,465
217,1,1,217,3,1,1,1,874
218,1,1,218,20,0,0,1,459
219,1,1,219,5,0,0,1,513
220,1,1,220,3,0,0,1,830
221,1,1,221,1,1,1,1,439
222,1,1,222,1,0,0,1,407
223,1,1,223,10,1,1,1,587
224,1,1,224,5,0,0,1,482
225,1,1,225,32,1,1,1,890
226,1,1,226,20,0,0,1,608
227,1,1,227,20,1,1,1,475
228,1,1,228,32,0,0,1,505
229,1,1,229,3,0,0,1,550
230,1,1,230,1,0,0,1,472
231,1,1,231,5,1,1,1,719
232,1,1,232,5,1,1,1,753
233,1,1,233,20,0,0,1,496
234,1,1,234,10,0,0,1,762
235,1,1,235,5,1,1,1,555
236,1,1,236,20,0,0,1,468
237,1,1,237,32,1,1,1,496
238,1,1,238,5,0,0,1,665
239,1,1,239,1,1,1,1,606
240,1,1,240,3,0,0,1,442
241,1,1,241,10,0,0,1,673
242,1,1,242,3,0,0,1,387
243,1,1,243,32,0,0,1,625
244,1,1,244,1,1,1,1,390
245,1,1,245,32,1,1,1,649
246,1,1,246,10,1,1,1,1007
247,1,1,247,3,0,0,1,741
248,1,1,248,10,1,1,1,868
249,1,1,249,3,1,1,1,826
250,1,1,250,20,1,1,1,570
251,1,1,251,10,1,1,1,919
252,1,1,252,5,1,1,1,543
253,1,1,253,10,1,1,1,890
254,1,1,254,3,0,0,1,546
255,1,1,255,32,1,1,1,460
256,1,1,256,10,0,0,1,460
257,1,1,257,5,1,1,1,686
258,1,1,258,10,1,1,1,494
259,1,1,259,20,1,1,1,490
260,1,1,260,32,1,1,1,490
261,1,1,261,1,1,1,1,418
262,1,1,262,20,1,1,1,574
263,1,1,263,3,1,1,1,747
264,1,1,264,32,1,1,1,677
265,1,1,265,1,0,0,1,485
266,1,1,266,10,1,1,1,479
267,1,1,267,32,0,0,1,944
268,1,1,268,3,0,0,1,743
269,1,1,269,5,1,1,1,477
270,1,1,270,32,1,1,1,533
271,1,1,271,32,0,0,1,494
272,1,1,272,5,1,1,1,678
273,1,1,273,1,1,1,1,444
274,1,1,274,32,1,1,1,573
275,1,1,275,10,0,0,0,407
276,1,1,276,5,0,0,1,515
277,1,1,277,1,1,1,1,393
278,1,1,278,3,1,1,0,805
279,1,1,279,5,1,1,1,632
280,1,1,280,20,0,0,1,497
281,1,1,281,5,1,1,1,862
282,1,1,282,3,0,0,1,649
283,1,1,283,10,0,0,1,691
284,1,1,284,1,1,1,1,432
285,1,1,285,32,0,0,1,496
286,1,1,286,5,0,0,1,693
287,1,1,287,1,1,1,1,373
288,1,1,288,20,0,0,1,410
289,1,1,289,5,1,1,1,463
290,1,1,290,3,1,1,1,1274
291,1,1,291,20,0,0,1,826
292,1,1,292,20,0,0,1,743
293,1,1,293,5,0,0,1,502
294,1,1,294,3,1,1,1,534
295,1,1,295,5,1,1,1,738
296,1,1,296,1,1,1,1,456
297,1,1,297,5,1,1,1,673
298,1,1,298,5,0,0,1,533
299,1,1,299,5,0,0,1,573
300,1,1,300,20,1,1,1,572
301,1,1,301,20,0,0,1,600
302,1,1,302,3,0,0,1,619
303,1,1,303,10,1,1,1,1003
304,1,1,304,1,0,0,1,453
305,1,1,305,32,1,1,1,615
306,1,1,306,5,0,0,1,555
307,1,1,307,20,0,0,1,821
308,1,1,308,3,1,1,1,824
309,1,1,309,10,1,1,1,676
310,1,1,310,20,0,0,1,624
311,1,1,311,20,0,0,1,607
312,1,1,312,32,0,0,1,521
313,1,1,313,20,0,0,1,558
314,1,1,314,10,1,1,1,527
315,1,1,315,5,1,1,1,564
316,1,1,316,32,1,1,1,660
317,1,1,317,3,1,1,1,496
318,1,1,318,3,1,1,1,527
319,1,1,319,20,1,1,1,699
320,1,1,320,10,1,1,1,606
321,1,1,321,10,1,1,1,1061
322,1,1,322,10,1,1,1,450
323,1,1,323,5,0,0,1,692
324,1,1,324,1,0,0,1,485
325,1,1,325,1,1,1,1,437
326,1,1,326,32,1,1,1,692
327,1,1,327,3,1,1,1,503
328,1,1,328,1,0,0,1,616
329,1,1,329,5,1,1,1,813
330,1,1,330,5,1,1,1,834
331,1,1,331,3,1,1,1,469
332,1,1,332,5,0,0,1,625
333,1,1,333,1,0,0,1,426
334,1,1,334,20,1,1,1,586
335,1,1,335,3,0,0,1,742
336,1,1,336,20,0,0,1,514
337,1,1,337,5,0,0,1,525
338,1,1,338,32,0,0,1,669
339,1,1,339,20,1,1,1,546
340,1,1,340,20,0,0,1,580
341,1,1,341,1,1,1,1,446
342,1,1,342,20,1,1,1,670
343,1,1,343,10,0,0,1,543
344,1,1,344,20,0,0,1,585
345,1,1,345,10,0,0,1,599
346,1,1,346,32,0,0,1,454
347,1,1,347,32,1,1,1,515
348,1,1,348,20,0,0,1,496
349,1,1,349,1,0,0,1,373
350,1,1,350,10,1,1,1,477
351,1,1,351,1,1,1,1,394
352,1,1,352,10,1,1,1,643
353,1,1,353,1,1,1,1,958
354,1,1,354,5,1,1,1,582
355,1,1,355,5,0,0,1,560
356,1,1,356,20,0,0,1,656
357,1,1,357,5,0,0,1,823
358,1,1,358,3,1,1,1,476
359,1,1,359,10,1,1,1,709
360,1,1,360,1,1,1,1,497
361,1,1,361,3,1,1,1,767
362,1,1,362,3,0,0,1,925
363,1,1,363,1,0,0,1,513
364,1,1,364,5,1,1,1,694
365,1,1,365,1,1,1,1,610
366,1,1,366,3,1,1,1,987
367,1,1,367,32,0,0,1,562
368,1,1,368,10,0,0,1,528
369,1,1,369,10,0,0,1,664
370,1,1,370,20,1,1,1,505
371,1,1,371,20,0,0,1,564
372,1,1,372,5,0,0,1,543
373,1,1,373,20,0,0,1,546
374,1,1,374,3,1,1,1,439
375,1,1,375,32,1,1,1,564
376,1,1,376,5,0,0,1,376
377,1,1,377,10,0,0,1,490
378,1,1,378,32,0,0,1,499
379,1,1,379,1,0,0,1,742
380,1,1,380,20,1,1,1,799
381,1,1,381,20,1,1,1,664
382,1,1,382,5,0,0,1,557
383,1,1,383,32,1,1,1,405
384,1,1,384,20,1,1,1,627
385,1,1,385,5,0,0,1,412
386,1,1,386,5,1,1,1,641
387,1,1,387,1,0,0,1,460
388,1,1,388,3,1,1,1,492
389,1,1,389,5,0,0,1,452
390,1,1,390,20,1,1,1,493
391,1,1,391,32,0,0,1,394
392,1,1,392,10,0,0,1,418
393,1,1,393,32,0,0,1,734
394,1,1,394,5,0,0,1,751
395,1,1,395,5,1,1,1,789
396,1,1,396,20,0,0,1,759
397,1,1,397,32,1,1,1,522
398,1,1,398,1,0,0,1,357
399,1,1,399,32,0,0,1,556
400,1,1,400,3,0,0,1,488
401,1,1,401,1,1,1,1,341
402,1,1,402,10,1,1,1,427
403,1,1,403,1,1,1,1,402
404,1,1,404,3,0,0,0,550
405,1,1,405,5,1,1,1,590
406,1,1,406,10,0,0,1,762
407,1,1,407,5,1,1,1,608
408,1,1,408,5,0,0,1,634
409,1,1,409,20,1,1,1,535
410,1,1,410,3,0,0,1,478
411,1,1,411,3,1,1,1,719
412,1,1,412,5,1,1,1,930
413,1,1,413,10,0,0,1,557
414,1,1,414,32,1,1,1,419
415,1,1,415,5,0,0,1,503
416,1,1,416,10,1,1,1,552
417,1,1,417,32,0,0,1,518
418,1,1,418,32,1,1,1,527
419,1,1,419,10,0,0,1,711
420,1,1,420,10,0,0,1,688
421,1,1,421,20,0,0,1,570
422,1,1,422,32,0,0,1,585
423,1,1,423,1,0,0,1,429
424,1,1,424,1,1,1,1,393
425,1,1,425,1,0,0,1,375
426,1,1,426,3,0,0,1,416
427,1,1,427,10,1,1,1,478
428,1,1,428,5,1,1,1,646
429,1,1,429,5,1,1,1,566
430,1,1,430,20,1,1,1,551
431,1,1,431,3,0,0,1,501
432,1,1,432,1,1,1,1,399
433,1,1,433,5,0,0,1,962
434,1,1,434,20,1,1,1,480
435,1,1,435,3,0,0,1,1082
436,1,1,436,20,1,1,1,570
437,1,1,437,5,0,0,1,492
438,1,1,438,5,1,1,1,663
439,1,1,439,20,0,0,1,637
440,1,1,440,10,0,0,1,483
441,1,1,441,3,1,1,1,748
442,1,1,442,10,0,0,1,573
443,1,1,443,20,1,1,1,430
444,1,1,444,20,0,0,1,486
445,1,1,445,5,1,1,1,708
446,1,1,446,1,1,1,1,764
447,1,1,447,32,0,0,1,582
448,1,1,448,1,0,0,1,646
449,1,1,449,5,0,0,1,907
450,1,1,450,1,0,0,1,708
451,1,1,451,3,0,3,0,559
452,1,1,452,20,1,1,1,648
453,1,1,453,5,0,0,1,671
454,1,1,454,3,0,0,1,567
455,1,1,455,10,1,1,1,866
456,1,1,456,3,0,0,1,614
457,1,1,457,20,1,1,1,543
458,1,1,458,1,1,1,1,491
459,1,1,459,20,0,0,1,547
460,1,1,460,1,0,0,1,481
461,1,1,461,1,1,1,1,487
462,1,1,462,1,0,0,1,440
463,1,1,463,10,1,1,1,892
464,1,1,464,3,1,1,1,867
465,1,1,465,20,1,1,1,513
466,1,1,466,1,1,1,1,475
467,1,1,467,10,0,0,1,471
468,1,1,468,3,1,1,1,540
469,1,1,469,1,0,0,1,426
470,1,1,470,20,0,0,1,609
471,1,1,471,10,1,1,1,529
472,1,1,472,32,1,1,1,835
473,1,1,473,3,1,1,1,770
474,1,1,474,32,0,0,1,629
475,1,1,475,32,1,1,1,545
476,1,1,476,10,0,0,1,681
477,1,1,477,20,1,1,1,565
478,1,1,478,1,0,0,1,429
479,1,1,479,10,0,0,1,687
480,1,1,480,3,0,0,1,978
481,1,1,481,10,1,1,1,463
482,1,1,482,5,0,0,1,490
483,1,1,483,32,0,0,1,558
484,1,1,484,32,1,1,1,706
485,1,1,485,32,1,1,1,552
486,1,1,486,10,0,0,1,586
487,1,1,487,20,1,1,1,627
488,1,1,488,32,1,1,1,706
489,1,1,489,1,0,0,1,452
490,1,1,490,3,0,0,1,930
491,1,1,491,5,1,1,1,860
492,1,1,492,1,1,1,1,463
493,1,1,493,20,1,1,1,807
494,1,1,494,20,1,1,1,626
495,1,1,495,1,1,1,1,438
496,1,1,496,32,1,1,1,560
497,1,1,497,1,0,0,1,471
498,1,1,498,32,1,1,1,804
499,1,1,499,20,0,0,1,525
500,1,1,500,32,1,1,1,472
501,1,1,501,5,1,1,1,484
502,1,1,502,1,0,0,1,403
503,1,1,503,32,1,1,1,574
504,1,1,504,10,0,0,1,564
505,1,1,505,32,1,1,1,649
506,1,1,506,1,1,1,1,513
507,1,1,507,5,0,0,1,542
508,1,1,508,10,1,1,1,466
509,1,1,509,1,1,1,1,433
510,1,1,510,3,1,1,1,471
511,1,1,511,20,0,0,1,650
512,1,1,512,1,0,0,1,554
513,1,1,513,3,0,0,1,679
514,1,1,514,5,1,1,1,690
515,1,1,515,3,1,1,1,448
516,1,1,516,10,1,1,1,574
517,1,1,517,32,0,0,1,605
518,1,1,518,20,1,1,1,647
519,1,1,519,5,1,1,1,1509
520,1,1,520,10,0,0,1,634
521,1,1,521,5,1,1,1,575
522,1,1,522,32,1,1,1,561
523,1,1,523,10,1,1,1,805
524,1,1,524,5,0,0,1,407
525,1,1,525,32,0,0,1,564
526,1,1,526,1,1,1,1,354
527,1,1,527,20,1,1,0,502
528,1,1,528,3,0,0,1,891
529,1,1,529,10,0,0,1,816
530,1,1,530,32,1,1,1,555
531,1,1,531,10,0,0,1,842
532,1,1,532,5,0,0,1,607
533,1,1,533,32,1,1,1,645
534,1,1,534,5,0,0,1,822
535,1,1,535,5,1,1,1,624
536,1,1,536,20,0,0,1,579
537,1,1,537,3,0,0,1,534
538,1,1,538,3,0,0,1,677
539,1,1,539,20,1,1,1,539
540,1,1,540,3,1,1,1,829
541,1,1,541,5,1,1,1,551
542,1,1,542,1,0,0,1,925
543,1,1,543,20,1,1,1,634
544,1,1,544,10,0,0,1,490
545,1,1,545,10,1,1,1,625
546,1,1,546,1,0,0,1,520
547,1,1,547,32,1,1,1,468
548,1,1,548,32,0,0,1,531
549,1,1,549,5,0,0,1,985
550,1,1,550,1,1,1,1,421
551,1,1,551,20,1,1,1,467
552,1,1,552,1,1,1,1,395
553,1,1,553,3,1,1,1,562
554,1,1,554,3,1,1,1,887
555,1,1,555,32,1,1,1,481
556,1,1,556,10,0,0,1,707
557,1,1,557,1,1,1,1,410
558,1,1,558,32,0,0,1,718
559,1,1,559,5,0,0,1,591
560,1,1,560,32,1,1,1,579
561,1,1,561,3,0,0,1,1228
562,1,1,562,3,1,1,1,719
563,1,1,563,5,0,0,1,482
564,1,1,564,3,1,1,1,573
565,1,1,565,1,0,0,1,471
566,1,1,566,32,1,1,1,565
567,1,1,567,10,0,0,1,665
568,1,1,568,3,0,0,1,864
569,1,1,569,10,1,1,1,621
570,1,1,570,20,0,0,1,843
571,1,1,571,5,1,1,1,636
572,1,1,572,20,1,1,1,744
573,1,1,573,10,1,1,1,544
574,1,1,574,10,1,1,1,1256
575,1,1,575,10,1,1,1,1252
576,1,1,576,1,1,1,1,384
577,1,1,577,32,1,1,1,632
578,1,1,578,1,0,0,1,551
579,1,1,579,5,1,1,1,533
580,1,1,580,32,1,1,1,707
581,1,1,581,1,0,0,1,1098
582,1,1,582,10,0,0,1,456
583,1,1,583,32,0,0,1,628
584,1,1,584,32,1,1,1,448
585,1,1,585,3,0,0,1,641
586,1,1,586,3,0,0,1,531
587,1,1,587,10,1,1,1,1039
588,1,1,588,1,0,0,1,478
589,1,1,589,20,1,1,1,953
590,1,1,590,1,1,1,1,534
591,1,1,591,32,0,0,1,489
592,1,1,592,3,1,1,1,584
593,1,1,593,10,1,1,1,626
594,1,1,594,20,1,1,1,580
595,1,1,595,32,0,0,1,538
596,1,1,596,32,0,0,1,756
597,1,1,597,20,1,1,1,483
598,1,1,598,3,1,1,1,540
599,1,1,599,1,1,1,1,546
600,1,1,600,1,0,0,1,397
601,1,1,601,1,0,0,1,401
602,1,1,602,32,0,0,1,681
603,1,1,603,10,0,0,1,477
604,1,1,604,10,1,1,1,515
605,1,1,605,32,1,1,1,742
606,1,1,606,5,0,0,1,695
607,1,1,607,20,0,0,0,494
608,1,1,608,1,0,0,1,518
609,1,1,609,32,0,0,1,672
610,1,1,610,20,1,1,1,618
611,1,1,611,1,0,0,1,499
612,1,1,612,1,1,1,1,430
613,1,1,613,10,0,0,1,432
614,1,1,614,1,1,1,1,398
615,1,1,615,5,0,0,1,400
616,1,1,616,20,0,0,1,636
617,1,1,617,20,1,1,1,572
618,1,1,618,3,0,0,1,773
619,1,1,619,32,0,0,1,470
620,1,1,620,20,0,0,1,612
621,1,1,621,20,1,1,1,433
622,1,1,622,3,1,1,1,525
623,1,1,623,20,0,0,1,529
624,1,1,624,3,1,1,1,911
625,1,1,625,3,0,0,1,890
626,1,1,626,5,0,0,1,476
627,1,1,627,5,1,1,1,949
628,1,1,628,32,0,0,1,636
629,1,1,629,32,0,0,0,486
630,1,1,630,3,1,1,1,435
631,1,1,631,10,1,1,1,739
632,1,1,632,3,1,1,1,745
633,1,1,633,32,0,0,1,643
634,1,1,634,5,1,1,1,639
635,1,1,635,3,0,0,1,515
636,1,1,636,3,1,1,1,617
637,1,1,637,3,1,1,1,1148
638,1,1,638,20,1,1,1,579
639,1,1,639,1,1,1,1,584
640,1,1,640,20,1,1,1,693
641,1,1,641,10,0,0,1,545
642,1,1,642,5,0,0,1,740
643,1,1,643,20,0,0,1,541
644,1,1,644,5,0,0,1,572
645,1,1,645,3,0,0,1,1119
646,1,1,646,32,0,0,1,585
647,1,1,647,20,1,1,1,615
648,1,1,648,5,0,0,1,788
649,1,1,649,3,1,1,1,657
650,1,1,650,1,0,0,1,373
651,1,1,651,5,1,1,1,424
652,1,1,652,1,0,0,1,436
653,1,1,653,3,0,0,0,632
654,1,1,654,20,0,0,1,655
655,1,1,655,5,1,1,1,415
656,1,1,656,32,0,0,1,592
657,1,1,657,1,0,0,1,668
658,1,1,658,20,1,1,1,612
659,1,1,659,20,1,1,1,530
660,1,1,660,10,0,0,1,588
661,1,1,661,20,0,0,1,560
662,1,1,662,3,0,0,1,570
663,1,1,663,10,1,1,1,838
664,1,1,664,20,0,0,1,1260
665,1,1,665,3,1,1,1,640
666,1,1,666,10,0,0,1,530
667,1,1,667,10,0,0,1,542
668,1,1,668,32,0,0,1,529
669,1,1,669,1,1,1,1,715
670,1,1,670,20,1,1,0,475
671,1,1,671,3,1,1,1,967
672,1,1,672,5,1,1,1,822
673,1,1,673,3,0,0,1,602
674,1,1,674,32,0,0,1,902
675,1,1,675,20,0,0,1,577
676,1,1,676,10,1,1,1,502
677,1,1,677,10,0,0,1,577
678,1,1,678,5,1,1,1,746
679,1,1,679,32,1,1,1,604
680,1,1,680,20,1,1,1,1072
681,1,1,681,20,1,1,1,618
682,1,1,682,5,0,0,1,581
683,1,1,683,3,0,0,1,861
684,1,1,684,3,1,1,1,743
685,1,1,685,10,1,1,1,737
686,1,1,686,3,1,1,1,853
687,1,1,687,5,1,1,1,712
688,1,1,688,1,0,0,1,525
689,1,1,689,20,1,1,1,651
690,1,1,690,3,1,1,1,1008
691,1,1,691,20,1,1,1,1171
692,1,1,692,5,1,1,1,1785
693,1,1,693,5,1,1,1,761
694,1,1,694,10,0,0,1,659
695,1,1,695,5,0,0,1,915
696,1,1,696,10,0,0,1,520
697,1,1,697,5,0,0,1,659
698,1,1,698,10,1,1,1,654
699,1,1,699,32,0,0,1,551
700,1,1,700,20,0,0,1,495
701,1,1,701,3,1,1,1,818
702,1,1,702,5,1,1,1,558
703,1,1,703,10,0,0,1,564
704,1,1,704,10,1,1,1,571
705,1,1,705,32,0,0,1,556
706,1,1,706,10,0,0,1,557
707,1,1,707,5,1,1,1,491
708,1,1,708,32,0,0,1,619
709,1,1,709,5,1,1,1,567
710,1,1,710,20,1,1,1,638
711,1,1,711,10,0,0,1,491
712,1,1,712,5,0,0,1,864
713,1,1,713,5,1,1,1,754
714,1,1,714,32,1,1,1,580
715,2,1,1,20,0,0,0,2292
716,2,1,2,5,1,1,0,1833
717,2,1,3,10,1,1,1,2700
718,2,1,4,10,0,0,1,755
719,2,1,5,32,1,1,1,1885
720,2,1,6,10,1,1,1,2071
721,2,1,7,10,1,1,1,988
722,2,1,8,3,0,0,1,956
723,2,1,9,3,1,1,1,900
724,2,1,10,3,1,1,1,494
725,2,1,11,10,0,0,1,682
726,2,1,12,10,0,0,1,757
727,2,1,13,3,0,0,1,707
728,2,1,14,32,0,0,1,608
729,2,1,15,10,1,1,1,810
730,2,1,16,10,1,1,1,986
731,2,1,17,20,0,0,1,742
732,2,1,18,32,0,0,1,599
733,2,1,19,1,0,0,1,502
734,2,1,20,3,1,1,1,707
735,2,1,21,3,1,1,1,586
736,2,1,22,5,1,1,1,684
737,2,1,23,1,1,1,1,842
738,2,1,24,10,0,0,1,610
739,2,1,25,5,0,0,1,617
740,2,1,26,20,0,0,1,709
741,2,1,27,32,1,1,1,583
742,2,1,28,1,1,1,1,860
743,2,1,29,10,0,0,1,679
744,2,1,30,3,1,1,1,504
745,2,1,31,3,1,1,1,761
746,2,1,32,1,1,1,1,506
747,2,1,33,1,1,1,1,541
748,2,1,34,3,1,1,1,1425
749,2,1,35,20,1,1,1,786
750,2,1,36,3,0,0,1,803
751,2,1,37,10,1,1,1,579
752,2,1,38,10,1,1,1,920
753,2,1,39,1,0,0,1,913
754,2,1,40,5,1,1,1,891
755,2,1,41,1,0,0,1,544
756,2,1,42,5,0,0,1,614
757,2,1,43,10,1,1,1,628
758,2,1,44,5,0,0,1,472
759,2,1,45,20,1,1,1,583
760,2,1,46,10,1,1,1,556
761,2,1,47,10,0,0,1,445
762,2,1,48,10,1,1,1,491
763,2,1,49,20,0,0,1,535
764,2,1,50,20,1,1,1,832
765,2,1,51,20,0,0,1,457
766,2,1,52,3,1,1,1,1165
767,2,1,53,10,0,0,1,414
768,2,1,54,3,0,0,1,980
769,2,1,55,5,0,0,1,531
770,2,1,56,10,0,0,1,520
771,2,1,57,5,0,0,1,972
772,2,1,58,3,1,1,1,800
773,2,1,59,20,1,1,1,684
774,2,1,60,10,0,0,1,775
775,2,1,61,10,1,1,1,701
776,2,1,62,5,0,0,1,441
777,2,1,63,20,0,0,1,619
778,2,1,64,32,1,1,1,418
779,2,1,65,1,1,1,1,814
780,2,1,66,20,1,1,1,601
781,2,1,67,3,1,1,1,546
782,2,1,68,20,1,1,1,524
783,2,1,69,5,0,0,1,715
784,2,1,70,20,1,1,1,739
785,2,1,71,5,1,1,1,822
786,2,1,72,10,1,1,1,508
787,2,1,73,1,0,0,1,1079
788,2,1,74,1,1,1,1,572
789,2,1,75,1,0,0,1,509
790,2,1,76,10,0,0,1,805
791,2,1,77,5,1,1,1,986
792,2,1,78,5,0,0,1,584
793,2,1,79,10,0,0,1,761
794,2,1,80,32,1,1,1,666
795,2,1,81,5,0,0,1,888
796,2,1,82,32,0,0,1,791
797,2,1,83,5,0,0,1,433
798,2,1,84,32,1,1,1,962
799,2,1,85,20,1,1,1,842
800,2,1,86,10,0,0,1,603
801,2,1,87,5,0,0,1,615
802,2,1,88,3,0,0,1,877
803,2,1,89,10,0,0,1,627
804,2,1,90,5,0,0,1,442
805,2,1,91,3,0,0,1,741
806,2,1,92,5,0,0,1,787
807,2,1,93,32,1,1,0,614
808,2,1,94,3,1,1,1,980
809,2,1,95,10,1,1,1,654
810,2,1,96,3,1,1,1,760
811,2,1,97,32,1,1,1,662
812,2,1,98,10,1,1,1,555
813,2,1,99,10,1,1,1,991
814,2,1,100,3,0,0,0,1026
815,2,1,101,5,1,1,1,832
816,2,1,102,1,0,0,1,667
817,2,1,103,32,1,1,1,901
818,2,1,104,20,0,0,1,577
819,2,1,105,5,1,1,1,535
820,2,1,106,10,1,1,1,692
821,2,1,107,32,0,0,1,723
822,2,1,108,20,1,1,1,740
823,2,1,109,32,1,1,1,565
824,2,1,110,10,0,0,1,599
825,2,1,111,5,1,1,1,533
826,2,1,112,32,0,0,0,528
827,2,1,113,32,0,0,1,797
828,2,1,114,20,0,0,1,581
829,2,1,115,10,1,1,1,745
830,2,1,116,10,0,0,1,552
831,2,1,117,1,0,0,1,960
832,2,1,118,3,0,0,1,529
833,2,1,119,3,0,0,1,774
834,2,1,120,32,1,1,1,572
835,2,1,121,3,0,0,1,632
836,2,1,122,20,0,0,1,673
837,2,1,123,5,0,0,1,644
838,2,1,124,1,0,0,1,666
839,2,1,125,10,0,0,1,548
840,2,1,126,3,0,0,1,585
841,2,1,127,1,0,0,1,683
842,2,1,128,1,0,0,1,395
843,2,1,129,1,1,1,1,401
844,2,1,130,10,0,0,1,657
845,2,1,131,20,1,1,1,625
846,2,1,132,20,1,1,1,784
847,2,1,133,10,0,0,1,706
848,2,1,134,32,0,0,1,570
849,2,1,135,1,1,1,1,508
850,2,1,136,3,0,0,1,714
851,2,1,137,5,0,0,1,517
852,2,1,138,3,1,1,1,715
853,2,1,139,5,0,0,1,788
854,2,1,140,5,1,1,1,442
855,2,1,141,20,0,0,1,659
856,2,1,142,3,0,0,1,657
857,2,1,143,20,1,1,1,393
858,2,1,144,20,1,1,0,437
859,2,1,145,20,0,0,1,575
860,2,1,146,5,1,1,1,575
861,2,1,147,20,1,1,1,594
862,2,1,148,20,1,1,1,433
863,2,1,149,1,1,1,1,606
864,2,1,150,1,1,1,1,434
865,2,1,151,5,1,1,1,605
866,2,1,152,20,0,0,1,619
867,2,1,153,3,0,0,0,618
868,2,1,154,5,0,0,1,870
869,2,1,155,1,0,0,1,566
870,2,1,156,32,0,0,1,711
871,2,1,157,1,0,0,1,486
872,2,1,158,1,0,0,1,471
873,2,1,159,3,1,1,1,742
874,2,1,160,5,1,1,1,952
875,2,1,161,3,0,0,1,507
876,2,1,162,32,1,1,1,565
877,2,1,163,20,0,0,1,650
878,2,1,164,32,0,0,1,503
879,2,1,165,20,0,0,1,504
880,2,1,166,10,1,1,1,511
881,2,1,167,32,0,0,1,670
882,2,1,168,10,0,0,1,581
883,2,1,169,1,1,1,1,444
884,2,1,170,32,1,1,1,549
885,2,1,171,5,1,1,1,640
886,2,1,172,32,0,0,1,689
887,2,1,173,20,1,1,0,528
888,2,1,174,10,1,1,1,741
889,2,1,175,32,0,0,1,696
890,2,1,176,3,0,0,1,721
891,2,1,177,32,0,0,1,702
892,2,1,178,20,0,0,1,674
893,2,1,179,10,0,0,1,658
894,2,1,180,32,1,1,1,503
895,2,1,181,10,1,1,1,395
896,2,1,182,3,0,0,1,642
897,2,1,183,3,1,1,1,542
898,2,1,184,20,0,0,1,764
899,2,1,185,3,0,0,1,658
900,2,1,186,20,0,0,1,632
901,2,1,187,1,1,1,1,626
902,2,1,188,1,0,0,1,577
903,2,1,189,1,0,0,1,406
904,2,1,190,10,1,1,1,518
905,2,1,191,3,0,0,1,603
906,2,1,192,3,0,0,1,780
907,2,1,193,10,1,1,1,499
908,2,1,194,1,0,0,1,995
909,2,1,195,3,0,0,1,764
910,2,1,196,1,1,1,1,333
911,2,1,197,3,1,1,1,757
912,2,1,198,1,0,0,1,382
913,2,1,199,3,1,1,1,542
914,2,1,200,5,1,1,1,439
915,2,1,201,3,1,1,1,638
916,2,1,202,32,1,1,1,586
917,2,1,203,3,1,1,1,701
918,2,1,204,32,1,1,1,549
919,2,1,205,32,0,0,1,596
920,2,1,206,1,0,0,1,499
921,2,1,207,5,0,0,1,669
922,2,1,208,32,0,0,1,891
923,2,1,209,20,0,0,1,538
924,2,1,210,10,0,0,0,359
925,2,1,211,20,0,0,1,539
926,2,1,212,32,1,1,1,529
927,2,1,213,32,0,0,1,528
928,2,1,214,20,0,0,1,744
929,2,1,215,32,0,0,1,489
930,2,1,216,10,1,1,1,638
931,2,1,217,20,1,1,1,480
932,2,1,218,32,1,1,1,619
933,2,1,219,1,0,0,1,913
934,2,1,220,5,0,0,1,729
935,2,1,221,3,1,1,1,649
936,2,1,222,1,1,1,1,460
937,2,1,223,20,1,1,1,669
938,2,1,224,32,0,0,1,576
939,2,1,225,20,0,0,1,575
940,2,1,226,1,0,0,1,406
941,2,1,227,3,0,0,1,750
942,2,1,228,10,1,1,1,632
943,2,1,229,1,0,0,1,524
944,2,1,230,3,1,1,1,605
945,2,1,231,20,1,1,1,548
946,2,1,232,1,1,1,1,548
947,2,1,233,1,1,1,1,447
948,2,1,234,1,1,1,1,479
949,2,1,235,3,1,1,1,595
950,2,1,236,20,0,0,1,517
951,2,1,237,5,1,1,1,581
952,2,1,238,5,1,1,1,912
953,2,1,239,3,1,1,1,674
954,2,1,240,1,1,1,1,687
955,2,1,241,1,1,1,1,395
956,2,1,242,5,0,0,1,635
957,2,1,243,20,1,1,1,426
958,2,1,244,1,1,1,1,483
959,2,1,245,1,1,1,1,448
960,2,1,246,3,1,1,1,590
961,2,1,247,32,1,1,1,514
962,2,1,248,3,0,0,1,723
963,2,1,249,10,0,0,1,515
964,2,1,250,1,0,0,1,611
965,2,1,251,5,1,1,1,497
966,2,1,252,20,0,0,1,469
967,2,1,253,5,0,0,1,519
968,2,1,254,20,0,0,1,608
969,2,1,255,32,0,0,1,694
970,2,1,256,5,0,0,1,572
971,2,1,257,1,1,1,1,440
972,2,1,258,32,1,1,1,638
973,2,1,259,3,0,0,1,920
974,2,1,260,1,0,0,1,353
975,2,1,261,20,0,0,1,560
976,2,1,262,5,1,1,1,588
977,2,1,263,32,1,1,1,602
978,2,1,264,5,0,0,1,536
979,2,1,265,3,0,0,1,523
980,2,1,266,1,0,0,1,523
981,2,1,267,1,1,1,1,395
982,2,1,268,32,0,0,1,537
983,2,1,269,1,1,1,1,421
984,2,1,270,20,0,0,1,491
985,2,1,271,1,0,0,1,433
986,2,1,272,5,1,1,1,527
987,2,1,273,32,0,0,1,633
988,2,1,274,32,0,0,1,582
989,2,1,275,10,1,1,1,394
990,2,1,276,20,0,0,1,566
991,2,1,277,32,0,0,1,556
992,2,1,278,5,0,0,1,517
993,2,1,279,32,1,1,1,664
994,2,1,280,10,0,0,1,606
995,2,1,281,20,0,0,1,536
996,2,1,282,20,0,0,1,511
997,2,1,283,1,1,1,1,395
998,2,1,284,3,1,1,1,785
999,2,1,285,32,0,0,1,518
1000,2,1,286,1,0,0,1,403
1001,2,1,287,1,1,1,1,360
1002,2,1,288,1,1,1,1,436
1003,2,1,289,10,0,0,1,535
1004,2,1,290,32,0,0,1,508
1005,2,1,291,1,1,1,1,653
1006,2,1,292,3,0,0,1,711
1007,2,1,293,32,1,1,1,482
1008,2,1,294,10,1,1,1,583
1009,2,1,295,20,1,1,1,601
1010,2,1,296,1,1,1,1,357
1011,2,1,297,10,1,1,1,567
1012,2,1,298,5,1,1,1,672
1013,2,1,299,32,1,1,1,591
1014,2,1,300,3,1,1,1,553
1015,2,1,301,3,0,0,1,551
1016,2,1,302,5,1,1,1,740
1017,2,1,303,3,0,0,1,688
1018,2,1,304,5,1,1,1,407
1019,2,1,305,32,0,0,1,529
1020,2,1,306,20,0,0,1,580
1021,2,1,307,10,1,1,1,479
1022,2,1,308,32,0,0,1,621
1023,2,1,309,5,1,1,1,661
1024,2,1,310,5,0,0,1,884
1025,2,1,311,1,1,1,1,451
1026,2,1,312,1,1,1,1,365
1027,2,1,313,10,0,0,1,642
1028,2,1,314,32,1,1,1,499
1029,2,1,315,3,1,1,1,578
1030,2,1,316,32,1,1,1,525
1031,2,1,317,10,0,0,1,593
1032,2,1,318,5,0,0,1,596
1033,2,1,319,10,0,0,1,619
1034,2,1,320,5,1,1,1,534
1035,2,1,321,32,0,0,1,1186
1036,2,1,322,10,1,1,1,633
1037,2,1,323,20,1,1,1,620
1038,2,1,324,3,0,0,1,1101
1039,2,1,325,3,1,1,1,981
1040,2,1,326,10,1,1,1,692
1041,2,1,327,10,0,0,1,796
1042,2,1,328,20,0,0,1,588
1043,2,1,329,3,0,0,1,681
1044,2,1,330,5,0,0,1,677
1045,2,1,331,3,0,0,1,696
1046,2,1,332,20,1,1,1,676
1047,2,1,333,3,1,1,1,663
1048,2,1,334,32,1,1,1,743
1049,2,1,335,20,0,0,1,569
1050,2,1,336,1,0,0,1,1127
1051,2,1,337,10,1,1,1,607
1052,2,1,338,1,1,1,1,496
1053,2,1,339,3,0,0,1,620
1054,2,1,340,3,1,1,1,772
1055,2,1,341,5,0,0,1,627
1056,2,1,342,1,0,0,1,472
1057,2,1,343,32,1,1,1,603
1058,2,1,344,32,0,0,1,502
1059,2,1,345,5,1,1,1,408
1060,2,1,346,3,1,1,1,667
1061,2,1,347,10,1,1,1,553
1062,2,1,348,32,0,0,1,647
1063,2,1,349,5,0,0,1,713
1064,2,1,350,1,1,1,1,395
1065,2,1,351,10,0,0,1,575
1066,2,1,352,5,1,1,1,478
1067,2,1,353,32,1,1,1,817
1068,2,1,354,32,1,1,1,556
1069,2,1,355,20,1,1,1,506
1070,2,1,356,20,0,0,1,713
1071,2,1,357,10,1,1,1,708
1072,2,1,358,5,0,0,1,606
1073,2,1,359,20,0,0,1,622
1074,2,1,360,5,1,1,1,507
1075,2,1,361,32,0,0,1,600
1076,2,1,362,3,0,0,1,507
1077,2,1,363,10,0,0,0,531
1078,2,1,364,1,1,1,1,379
1079,2,1,365,20,1,1,1,720
1080,2,1,366,32,0,0,1,687
1081,2,1,367,32,0,0,1,523
1082,2,1,368,20,1,1,1,779
1083,2,1,369,32,0,0,1,602
1084,2,1,370,20,0,0,1,679
1085,2,1,371,20,1,1,1,530
1086,2,1,372,3,1,1,1,621
1087,2,1,373,5,0,0,1,907
1088,2,1,374,20,1,1,1,512
1089,2,1,375,1,1,1,1,488
1090,2,1,376,1,0,0,1,875
1091,2,1,377,20,0,0,1,755
1092,2,1,378,5,1,1,1,450
1093,2,1,379,5,1,1,1,668
1094,2,1,380,1,0,0,1,701
1095,2,1,381,32,0,0,1,620
1096,2,1,382,32,0,0,1,539
1097,2,1,383,20,1,1,1,706
1098,2,1,384,5,0,0,1,497
1099,2,1,385,32,0,0,1,593
1100,2,1,386,5,1,1,1,535
1101,2,1,387,10,0,0,1,665
1102,2,1,388,5,0,0,1,575
1103,2,1,389,20,1,1,1,499
1104,2,1,390,1,0,0,1,477
1105,2,1,391,3,1,1,1,706
1106,2,1,392,10,1,1,1,470
1107,2,1,393,20,1,1,1,448
1108,2,1,394,10,0,0,1,566
1109,2,1,395,10,1,1,1,456
1110,2,1,396,1,0,0,1,543
1111,2,1,397,10,0,0,1,603
1112,2,1,398,3,0,0,0,495
1113,2,1,399,1,0,0,1,655
1114,2,1,400,3,0,0,1,970
1115,2,1,401,10,1,1,1,684
1116,2,1,402,32,1,1,1,558
1117,2,1,403,10,0,0,1,524
1118,2,1,404,5,0,0,1,589
1119,2,1,405,20,1,1,1,635
1120,2,1,406,3,1,1,1,515
1121,2,1,407,32,1,1,1,673
1122,2,1,408,5,0,0,1,437
1123,2,1,409,3,0,0,1,528
1124,2,1,410,10,1,1,1,588
1125,2,1,411,10,1,1,1,564
1126,2,1,412,10,0,0,1,655
1127,2,1,413,1,0,0,1,419
1128,2,1,414,1,0,0,1,383
1129,2,1,415,5,1,1,1,576
1130,2,1,416,32,0,0,1,564
1131,2,1,417,5,0,0,1,696
1132,2,1,418,1,0,0,1,496
1133,2,1,419,10,0,0,1,575
1134,2,1,420,32,0,0,0,771
1135,2,1,421,32,1,1,1,632
1136,2,1,422,5,1,1,1,630
1137,2,1,423,5,0,0,1,821
1138,2,1,424,20,0,0,1,573
1139,2,1,425,5,0,0,1,549
1140,2,1,426,1,0,0,1,537
1141,2,1,427,3,1,1,1,905
1142,2,1,428,5,0,0,1,539
1143,2,1,429,1,1,1,1,875
1144,2,1,430,5,1,1,1,737
1145,2,1,431,20,0,0,1,457
1146,2,1,432,5,1,1,1,572
1147,2,1,433,5,1,1,1,544
1148,2,1,434,1,0,0,1,538
1149,2,1,435,10,1,1,1,610
1150,2,1,436,20,0,0,1,581
1151,2,1,437,10,1,1,1,461
1152,2,1,438,20,1,1,1,551
1153,2,1,439,1,0,0,1,752
1154,2,1,440,32,1,1,1,474
1155,2,1,441,1,0,0,1,450
1156,2,1,442,10,1,1,1,693
1157,2,1,443,20,1,1,1,527
1158,2,1,444,10,1,1,1,497
1159,2,1,445,10,0,0,1,535
1160,2,1,446,1,1,1,1,451
1161,2,1,447,20,1,1,1,558
1162,2,1,448,3,1,1,1,617
1163,2,1,449,32,1,1,1,594
1164,2,1,450,10,0,0,1,643
1165,2,1,451,1,1,1,1,838
1166,2,1,452,10,1,1,1,568
1167,2,1,453,3,1,1,1,499
1168,2,1,454,3,1,1,1,742
1169,2,1,455,32,0,0,1,527
1170,2,1,456,32,1,1,1,405
1171,2,1,457,5,1,1,1,507
1172,2,1,458,20,1,1,1,798
1173,2,1,459,1,1,3,0,497
1174,2,1,460,32,0,0,1,634
1175,2,1,461,3,0,0,1,623
1176,2,1,462,20,1,1,1,596
1177,2,1,463,32,0,0,1,679
1178,2,1,464,3,0,0,0,666
1179,2,1,465,3,0,0,1,492
1180,2,1,466,5,0,0,1,705
1181,2,1,467,32,1,1,1,602
1182,2,1,468,10,0,0,1,738
1183,2,1,469,32,1,1,1,582
1184,2,1,470,20,1,1,1,530
1185,2,1,471,20,1,1,1,680
1186,2,1,472,3,1,1,1,470
1187,2,1,473,20,1,1,1,566
1188,2,1,474,3,0,0,1,782
1189,2,1,475,32,0,0,1,609
1190,2,1,476,32,1,1,1,475
1191,2,1,477,1,1,1,1,472
1192,2,1,478,32,1,1,1,629
1193,2,1,479,5,1,1,1,627
1194,2,1,480,10,1,1,1,532
1195,2,1,481,1,1,1,1,456
1196,2,1,482,5,1,1,1,446
1197,2,1,483,1,1,1,1,367
1198,2,1,484,1,1,1,1,345
1199,2,1,485,3,0,0,1,769
1200,2,1,486,5,0,0,1,608
1201,2,1,487,10,0,0,1,477
1202,2,1,488,5,0,0,1,714
1203,2,1,489,32,1,1,1,726
1204,2,1,490,5,1,1,1,671
1205,2,1,491,32,1,1,1,434
1206,2,1,492,3,0,0,1,673
1207,2,1,493,3,0,0,1,1054
1208,2,1,494,10,0,0,1,548
1209,2,1,495,10,0,0,1,498
1210,2,1,496,20,1,1,1,488
1211,2,1,497,10,0,0,1,706
1212,2,1,498,10,0,0,1,598
1213,2,1,499,5,0,0,1,777
1214,2,1,500,3,1,1,1,556
1215,2,1,501,20,1,1,1,570
1216,2,1,502,5,1,1,1,442
1217,2,1,503,20,1,1,1,490
1218,2,1,504,32,1,1,1,500
1219,2,1,505,5,0,0,1,678
1220,2,1,506,3,0,0,1,514
1221,2,1,507,1,0,0,1,509
1222,2,1,508,32,1,1,1,593
1223,2,1,509,1,1,1,1,610
1224,2,1,510,32,0,0,1,596
1225,2,1,511,10,1,1,1,545
1226,2,1,512,10,1,1,1,573
1227,2,1,513,5,1,1,1,553
1228,2,1,514,32,0,0,1,616
1229,2,1,515,3,1,1,1,634
1230,2,1,516,32,1,1,0,592
1231,2,1,517,3,1,1,1,502
1232,2,1,518,1,1,1,1,464
1233,2,1,519,3,0,0,1,774
1234,2,1,520,10,1,1,1,535
1235,2,1,521,5,1,1,1,617
1236,2,1,522,5,0,0,1,688
1237,2,1,523,32,1,1,1,553
1238,2,1,524,20,0,0,1,579
1239,2,1,525,32,1,1,1,588
1240,2,1,526,5,1,1,1,758
1241,2,1,527,1,1,1,1,435
1242,2,1,528,20,0,0,1,650
1243,2,1,529,3,1,1,1,631
1244,2,1,530,3,0,0,1,508
1245,2,1,531,1,0,0,1,403
1246,2,1,532,1,0,0,1,425
1247,2,1,533,20,1,1,1,533
1248,2,1,534,10,1,1,1,717
1249,2,1,535,10,0,0,1,452
1250,2,1,536,10,0,0,1,573
1251,2,1,537,5,0,0,1,607
1252,2,1,538,32,0,0,1,480
1253,2,1,539,10,0,0,1,390
1254,2,1,540,20,1,1,1,524
1255,2,1,541,5,1,1,1,487
1256,2,1,542,3,1,1,1,584
1257,2,1,543,32,0,0,1,645
1258,2,1,544,3,1,1,1,635
1259,2,1,545,20,1,1,1,678
1260,2,1,546,1,0,0,1,431
1261,2,1,547,20,0,0,1,600
1262,2,1,548,3,1,1,1,709
1263,2,1,549,1,0,0,1,509
1264,2,1,550,32,1,1,1,688
1265,2,1,551,1,1,1,1,419
1266,2,1,552,20,0,0,1,559
1267,2,1,553,5,0,0,1,587
1268,2,1,554,20,0,0,1,550
1269,2,1,555,5,0,0,1,555
1270,2,1,556,3,1,1,1,492
1271,2,1,557,10,0,0,1,544
1272,2,1,558,3,1,1,1,451
1273,2,1,559,20,0,0,1,800
1274,2,1,560,1,1,1,1,366
1275,2,1,561,3,1,1,1,643
1276,2,1,562,3,1,1,1,798
1277,2,1,563,32,1,1,1,614
1278,2,1,564,32,0,0,1,910
1279,2,1,565,20,0,0,1,435
1280,2,1,566,5,1,1,1,456
1281,2,1,567,32,1,1,0,639
1282,2,1,568,3,1,1,1,710
1283,2,1,569,32,0,0,1,629
1284,2,1,570,20,1,1,1,469
1285,2,1,571,5,1,1,1,448
1286,2,1,572,3,1,1,1,659
1287,2,1,573,1,0,0,1,443
1288,2,1,574,3,0,0,1,550
1289,2,1,575,5,1,1,1,1525
1290,2,1,576,10,0,0,1,533
1291,2,1,577,3,0,0,1,596
1292,2,1,578,1,0,0,1,534
1293,2,1,579,10,0,0,1,587
1294,2,1,580,20,0,0,1,512
1295,2,1,581,20,0,0,1,566
1296,2,1,582,10,1,1,1,638
1297,2,1,583,1,1,1,1,475
1298,2,1,584,10,1,1,1,617
1299,2,1,585,20,1,1,1,405
1300,2,1,586,5,1,1,1,669
1301,2,1,587,20,0,0,1,672
1302,2,1,588,32,1,1,1,599
1303,2,1,589,5,1,1,1,513
1304,2,1,590,5,1,1,1,473
1305,2,1,591,3,1,1,1,449
1306,2,1,592,20,0,0,1,534
1307,2,1,593,32,1,1,1,547
1308,2,1,594,1,0,0,1,453
1309,2,1,595,1,0,0,1,452
1310,2,1,596,1,0,0,1,392
1311,2,1,597,10,1,1,1,591
1312,2,1,598,20,0,0,1,447
1313,2,1,599,1,0,0,1,537
1314,2,1,600,1,0,0,1,414
1315,2,1,601,10,0,0,1,575
1316,2,1,602,1,1,1,1,383
1317,2,1,603,1,1,1,1,428
1318,2,1,604,32,0,0,1,525
1319,2,1,605,10,0,0,1,536
1320,2,1,606,20,0,0,1,515
1321,2,1,607,5,0,0,1,523
1322,2,1,608,3,0,0,1,566
1323,2,1,609,20,1,1,1,588
1324,2,1,610,3,0,0,1,648
1325,2,1,611,20,1,1,1,480
1326,2,1,612,20,1,1,1,455
1327,2,1,613,20,0,0,1,590
1328,2,1,614,20,1,1,1,451
1329,2,1,615,5,1,1,1,464
1330,2,1,616,20,0,0,1,657
1331,2,1,617,3,1,1,1,630
1332,2,1,618,3,0,0,1,641
1333,2,1,619,32,1,1,1,401
1334,2,1,620,10,0,0,1,520
1335,2,1,621,5,1,1,1,598
1336,2,1,622,5,0,0,1,522
1337,2,1,623,5,0,0,1,476
1338,2,1,624,20,1,1,1,432
1339,2,1,625,5,0,0,1,528
1340,2,1,626,3,1,1,1,488
1341,2,1,627,1,1,1,1,351
1342,2,1,628,10,1,1,1,509
1343,2,1,629,32,1,1,1,494
1344,2,1,630,32,1,1,0,440
1345,2,1,631,20,1,1,1,637
1346,2,1,632,5,0,0,1,459
1347,2,1,633,32,0,0,1,510
1348,2,1,634,32,1,1,1,394
1349,2,1,635,20,1,1,1,570
1350,2,1,636,1,1,1,1,394
1351,2,1,637,32,0,0,1,588
1352,2,1,638,1,0,0,1,453
1353,2,1,639,32,0,0,1,529
1354,2,1,640,1,0,0,1,434
1355,2,1,641,3,0,0,1,1213
1356,2,1,642,20,1,1,1,447
1357,2,1,643,3,1,1,1,501
1358,2,1,644,20,0,0,1,563
1359,2,1,645,1,1,1,1,382
1360,2,1,646,5,1,1,1,618
1361,2,1,647,1,0,0,1,446
1362,2,1,648,5,0,0,1,574
1363,2,1,649,10,1,1,1,638
1364,2,1,650,20,1,1,1,548
1365,2,1,651,20,0,0,1,552
1366,2,1,652,5,0,0,1,828
1367,2,1,653,10,1,1,1,438
1368,2,1,654,20,1,1,1,572
1369,2,1,655,5,1,1,1,609
1370,2,1,656,32,0,0,1,574
1371,2,1,657,1,1,1,1,432
1372,2,1,658,3,1,1,1,621
1373,2,1,659,1,1,1,1,696
1374,2,1,660,3,0,0,1,854
1375,2,1,661,10,0,0,1,477
1376,2,1,662,3,1,1,1,523
1377,2,1,663,10,1,1,1,541
1378,2,1,664,32,0,0,1,604
1379,2,1,665,32,0,0,1,585
1380,2,1,666,3,0,0,1,1163
1381,2,1,667,3,0,0,1,919
1382,2,1,668,5,1,1,1,415
1383,2,1,669,32,1,1,1,552
1384,2,1,670,10,0,0,1,519
1385,2,1,671,3,0,0,1,818
1386,2,1,672,5,0,0,1,528
1387,2,1,673,20,0,0,1,447
1388,2,1,674,32,0,0,1,449
1389,2,1,675,10,0,0,1,509
1390,2,1,676,1,1,1,1,474
1391,2,1,677,10,1,1,1,363
1392,2,1,678,1,1,1,1,355
1393,2,1,679,3,1,1,1,657
1394,2,1,680,32,1,1,1,505
1395,2,1,681,10,1,1,1,454
1396,2,1,682,32,0,0,1,518
1397,2,1,683,5,0,0,1,560
1398,2,1,684,3,0,0,1,766
1399,2,1,685,10,0,0,1,631
1400,2,1,686,1,0,0,1,417
1401,2,1,687,3,0,0,1,538
1402,2,1,688,3,0,0,1,487
1403,2,1,689,10,1,1,1,475
1404,2,1,690,3,0,0,1,531
1405,2,1,691,5,1,1,1,648
1406,2,1,692,10,1,1,1,618
1407,2,1,693,20,0,0,1,607
1408,2,1,694,10,1,1,1,505
1409,2,1,695,1,0,0,1,442
1410,2,1,696,3,1,1,1,715
1411,2,1,697,20,0,0,1,588
1412,2,1,698,1,0,0,1,408
1413,2,1,699,5,1,1,1,650
1414,2,1,700,5,1,1,1,532
1415,2,1,701,20,1,1,1,547
1416,2,1,702,32,0,0,1,518
1417,2,1,703,1,1,1,1,464
1418,2,1,704,32,0,0,1,607
1419,2,1,705,5,0,0,0,575
1420,2,1,706,32,1,1,1,419
1421,2,1,707,10,0,0,1,636
1422,2,1,708,1,0,0,1,439
1423,2,1,709,1,1,1,1,513
1424,2,1,710,20,1,1,1,604
1425,2,1,711,5,0,0,1,534
1426,2,1,712,32,1,1,1,405
1427,2,1,713,5,0,0,1,747
1428,2,1,714,10,0,0,1,501
1429,3,1,1,10,1,1,1,1400
1430,3,1,2,5,1,1,1,953
1431,3,1,3,32,1,1,1,705
1432,3,1,4,1,1,1,1,419
1433,3,1,5,5,1,1,1,587
1434,3,1,6,1,1,1,1,848
1435,3,1,7,5,1,1,1,523
1436,3,1,8,20,0,0,1,745
1437,3,1,9,32,0,0,1,628
1438,3,1,10,3,0,0,1,634
1439,3,1,11,32,0,0,1,681
1440,3,1,12,5,1,1,1,673
1441,3,1,13,5,1,1,1,699
1442,3,1,14,32,0,0,1,486
1443,3,1,15,3,0,0,1,649
1444,3,1,16,5,0,0,1,627
1445,3,1,17,20,1,1,1,510
1446,3,1,18,20,1,1,1,446
1447,3,1,19,20,0,0,1,479
1448,3,1,20,1,0,0,1,636
1449,3,1,21,10,1,1,1,593
1450,3,1,22,20,1,1,1,679
1451,3,1,23,20,1,1,1,489
1452,3,1,24,5,1,1,1,384
1453,3,1,25,32,0,0,1,452
1454,3,1,26,3,1,1,1,597
1455,3,1,27,32,0,0,1,513
1456,3,1,28,5,0,0,1,690
1457,3,1,29,3,0,0,1,626
1458,3,1,30,1,0,0,1,426
1459,3,1,31,5,0,0,1,444
1460,3,1,32,5,0,0,0,439
1461,3,1,33,3,0,0,1,581
1462,3,1,34,10,1,1,1,522
1463,3,1,35,10,0,0,1,541
1464,3,1,36,20,0,0,1,462
1465,3,1,37,5,0,0,1,570
1466,3,1,38,32,0,0,1,549
1467,3,1,39,5,0,0,1,559
1468,3,1,40,3,1,1,1,486
1469,3,1,41,20,0,0,1,534
1470,3,1,42,5,0,0,1,506
1471,3,1,43,1,1,1,1,1082
1472,3,1,44,5,1,1,1,651
1473,3,1,45,5,0,0,1,546
1474,3,1,46,32,1,1,1,620
1475,3,1,47,5,1,1,1,1007
1476,3,1,48,3,1,1,1,744
1477,3,1,49,10,1,1,1,439
1478,3,1,50,32,0,0,1,597
1479,3,1,51,1,1,1,1,397
1480,3,1,52,32,1,1,1,604
1481,3,1,53,10,0,0,1,568
1482,3,1,54,5,1,1,1,654
1483,3,1,55,20,1,1,1,508
1484,3,1,56,10,1,1,1,755
1485,3,1,57,10,1,1,1,583
1486,3,1,58,3,0,0,1,927
1487,3,1,59,20,1,1,1,432
1488,3,1,60,5,1,1,1,433
1489,3,1,61,20,0,0,1,590
1490,3,1,62,10,1,1,1,535
1491,3,1,63,10,1,1,1,821
1492,3,1,64,5,0,0,1,936
1493,3,1,65,32,1,1,1,631
1494,3,1,66,32,1,1,1,443
1495,3,1,67,20,1,1,1,791
1496,3,1,68,10,0,0,1,548
1497,3,1,69,1,0,0,1,585
1498,3,1,70,5,0,0,1,515
1499,3,1,71,32,0,0,1,438
1500,3,1,72,1,1,1,1,445
1501,3,1,73,3,0,0,1,570
1502,3,1,74,3,1,1,1,429
1503,3,1,75,3,0,0,1,650
1504,3,1,76,10,1,1,1,452
1505,3,1,77,1,0,0,1,434
1506,3,1,78,10,0,0,1,460
1507,3,1,79,5,1,1,1,464
1508,3,1,80,32,0,0,1,439
1509,3,1,81,32,1,1,1,466
1510,3,1,82,20,1,1,1,399
1511,3,1,83,1,0,0,1,484
1512,3,1,84,1,1,1,1,389
1513,3,1,85,5,0,0,1,1040
1514,3,1,86,1,1,1,1,586
1515,3,1,87,1,1,1,1,327
1516,3,1,88,20,1,1,1,504
1517,3,1,89,32,1,1,1,387
1518,3,1,90,32,1,1,1,418
1519,3,1,91,10,0,0,1,452
1520,3,1,92,3,1,1,1,376
1521,3,1,93,10,1,1,1,514
1522,3,1,94,5,0,0,1,621
1523,3,1,95,3,1,1,1,388
1524,3,1,96,5,0,0,1,490
1525,3,1,97,32,0,0,1,558
1526,3,1,98,5,1,1,1,554
1527,3,1,99,3,1,1,1,862
1528,3,1,100,10,1,1,1,411
1529,3,1,101,20,0,0,1,531
1530,3,1,102,1,0,0,1,405
1531,3,1,103,32,1,1,1,482
1532,3,1,104,5,1,1,1,444
1533,3,1,105,5,1,1,1,452
1534,3,1,106,10,0,0,1,543
1535,3,1,107,20,1,1,1,605
1536,3,1,108,3,1,1,1,524
1537,3,1,109,32,0,0,1,540
1538,3,1,110,1,0,0,1,546
1539,3,1,111,32,1,1,1,412
1540,3,1,112,1,0,0,1,400
1541,3,1,113,5,1,1,1,588
1542,3,1,114,1,1,1,1,370
1543,3,1,115,20,0,0,1,496
1544,3,1,116,20,0,0,1,445
1545,3,1,117,32,1,1,1,397
1546,3,1,118,5,0,0,1,440
1547,3,1,119,3,0,0,1,550
1548,3,1,120,5,1,1,1,426
1549,3,1,121,1,0,0,1,459
1550,3,1,122,20,0,0,1,512
1551,3,1,123,20,1,1,1,572
1552,3,1,124,32,1,1,1,459
1553,3,1,125,20,1,1,1,423
1554,3,1,126,32,1,1,1,589
1555,3,1,127,20,0,0,1,534
1556,3,1,128,5,0,0,1,460
1557,3,1,129,1,0,0,1,428
1558,3,1,130,10,1,1,1,428
1559,3,1,131,10,0,0,1,526
1560,3,1,132,3,0,0,1,848
1561,3,1,133,32,0,0,1,661
1562,3,1,134,32,1,1,1,667
1563,3,1,135,10,0,0,1,540
1564,3,1,136,32,1,1,1,425
1565,3,1,137,3,1,1,1,644
1566,3,1,138,5,0,0,1,510
1567,3,1,139,20,0,0,1,478
1568,3,1,140,10,1,1,1,490
1569,3,1,141,10,1,1,1,755
1570,3,1,142,3,1,1,1,454
1571,3,1,143,32,0,0,1,502
1572,3,1,144,5,1,1,1,481
1573,3,1,145,20,0,0,1,661
1574,3,1,146,5,1,1,1,448
1575,3,1,147,3,0,0,1,684
1576,3,1,148,5,1,1,1,703
1577,3,1,149,20,1,1,1,697
1578,3,1,150,3,0,0,1,800
1579,3,1,151,3,1,1,1,639
1580,3,1,152,1,0,0,1,530
1581,3,1,153,20,0,0,1,569
1582,3,1,154,1,0,0,1,453
1583,3,1,155,10,0,0,1,653
1584,3,1,156,1,1,1,1,413
1585,3,1,157,5,1,1,0,417
1586,3,1,158,3,1,1,1,710
1587,3,1,159,3,1,1,1,708
1588,3,1,160,1,1,1,1,381
1589,3,1,161,32,1,1,1,633
1590,3,1,162,20,0,0,1,597
1591,3,1,163,3,0,0,1,705
1592,3,1,164,20,1,1,1,492
1593,3,1,165,20,0,0,1,546
1594,3,1,166,3,1,1,1,557
1595,3,1,167,1,0,0,1,397
1596,3,1,168,32,0,0,1,520
1597,3,1,169,1,1,1,1,568
1598,3,1,170,1,0,0,1,409
1599,3,1,171,1,1,1,1,379
1600,3,1,172,10,0,0,1,443
1601,3,1,173,32,1,1,1,537
1602,3,1,174,10,1,1,1,419
1603,3,1,175,5,1,1,1,725
1604,3,1,176,5,0,0,1,591
1605,3,1,177,1,0,0,1,535
1606,3,1,178,5,0,0,1,760
1607,3,1,179,32,0,0,1,1023
1608,3,1,180,10,0,0,1,730
1609,3,1,181,1,0,0,1,454
1610,3,1,182,3,1,1,1,492
1611,3,1,183,3,0,0,1,939
1612,3,1,184,1,0,0,1,522
1613,3,1,185,10,0,0,1,755
1614,3,1,186,3,0,0,1,541
1615,3,1,187,3,0,0,1,449
1616,3,1,188,32,1,1,1,458
1617,3,1,189,20,1,1,1,445
1618,3,1,190,1,0,0,1,464
1619,3,1,191,3,1,1,1,785
1620,3,1,192,32,1,1,1,704
1621,3,1,193,1,0,0,1,480
1622,3,1,194,20,0,0,1,552
1623,3,1,195,20,0,0,1,558
1624,3,1,196,3,0,0,1,701
1625,3,1,197,32,0,0,1,440
1626,3,1,198,1,1,1,1,452
1627,3,1,199,20,1,1,1,588
1628,3,1,200,10,1,1,1,450
1629,3,1,201,20,0,0,1,530
1630,3,1,202,10,1,1,1,432
1631,3,1,203,3,1,1,1,421
1632,3,1,204,32,1,1,1,571
1633,3,1,205,3,1,1,1,724
1634,3,1,206,1,0,0,1,515
1635,3,1,207,5,0,0,1,613
1636,3,1,208,1,0,0,1,446
1637,3,1,209,5,1,1,1,466
1638,3,1,210,5,1,1,1,529
1639,3,1,211,3,0,0,0,851
1640,3,1,212,32,1,1,1,707
1641,3,1,213,1,0,0,1,457
1642,3,1,214,32,1,1,1,478
1643,3,1,215,5,0,0,1,471
1644,3,1,216,20,0,0,1,605
1645,3,1,217,5,1,1,1,612
1646,3,1,218,5,0,0,1,592
1647,3,1,219,20,1,1,1,543
1648,3,1,220,5,0,0,1,485
1649,3,1,221,20,1,1,1,512
1650,3,1,222,5,1,1,0,533
1651,3,1,223,20,1,1,1,484
1652,3,1,224,3,0,0,1,1185
1653,3,1,225,1,1,1,1,540
1654,3,1,226,3,0,0,1,630
1655,3,1,227,5,1,1,1,436
1656,3,1,228,5,0,0,1,747
1657,3,1,229,3,1,1,1,679
1658,3,1,230,1,1,1,1,442
1659,3,1,231,10,0,0,1,519
1660,3,1,232,32,0,0,1,643
1661,3,1,233,3,1,1,1,663
1662,3,1,234,10,0,0,1,488
1663,3,1,235,1,1,1,1,451
1664,3,1,236,20,0,0,1,417
1665,3,1,237,1,0,0,1,412
1666,3,1,238,1,0,0,1,528
1667,3,1,239,1,0,0,1,463
1668,3,1,240,32,1,1,1,918
1669,3,1,241,3,1,1,1,925
1670,3,1,242,5,1,1,1,790
1671,3,1,243,20,1,1,1,563
1672,3,1,244,1,0,0,1,501
1673,3,1,245,1,0,0,1,525
1674,3,1,246,10,0,0,1,759
1675,3,1,247,10,0,0,1,516
1676,3,1,248,10,1,1,1,512
1677,3,1,249,3,0,0,1,948
1678,3,1,250,10,1,1,1,473
1679,3,1,251,10,1,1,1,490
1680,3,1,252,5,1,1,1,515
1681,3,1,253,5,0,0,1,623
1682,3,1,254,10,1,1,1,594
1683,3,1,255,32,0,0,1,600
1684,3,1,256,32,0,0,1,468
1685,3,1,257,1,1,1,1,415
1686,3,1,258,10,0,0,1,400
1687,3,1,259,3,0,0,0,740
1688,3,1,260,3,0,0,1,530
1689,3,1,261,10,1,1,1,511
1690,3,1,262,32,0,0,1,522
1691,3,1,263,10,1,1,1,555
1692,3,1,264,10,1,1,1,490
1693,3,1,265,5,1,1,1,436
1694,3,1,266,3,0,0,1,527
1695,3,1,267,1,1,1,1,675
1696,3,1,268,20,1,1,1,580
1697,3,1,269,20,1,1,1,427
1698,3,1,270,5,0,0,1,604
1699,3,1,271,20,0,0,1,544
1700,3,1,272,1,0,0,1,470
1701,3,1,273,5,0,0,1,477
1702,3,1,274,10,1,1,1,569
1703,3,1,275,20,1,1,1,502
1704,3,1,276,1,1,1,1,436
1705,3,1,277,32,1,1,1,721
1706,3,1,278,3,0,0,1,483
1707,3,1,279,20,0,0,1,592
1708,3,1,280,3,1,1,1,421
1709,3,1,281,1,1,1,1,675
1710,3,1,282,20,0,0,1,610
1711,3,1,283,3,0,0,1,930
1712,3,1,284,20,0,0,1,452
1713,3,1,285,3,0,0,1,803
1714,3,1,286,3,0,0,1,811
1715,3,1,287,1,1,1,1,531
1716,3,1,288,20,0,0,1,546
1717,3,1,289,32,0,0,1,501
1718,3,1,290,32,0,0,1,480
1719,3,1,291,5,1,1,1,506
1720,3,1,292,5,1,1,1,606
1721,3,1,293,32,1,1,1,464
1722,3,1,294,5,0,0,0,476
1723,3,1,295,3,0,0,1,808
1724,3,1,296,32,1,1,1,613
1725,3,1,297,20,1,1,1,714
1726,3,1,298,3,0,0,1,657
1727,3,1,299,32,1,1,1,546
1728,3,1,300,20,0,0,1,568
1729,3,1,301,1,0,0,1,1128
1730,3,1,302,1,0,0,1,376
1731,3,1,303,1,0,0,1,366
1732,3,1,304,32,0,0,1,466
1733,3,1,305,3,1,1,1,1150
1734,3,1,306,20,1,1,1,567
1735,3,1,307,3,0,0,1,545
1736,3,1,308,32,1,1,1,484
1737,3,1,309,1,0,0,1,462
1738,3,1,310,10,1,1,1,452
1739,3,1,311,10,0,0,1,451
1740,3,1,312,3,1,1,1,472
1741,3,1,313,1,1,1,1,492
1742,3,1,314,20,0,0,1,512
1743,3,1,315,10,0,0,1,479
1744,3,1,316,1,1,1,1,494
1745,3,1,317,32,0,0,1,637
1746,3,1,318,10,0,0,1,614
1747,3,1,319,5,1,1,1,588
1748,3,1,320,5,0,0,1,834
1749,3,1,321,3,1,1,1,1071
1750,3,1,322,5,1,1,1,545
1751,3,1,323,32,1,1,1,688
1752,3,1,324,20,0,0,1,521
1753,3,1,325,5,0,0,1,434
1754,3,1,326,32,1,1,1,459
1755,3,1,327,10,0,0,1,572
1756,3,1,328,1,1,1,1,494
1757,3,1,329,3,1,1,1,547
1758,3,1,330,1,1,1,1,688
1759,3,1,331,32,1,1,1,551
1760,3,1,332,20,0,0,1,553
1761,3,1,333,5,1,1,1,637
1762,3,1,334,5,0,0,1,507
1763,3,1,335,10,1,1,1,525
1764,3,1,336,32,0,0,1,664
1765,3,1,337,5,1,1,1,720
1766,3,1,338,20,0,0,1,456
1767,3,1,339,32,1,1,1,570
1768,3,1,340,20,1,1,1,751
1769,3,1,341,3,1,1,1,529
1770,3,1,342,32,1,1,1,456
1771,3,1,343,3,1,1,1,457
1772,3,1,344,10,1,1,1,435
1773,3,1,345,5,0,0,1,614
1774,3,1,346,5,1,1,1,464
1775,3,1,347,32,0,0,1,416
1776,3,1,348,32,0,0,1,465
1777,3,1,349,3,1,1,1,519
1778,3,1,350,20,0,0,1,472
1779,3,1,351,20,1,1,1,754
1780,3,1,352,32,1,1,1,684
1781,3,1,353,32,1,1,0,411
1782,3,1,354,32,1,1,1,743
1783,3,1,355,5,1,1,1,573
1784,3,1,356,20,1,1,1,579
1785,3,1,357,10,1,1,1,489
1786,3,1,358,3,0,0,1,565
1787,3,1,359,32,1,1,1,463
1788,3,1,360,10,0,0,1,517
1789,3,1,361,32,0,0,1,601
1790,3,1,362,10,1,1,1,521
1791,3,1,363,20,0,0,1,652
1792,3,1,364,1,1,1,1,488
1793,3,1,365,5,0,0,1,1162
1794,3,1,366,3,1,1,1,965
1795,3,1,367,10,1,1,1,619
1796,3,1,368,10,1,1,1,477
1797,3,1,369,5,0,0,1,480
1798,3,1,370,5,1,1,1,720
1799,3,1,371,1,1,1,1,496
1800,3,1,372,10,0,0,1,559
1801,3,1,373,20,0,0,1,710
1802,3,1,374,3,0,0,1,760
1803,3,1,375,10,1,1,1,665
1804,3,1,376,32,0,0,1,647
1805,3,1,377,5,0,0,1,456
1806,3,1,378,20,1,1,1,506
1807,3,1,379,10,1,1,1,945
1808,3,1,380,32,1,1,1,512
1809,3,1,381,32,0,0,1,463
1810,3,1,382,3,0,0,1,884
1811,3,1,383,10,0,0,1,519
1812,3,1,384,1,0,0,1,527
1813,3,1,385,3,0,0,1,919
1814,3,1,386,3,1,1,1,1050
1815,3,1,387,20,1,1,1,780
1816,3,1,388,3,0,0,1,783
1817,3,1,389,20,1,1,1,475
1818,3,1,390,5,0,0,1,1097
1819,3,1,391,20,1,1,1,512
1820,3,1,392,5,0,0,1,502
1821,3,1,393,3,1,1,1,637
1822,3,1,394,5,0,0,1,562
1823,3,1,395,20,1,1,1,519
1824,3,1,396,10,0,0,1,698
1825,3,1,397,1,0,0,1,537
1826,3,1,398,3,0,0,1,648
1827,3,1,399,10,1,1,1,469
1828,3,1,400,32,0,0,1,447
1829,3,1,401,5,0,0,1,650
1830,3,1,402,10,0,0,1,435
1831,3,1,403,3,1,1,1,1034
1832,3,1,404,10,0,0,1,724
1833,3,1,405,10,0,0,1,444
1834,3,1,406,5,0,0,1,524
1835,3,1,407,5,1,1,1,845
1836,3,1,408,10,0,0,1,943
1837,3,1,409,32,0,0,1,874
1838,3,1,410,5,1,1,1,585
1839,3,1,411,10,0,0,1,517
1840,3,1,412,32,1,1,1,924
1841,3,1,413,5,0,0,1,591
1842,3,1,414,32,0,0,1,579
1843,3,1,415,20,0,0,1,620
1844,3,1,416,32,0,0,1,671
1845,3,1,417,20,0,0,1,602
1846,3,1,418,3,1,1,1,799
1847,3,1,419,32,0,0,1,809
1848,3,1,420,5,1,1,1,527
1849,3,1,421,20,1,1,1,696
1850,3,1,422,5,1,1,1,461
1851,3,1,423,3,0,0,1,550
1852,3,1,424,32,0,0,1,468
1853,3,1,425,5,0,0,1,410
1854,3,1,426,3,0,0,1,462
1855,3,1,427,1,0,0,1,483
1856,3,1,428,3,1,1,1,581
1857,3,1,429,3,1,1,1,586
1858,3,1,430,1,1,1,1,450
1859,3,1,431,1,1,1,1,524
1860,3,1,432,5,0,0,1,541
1861,3,1,433,10,0,0,1,667
1862,3,1,434,10,1,1,1,602
1863,3,1,435,32,0,0,1,508
1864,3,1,436,3,1,1,1,1364
1865,3,1,437,32,0,0,1,531
1866,3,1,438,5,0,0,1,587
1867,3,1,439,5,1,1,1,671
1868,3,1,440,3,1,1,1,688
1869,3,1,441,5,1,1,1,588
1870,3,1,442,32,0,0,1,476
1871,3,1,443,20,0,0,0,538
1872,3,1,444,32,1,1,1,473
1873,3,1,445,1,0,0,1,401
1874,3,1,446,10,0,0,1,475
1875,3,1,447,5,1,1,1,675
1876,3,1,448,1,0,0,1,390
1877,3,1,449,3,1,1,1,705
1878,3,1,450,32,0,0,1,443
1879,3,1,451,1,1,1,1,435
1880,3,1,452,10,0,0,1,597
1881,3,1,453,32,1,1,1,613
1882,3,1,454,10,1,1,1,415
1883,3,1,455,20,1,1,1,513
1884,3,1,456,3,0,0,1,612
1885,3,1,457,32,0,0,1,464
1886,3,1,458,20,0,0,1,511
1887,3,1,459,1,0,0,1,377
1888,3,1,460,1,0,0,1,373
1889,3,1,461,20,0,0,1,533
1890,3,1,462,5,0,0,1,438
1891,3,1,463,5,0,0,1,683
1892,3,1,464,32,0,0,1,565
1893,3,1,465,32,1,1,1,680
1894,3,1,466,1,1,1,1,429
1895,3,1,467,3,0,0,1,500
1896,3,1,468,5,0,0,1,703
1897,3,1,469,32,0,0,1,527
1898,3,1,470,1,1,1,1,547
1899,3,1,471,3,1,1,1,968
1900,3,1,472,3,1,1,1,911
1901,3,1,473,3,0,0,1,566
1902,3,1,474,32,1,1,1,500
1903,3,1,475,10,0,0,1,512
1904,3,1,476,1,0,0,1,482
1905,3,1,477,1,0,0,1,499
1906,3,1,478,32,0,0,1,625
1907,3,1,479,32,1,1,1,646
1908,3,1,480,20,1,1,1,413
1909,3,1,481,5,0,0,1,556
1910,3,1,482,1,0,0,1,371
1911,3,1,483,20,0,0,1,496
1912,3,1,484,32,1,1,1,606
1913,3,1,485,5,0,0,1,498
1914,3,1,486,1,1,1,1,443
1915,3,1,487,20,0,0,1,452
1916,3,1,488,10,0,0,1,566
1917,3,1,489,10,1,1,1,678
1918,3,1,490,3,0,0,1,604
1919,3,1,491,1,1,1,1,612
1920,3,1,492,1,1,1,1,432
1921,3,1,493,20,1,1,1,492
1922,3,1,494,32,1,1,1,534
1923,3,1,495,10,0,0,1,527
1924,3,1,496,1,0,0,1,469
1925,3,1,497,20,1,1,1,545
1926,3,1,498,10,0,0,1,809
1927,3,1,499,1,1,1,1,612
1928,3,1,500,3,0,0,1,657
1929,3,1,501,5,1,1,1,450
1930,3,1,502,32,0,0,1,486
1931,3,1,503,10,1,1,1,808
1932,3,1,504,32,0,0,1,555
1933,3,1,505,10,1,1,1,736
1934,3,1,506,20,0,0,1,559
1935,3,1,507,32,0,0,1,544
1936,3,1,508,10,1,1,1,507
1937,3,1,509,5,1,1,1,475
1938,3,1,510,1,0,0,1,560
1939,3,1,511,20,1,1,1,630
1940,3,1,512,10,0,0,1,542
1941,3,1,513,3,1,1,1,988
1942,3,1,514,32,1,1,1,580
1943,3,1,515,20,1,1,1,428
1944,3,1,516,10,0,0,1,595
1945,3,1,517,1,1,1,1,489
1946,3,1,518,3,0,0,1,581
1947,3,1,519,10,0,0,1,519
1948,3,1,520,1,0,0,1,435
1949,3,1,521,32,1,1,1,929
1950,3,1,522,1,0,0,1,439
1951,3,1,523,20,0,0,0,458
1952,3,1,524,5,1,1,1,838
1953,3,1,525,3,1,1,1,787
1954,3,1,526,5,1,1,1,647
1955,3,1,527,20,1,1,1,554
1956,3,1,528,3,1,1,1,749
1957,3,1,529,5,0,0,1,680
1958,3,1,530,3,1,1,1,852
1959,3,1,531,1,1,1,1,524
1960,3,1,532,20,0,0,1,593
1961,3,1,533,3,0,0,1,2121
1962,3,1,534,1,1,1,1,582
1963,3,1,535,32,1,1,1,593
1964,3,1,536,1,1,1,1,420
1965,3,1,537,1,1,1,1,394
1966,3,1,538,32,1,1,1,724
1967,3,1,539,1,1,1,1,421
1968,3,1,540,5,1,1,1,617
1969,3,1,541,20,0,0,1,658
1970,3,1,542,1,0,0,1,500
1971,3,1,543,20,1,1,1,497
1972,3,1,544,20,1,1,1,516
1973,3,1,545,3,1,1,1,589
1974,3,1,546,5,1,1,1,630
1975,3,1,547,20,0,0,1,502
1976,3,1,548,1,1,1,1,546
1977,3,1,549,5,1,1,1,468
1978,3,1,550,20,1,1,1,613
1979,3,1,551,1,1,1,1,382
1980,3,1,552,10,1,1,1,741
1981,3,1,553,10,0,0,1,475
1982,3,1,554,10,1,1,1,493
1983,3,1,555,1,0,0,1,392
1984,3,1,556,5,0,0,1,834
1985,3,1,557,32,0,0,1,510
1986,3,1,558,20,0,0,1,558
1987,3,1,559,32,0,0,1,482
1988,3,1,560,5,1,1,1,590
1989,3,1,561,32,1,1,1,1006
1990,3,1,562,1,0,0,1,549
1991,3,1,563,10,0,0,1,486
1992,3,1,564,10,1,1,1,1261
1993,3,1,565,10,1,1,1,773
1994,3,1,566,20,1,1,1,489
1995,3,1,567,3,1,1,1,590
1996,3,1,568,3,0,0,1,747
1997,3,1,569,5,1,1,1,463
1998,3,1,570,5,1,1,1,727
1999,3,1,571,3,0,0,1,637
2000,3,1,572,5,0,0,1,647
2001,3,1,573,32,1,1,1,506
2002,3,1,574,3,1,1,1,646
2003,3,1,575,1,0,0,1,481
2004,3,1,576,32,0,0,1,565
2005,3,1,577,3,1,1,1,538
2006,3,1,578,3,0,0,1,471
2007,3,1,579,20,1,1,1,444
2008,3,1,580,10,0,0,1,743
2009,3,1,581,5,0,0,1,631
2010,3,1,582,32,0,0,1,508
2011,3,1,583,32,0,0,1,551
2012,3,1,584,10,1,1,1,459
2013,3,1,585,20,0,0,1,600
2014,3,1,586,10,0,0,1,564
2015,3,1,587,20,0,0,1,504
2016,3,1,588,10,0,0,1,470
2017,3,1,589,1,1,1,1,598
2018,3,1,590,1,1,1,1,426
2019,3,1,591,10,1,1,1,493
2020,3,1,592,3,1,1,1,857
2021,3,1,593,5,1,1,1,472
2022,3,1,594,3,0,0,1,581
2023,3,1,595,1,0,0,1,529
2024,3,1,596,3,0,0,1,1051
2025,3,1,597,32,0,0,1,562
2026,3,1,598,20,0,0,1,460
2027,3,1,599,20,1,1,1,566
2028,3,1,600,1,1,1,1,473
2029,3,1,601,20,1,1,1,578
2030,3,1,602,5,0,0,1,627
2031,3,1,603,5,1,1,1,572
2032,3,1,604,32,1,1,0,464
2033,3,1,605,20,1,1,1,478
2034,3,1,606,20,0,0,1,707
2035,3,1,607,1,1,1,1,438
2036,3,1,608,3,0,0,1,446
2037,3,1,609,10,0,0,1,450
2038,3,1,610,3,1,1,1,609
2039,3,1,611,3,0,0,1,610
2040,3,1,612,3,1,1,1,618
2041,3,1,613,5,0,0,1,757
2042,3,1,614,10,1,1,1,837
2043,3,1,615,1,1,1,1,498
2044,3,1,616,3,0,0,1,880
2045,3,1,617,32,0,0,0,814
2046,3,1,618,32,0,0,1,562
2047,3,1,619,32,0,0,1,640
2048,3,1,620,32,0,0,1,555
2049,3,1,621,32,0,0,1,497
2050,3,1,622,10,0,0,1,584
2051,3,1,623,3,0,0,1,843
2052,3,1,624,10,0,0,1,742
2053,3,1,625,1,0,0,1,701
2054,3,1,626,3,0,0,1,772
2055,3,1,627,10,1,1,1,549
2056,3,1,628,10,1,1,1,647
2057,3,1,629,20,0,0,1,659
2058,3,1,630,32,1,1,1,638
2059,3,1,631,1,0,0,1,530
2060,3,1,632,10,0,0,1,788
2061,3,1,633,10,1,1,1,634
2062,3,1,634,20,0,0,1,705
2063,3,1,635,1,1,1,1,578
2064,3,1,636,20,1,1,1,564
2065,3,1,637,10,1,1,1,731
2066,3,1,638,3,1,1,1,834
2067,3,1,639,10,0,0,1,572
2068,3,1,640,10,0,0,1,514
2069,3,1,641,3,0,0,1,1333
2070,3,1,642,10,0,0,1,487
2071,3,1,643,10,1,1,1,582
2072,3,1,644,1,0,0,1,474
2073,3,1,645,20,1,1,1,676
2074,3,1,646,10,1,1,1,482
2075,3,1,647,32,1,1,1,443
2076,3,1,648,1,1,1,1,476
2077,3,1,649,1,1,1,1,427
2078,3,1,650,10,1,1,1,515
2079,3,1,651,20,1,1,1,663
2080,3,1,652,3,0,0,1,758
2081,3,1,653,5,1,1,1,622
2082,3,1,654,1,1,1,1,620
2083,3,1,655,20,0,0,1,549
2084,3,1,656,3,1,1,1,589
2085,3,1,657,20,1,1,1,628
2086,3,1,658,5,0,0,1,605
2087,3,1,659,3,1,1,1,533
2088,3,1,660,10,0,0,1,785
2089,3,1,661,20,1,1,1,611
2090,3,1,662,32,0,0,1,694
2091,3,1,663,5,0,0,1,507
2092,3,1,664,5,0,0,1,593
2093,3,1,665,20,1,1,1,474
2094,3,1,666,10,1,1,1,477
2095,3,1,667,5,0,0,1,858
2096,3,1,668,32,1,1,1,387
2097,3,1,669,1,1,1,1,517
2098,3,1,670,32,0,0,1,493
2099,3,1,671,5,0,0,1,869
2100,3,1,672,32,1,1,1,463
2101,3,1,673,32,1,1,1,460
2102,3,1,674,20,0,0,1,518
2103,3,1,675,1,1,1,1,551
2104,3,1,676,3,1,1,1,976
2105,3,1,677,3,0,0,1,573
2106,3,1,678,10,0,0,1,643
2107,3,1,679,10,1,1,1,604
2108,3,1,680,10,0,0,1,487
2109,3,1,681,1,0,0,1,388
2110,3,1,682,3,0,0,1,452
2111,3,1,683,20,1,1,1,515
2112,3,1,684,1,1,1,1,839
2113,3,1,685,1,1,1,1,401
2114,3,1,686,20,1,1,1,559
2115,3,1,687,20,0,0,1,912
2116,3,1,688,1,0,0,1,488
2117,3,1,689,20,0,0,1,716
2118,3,1,690,5,1,1,1,841
2119,3,1,691,3,1,1,1,816
2120,3,1,692,10,0,0,1,550
2121,3,1,693,20,0,0,1,604
2122,3,1,694,10,0,0,1,622
2123,3,1,695,20,0,0,1,522
2124,3,1,696,10,1,1,1,556
2125,3,1,697,10,1,1,1,572
2126,3,1,698,10,0,0,1,432
2127,3,1,699,20,1,1,1,486
2128,3,1,700,3,1,1,1,472
2129,3,1,701,3,1,1,1,487
2130,3,1,702,5,0,0,1,1071
2131,3,1,703,1,0,0,1,596
2132,3,1,704,10,0,0,0,524
2133,3,1,705,32,1,1,1,1775
2134,3,1,706,20,1,1,1,743
2135,3,1,707,1,1,1,1,474
2136,3,1,708,1,0,0,1,456
2137,3,1,709,1,0,0,1,387
2138,3,1,710,3,1,1,1,501
2139,3,1,711,32,1,1,1,654
2140,3,1,712,3,0,0,1,493
2141,3,1,713,1,0,0,1,485
2142,3,1,714,10,0,0,1,428
2143,5,1,1,5,1,1,1,3158
2144,5,1,2,20,0,0,1,784
2145,5,1,3,3,0,0,1,852
2146,5,1,4,3,0,0,1,817
2147,5,1,5,10,1,1,1,765
2148,5,1,6,32,0,0,1,676
2149,5,1,7,1,0,0,1,900
2150,5,1,8,3,0,0,1,929
2151,5,1,9,32,0,0,1,748
2152,5,1,10,3,0,0,1,536
2153,5,1,11,3,1,1,1,881
2154,5,1,12,32,0,0,1,570
2155,5,1,13,32,1,1,1,601
2156,5,1,14,1,0,0,1,464
2157,5,1,15,1,1,1,1,539
2158,5,1,16,3,1,1,1,897
2159,5,1,17,3,1,1,1,630
2160,5,1,18,20,1,1,1,685
2161,5,1,19,10,1,1,1,672
2162,5,1,20,20,0,0,1,536
2163,5,1,21,5,1,1,1,754
2164,5,1,22,1,1,1,1,651
2165,5,1,23,10,1,1,1,730
2166,5,1,24,3,1,1,1,1020
2167,5,1,25,10,1,1,1,693
2168,5,1,26,10,1,1,1,586
2169,5,1,27,20,0,0,1,544
2170,5,1,28,20,0,0,1,548
2171,5,1,29,1,0,0,1,566
2172,5,1,30,5,1,1,1,641
2173,5,1,31,5,0,0,1,596
2174,5,1,32,32,1,1,1,609
2175,5,1,33,3,1,1,1,775
2176,5,1,34,10,0,0,1,635
2177,5,1,35,1,1,1,1,416
2178,5,1,36,32,1,1,1,686
2179,5,1,37,32,1,1,1,685
2180,5,1,38,1,0,0,1,470
2181,5,1,39,32,1,1,1,569
2182,5,1,40,32,0,0,1,510
2183,5,1,41,5,0,0,1,498
2184,5,1,42,1,1,1,1,518
2185,5,1,43,10,1,1,1,552
2186,5,1,44,1,0,0,1,408
2187,5,1,45,1,1,1,1,506
2188,5,1,46,1,1,1,1,429
2189,5,1,47,20,1,1,1,627
2190,5,1,48,5,1,1,1,442
2191,5,1,49,20,1,1,1,589
2192,5,1,50,1,1,1,1,434
2193,5,1,51,20,0,0,1,604
2194,5,1,52,10,0,0,1,717
2195,5,1,53,5,0,0,1,596
2196,5,1,54,20,0,0,1,465
2197,5,1,55,3,0,0,1,755
2198,5,1,56,10,1,1,1,639
2199,5,1,57,10,0,0,1,594
2200,5,1,58,3,1,1,1,545
2201,5,1,59,32,0,0,1,475
2202,5,1,60,3,1,1,1,441
2203,5,1,61,1,1,1,1,446
2204,5,1,62,20,1,1,1,526
2205,5,1,63,32,1,1,1,515
2206,5,1,64,3,0,0,1,647
2207,5,1,65,10,0,0,1,723
2208,5,1,66,32,1,1,1,615
2209,5,1,67,32,1,1,1,514
2210,5,1,68,3,0,0,1,600
2211,5,1,69,32,0,0,1,496
2212,5,1,70,3,0,0,1,722
2213,5,1,71,20,1,1,1,821
2214,5,1,72,3,1,1,1,571
2215,5,1,73,1,1,1,1,482
2216,5,1,74,20,0,0,1,591
2217,5,1,75,20,0,0,1,600
2218,5,1,76,1,1,1,1,500
2219,5,1,77,10,0,0,1,546
2220,5,1,78,3,1,1,1,578
2221,5,1,79,1,1,1,1,556
2222,5,1,80,3,0,0,1,444
2223,5,1,81,3,1,1,1,465
2224,5,1,82,20,1,1,1,484
2225,5,1,83,3,1,1,1,651
2226,5,1,84,10,1,1,1,585
2227,5,1,85,3,1,1,1,950
2228,5,1,86,5,0,0,1,563
2229,5,1,87,1,0,0,1,487
2230,5,1,88,32,0,0,1,606
2231,5,1,89,20,1,1,1,664
2232,5,1,90,5,0,0,1,573
2233,5,1,91,32,1,1,1,814
2234,5,1,92,5,1,1,1,615
2235,5,1,93,1,0,0,1,468
2236,5,1,94,32,1,1,1,518
2237,5,1,95,10,1,1,1,476
2238,5,1,96,10,1,1,1,494
2239,5,1,97,5,1,1,1,587
2240,5,1,98,20,0,0,1,506
2241,5,1,99,10,0,0,1,612
2242,5,1,100,32,1,1,1,598
2243,5,1,101,1,0,0,1,483
2244,5,1,102,10,1,1,1,537
2245,5,1,103,5,1,1,1,558
2246,5,1,104,20,1,1,1,619
2247,5,1,105,32,0,0,0,647
2248,5,1,106,20,1,1,1,709
2249,5,1,107,5,0,0,1,813
2250,5,1,108,1,0,0,1,796
2251,5,1,109,32,0,0,1,945
2252,5,1,110,10,0,0,1,520
2253,5,1,111,1,0,0,1,547
2254,5,1,112,1,0,0,1,530
2255,5,1,113,5,1,1,1,521
2256,5,1,114,5,1,1,1,539
2257,5,1,115,10,0,0,1,449
2258,5,1,116,3,0,0,1,609
2259,5,1,117,20,1,1,1,627
2260,5,1,118,10,0,0,1,613
2261,5,1,119,32,0,0,1,577
2262,5,1,120,10,0,0,1,804
2263,5,1,121,32,0,0,1,564
2264,5,1,122,5,0,0,1,542
2265,5,1,123,32,0,0,1,508
2266,5,1,124,3,0,0,1,668
2267,5,1,125,3,0,0,1,799
2268,5,1,126,20,1,1,1,627
2269,5,1,127,3,1,1,1,625
2270,5,1,128,3,0,0,1,520
2271,5,1,129,3,0,0,1,853
2272,5,1,130,20,0,0,1,688
2273,5,1,131,5,0,0,1,877
2274,5,1,132,3,1,1,1,652
2275,5,1,133,10,1,1,1,904
2276,5,1,134,3,1,1,1,958
2277,5,1,135,1,1,1,1,446
2278,5,1,136,3,1,1,1,645
2279,5,1,137,20,0,0,1,536
2280,5,1,138,10,1,1,1,469
2281,5,1,139,10,0,0,1,594
2282,5,1,140,32,0,0,1,481
2283,5,1,141,1,0,0,1,531
2284,5,1,142,10,1,1,1,519
2285,5,1,143,3,0,0,1,484
2286,5,1,144,5,1,1,1,765
2287,5,1,145,1,1,1,1,639
2288,5,1,146,5,1,1,1,880
2289,5,1,147,3,1,1,1,885
2290,5,1,148,1,1,1,1,521
2291,5,1,149,1,1,1,1,525
2292,5,1,150,5,1,1,1,723
2293,5,1,151,20,1,1,1,719
2294,5,1,152,3,1,1,1,633
2295,5,1,153,3,0,0,1,848
2296,5,1,154,10,1,1,1,617
2297,5,1,155,5,1,1,1,551
2298,5,1,156,5,0,0,1,566
2299,5,1,157,20,0,0,1,510
2300,5,1,158,10,1,1,1,622
2301,5,1,159,20,0,0,1,718
2302,5,1,160,20,1,1,1,503
2303,5,1,161,20,0,0,1,811
2304,5,1,162,10,1,1,1,643
2305,5,1,163,3,0,0,1,649
2306,5,1,164,1,0,0,1,487
2307,5,1,165,1,1,1,1,468
2308,5,1,166,32,0,0,1,721
2309,5,1,167,5,0,0,1,654
2310,5,1,168,20,1,1,1,884
2311,5,1,169,3,1,1,1,727
2312,5,1,170,5,1,1,1,914
2313,5,1,171,5,0,0,1,736
2314,5,1,172,20,1,1,1,731
2315,5,1,173,10,1,1,1,530
2316,5,1,174,32,0,0,1,507
2317,5,1,175,32,0,0,1,442
2318,5,1,176,1,0,0,1,406
2319,5,1,177,10,0,0,1,641
2320,5,1,178,32,0,0,1,583
2321,5,1,179,32,0,0,1,650
2322,5,1,180,5,1,1,1,806
2323,5,1,181,20,1,1,1,584
2324,5,1,182,1,1,1,1,449
2325,5,1,183,3,1,1,1,654
2326,5,1,184,10,1,1,1,809
2327,5,1,185,5,0,0,1,637
2328,5,1,186,1,1,1,1,623
2329,5,1,187,10,1,1,1,629
2330,5,1,188,5,0,0,1,632
2331,5,1,189,1,1,1,1,435
2332,5,1,190,32,1,1,1,548
2333,5,1,191,3,1,1,1,665
2334,5,1,192,3,1,1,1,476
2335,5,1,193,32,1,1,1,542
2336,5,1,194,20,1,1,1,449
2337,5,1,195,1,0,0,1,770
2338,5,1,196,20,0,0,1,587
2339,5,1,197,20,1,1,1,678
2340,5,1,198,32,0,0,1,535
2341,5,1,199,5,1,1,1,593
2342,5,1,200,5,1,1,1,667
2343,5,1,201,32,1,1,1,568
2344,5,1,202,10,1,1,1,670
2345,5,1,203,32,1,1,1,946
2346,5,1,204,3,1,1,1,521
2347,5,1,205,5,0,0,1,658
2348,5,1,206,32,0,0,1,642
2349,5,1,207,20,1,1,1,601
2350,5,1,208,5,0,0,1,458
2351,5,1,209,20,0,0,1,482
2352,5,1,210,1,0,0,1,609
2353,5,1,211,1,0,0,1,567
2354,5,1,212,5,1,1,1,624
2355,5,1,213,1,0,0,1,510
2356,5,1,214,5,0,0,1,470
2357,5,1,215,20,1,1,1,588
2358,5,1,216,3,0,0,1,567
2359,5,1,217,1,1,1,1,451
2360,5,1,218,20,1,1,1,509
2361,5,1,219,5,0,0,1,644
2362,5,1,220,1,1,1,1,630
2363,5,1,221,20,1,1,1,590
2364,5,1,222,5,1,1,1,621
2365,5,1,223,3,0,0,1,947
2366,5,1,224,5,1,1,1,793
2367,5,1,225,5,0,0,1,694
2368,5,1,226,3,1,1,1,839
2369,5,1,227,20,1,1,1,780
2370,5,1,228,3,1,1,1,704
2371,5,1,229,5,0,0,1,684
2372,5,1,230,5,0,0,1,542
2373,5,1,231,1,1,1,1,497
2374,5,1,232,32,1,1,1,749
2375,5,1,233,3,0,0,1,571
2376,5,1,234,20,1,1,1,569
2377,5,1,235,3,1,1,1,618
2378,5,1,236,20,0,0,1,808
2379,5,1,237,3,1,1,1,586
2380,5,1,238,32,0,0,1,459
2381,5,1,239,5,1,1,1,630
2382,5,1,240,1,0,0,1,372
2383,5,1,241,3,0,0,1,888
2384,5,1,242,1,1,1,1,389
2385,5,1,243,1,1,1,1,388
2386,5,1,244,20,1,1,1,671
2387,5,1,245,5,0,0,1,694
2388,5,1,246,10,1,1,1,645
2389,5,1,247,32,1,1,1,619
2390,5,1,248,1,0,0,1,531
2391,5,1,249,10,0,0,1,663
2392,5,1,250,1,0,0,1,525
2393,5,1,251,32,1,1,1,745
2394,5,1,252,32,0,0,1,519
2395,5,1,253,20,1,1,1,594
2396,5,1,254,20,0,0,1,766
2397,5,1,255,3,0,0,1,990
2398,5,1,256,32,0,0,1,571
2399,5,1,257,5,1,1,1,620
2400,5,1,258,1,0,0,1,551
2401,5,1,259,20,1,1,1,643
2402,5,1,260,1,0,0,1,486
2403,5,1,261,3,0,0,1,836
2404,5,1,262,1,1,1,1,512
2405,5,1,263,10,0,0,1,980
2406,5,1,264,1,0,0,1,657
2407,5,1,265,10,0,0,1,622
2408,5,1,266,32,1,1,1,563
2409,5,1,267,32,0,0,1,559
2410,5,1,268,32,0,0,1,748
2411,5,1,269,1,0,0,1,403
2412,5,1,270,5,0,0,1,769
2413,5,1,271,1,1,1,1,455
2414,5,1,272,20,0,0,1,505
2415,5,1,273,1,1,1,1,621
2416,5,1,274,5,0,0,1,824
2417,5,1,275,5,1,1,1,873
2418,5,1,276,20,0,0,1,595
2419,5,1,277,1,0,0,1,416
2420,5,1,278,3,1,1,1,1310
2421,5,1,279,32,0,0,1,506
2422,5,1,280,10,0,0,1,488
2423,5,1,281,10,1,1,1,578
2424,5,1,282,32,0,0,1,564
2425,5,1,283,3,1,1,1,976
2426,5,1,284,10,0,0,1,627
2427,5,1,285,10,0,0,1,527
2428,5,1,286,3,0,0,1,862
2429,5,1,287,3,0,0,1,495
2430,5,1,288,20,0,0,1,593
2431,5,1,289,10,1,1,1,630
2432,5,1,290,5,0,0,1,603
2433,5,1,291,5,1,1,1,621
2434,5,1,292,32,1,1,1,504
2435,5,1,293,10,0,0,1,510
2436,5,1,294,1,0,0,1,528
2437,5,1,295,5,0,0,1,578
2438,5,1,296,32,0,0,1,509
2439,5,1,297,5,1,1,1,766
2440,5,1,298,3,1,1,1,734
2441,5,1,299,32,0,0,1,654
2442,5,1,300,32,1,1,1,996
2443,5,1,301,5,0,0,1,849
2444,5,1,302,32,1,1,1,763
2445,5,1,303,10,1,1,1,672
2446,5,1,304,10,1,1,1,566
2447,5,1,305,3,0,0,1,660
2448,5,1,306,3,1,1,1,530
2449,5,1,307,5,1,1,1,498
2450,5,1,308,1,1,1,1,528
2451,5,1,309,32,0,0,1,469
2452,5,1,310,5,0,0,1,403
2453,5,1,311,10,1,1,1,445
2454,5,1,312,3,1,1,1,782
2455,5,1,313,3,1,1,1,559
2456,5,1,314,32,0,0,1,444
2457,5,1,315,10,1,1,1,538
2458,5,1,316,3,1,1,1,384
2459,5,1,317,5,0,0,1,573
2460,5,1,318,3,0,0,1,384
2461,5,1,319,32,1,1,1,437
2462,5,1,320,1,1,1,1,385
2463,5,1,321,20,0,0,1,633
2464,5,1,322,5,0,0,1,593
2465,5,1,323,3,0,0,1,615
2466,5,1,324,5,1,1,1,887
2467,5,1,325,5,0,0,1,557
2468,5,1,326,1,1,1,1,498
2469,5,1,327,3,0,0,1,413
2470,5,1,328,5,1,1,1,456
2471,5,1,329,20,1,1,1,625
2472,5,1,330,32,0,0,1,651
2473,5,1,331,3,1,1,1,450
2474,5,1,332,3,1,1,1,861
2475,5,1,333,20,0,0,1,546
2476,5,1,334,32,0,0,1,503
2477,5,1,335,10,1,1,1,547
2478,5,1,336,3,0,0,1,1072
2479,5,1,337,20,0,0,1,541
2480,5,1,338,20,1,1,1,409
2481,5,1,339,5,0,0,1,578
2482,5,1,340,5,1,1,1,752
2483,5,1,341,5,1,1,1,585
2484,5,1,342,32,1,1,1,474
2485,5,1,343,32,1,1,1,527
2486,5,1,344,32,0,0,1,645
2487,5,1,345,32,0,0,1,566
2488,5,1,346,1,0,0,1,649
2489,5,1,347,3,1,1,1,931
2490,5,1,348,3,0,0,1,644
2491,5,1,349,10,1,1,1,567
2492,5,1,350,32,1,1,1,654
2493,5,1,351,20,1,1,1,550
2494,5,1,352,3,0,0,1,763
2495,5,1,353,20,0,0,1,583
2496,5,1,354,32,0,0,1,614
2497,5,1,355,32,0,0,1,507
2498,5,1,356,20,1,1,1,592
2499,5,1,357,20,1,1,1,614
2500,5,1,358,20,0,0,1,673
2501,5,1,359,32,1,1,1,512
2502,5,1,360,32,1,1,1,548
2503,5,1,361,3,0,0,1,559
2504,5,1,362,3,0,0,1,830
2505,5,1,363,5,1,1,1,758
2506,5,1,364,5,1,1,1,559
2507,5,1,365,5,0,0,1,673
2508,5,1,366,3,0,0,1,682
2509,5,1,367,1,1,1,1,457
2510,5,1,368,10,1,1,1,548
2511,5,1,369,5,1,1,1,716
2512,5,1,370,1,1,1,1,440
2513,5,1,371,5,0,0,1,903
2514,5,1,372,32,1,1,1,635
2515,5,1,373,32,1,1,1,415
2516,5,1,374,3,0,0,1,547
2517,5,1,375,3,1,1,1,652
2518,5,1,376,1,1,1,1,467
2519,5,1,377,1,1,1,1,387
2520,5,1,378,10,0,0,1,848
2521,5,1,379,20,0,0,1,749
2522,5,1,380,10,1,1,1,720
2523,5,1,381,10,0,0,1,532
2524,5,1,382,20,0,0,1,491
2525,5,1,383,10,1,1,1,490
2526,5,1,384,32,1,1,1,712
2527,5,1,385,20,0,0,1,662
2528,5,1,386,32,0,0,1,648
2529,5,1,387,1,0,0,1,499
2530,5,1,388,10,0,0,1,2596
2531,5,1,389,1,1,1,1,553
2532,5,1,390,20,1,1,1,491
2533,5,1,391,3,1,1,1,844
2534,5,1,392,10,1,1,1,553
2535,5,1,393,10,0,0,1,515
2536,5,1,394,32,1,1,1,766
2537,5,1,395,1,0,0,1,914
2538,5,1,396,10,1,1,1,482
2539,5,1,397,3,0,0,1,2171
2540,5,1,398,5,1,1,1,825
2541,5,1,399,5,0,3,0,4991
2542,5,1,400,1,1,1,1,474
2543,5,1,401,5,0,0,1,835
2544,5,1,402,3,1,1,1,664
2545,5,1,403,20,1,1,1,551
2546,5,1,404,10,0,0,1,570
2547,5,1,405,10,0,0,1,535
2548,5,1,406,1,0,0,1,460
2549,5,1,407,32,1,1,1,605
2550,5,1,408,1,1,1,1,694
2551,5,1,409,32,1,1,1,1025
2552,5,1,410,3,0,0,1,484
2553,5,1,411,5,0,0,1,1571
2554,5,1,412,5,1,1,1,444
2555,5,1,413,10,1,1,1,629
2556,5,1,414,1,0,0,1,422
2557,5,1,415,32,0,0,1,568
2558,5,1,416,10,0,0,1,729
2559,5,1,417,10,0,0,1,837
2560,5,1,418,3,0,0,0,670
2561,5,1,419,10,0,0,1,559
2562,5,1,420,3,0,0,1,971
2563,5,1,421,20,0,0,1,629
2564,5,1,422,1,1,1,1,477
2565,5,1,423,10,0,0,1,448
2566,5,1,424,1,1,1,1,635
2567,5,1,425,32,1,1,1,820
2568,5,1,426,20,0,0,1,1006
2569,5,1,427,1,0,0,1,865
2570,5,1,428,32,1,1,1,602
2571,5,1,429,1,1,1,1,643
2572,5,1,430,32,1,1,1,593
2573,5,1,431,20,1,1,1,679
2574,5,1,432,3,1,1,1,948
2575,5,1,433,5,0,0,1,893
2576,5,1,434,20,1,1,1,834
2577,5,1,435,10,0,0,1,758
2578,5,1,436,3,0,0,1,849
2579,5,1,437,10,1,1,1,642
2580,5,1,438,20,1,1,1,732
2581,5,1,439,32,1,1,1,930
2582,5,1,440,10,0,0,1,992
2583,5,1,441,32,0,0,1,617
2584,5,1,442,32,1,1,1,666
2585,5,1,443,20,1,1,1,534
2586,5,1,444,20,1,1,1,493
2587,5,1,445,5,0,0,1,558
2588,5,1,446,1,1,1,1,684
2589,5,1,447,1,1,1,1,590
2590,5,1,448,20,0,0,1,628
2591,5,1,449,5,0,0,1,704
2592,5,1,450,3,1,1,1,888
2593,5,1,451,3,0,0,1,835
2594,5,1,452,1,0,0,1,474
2595,5,1,453,3,0,0,0,555
2596,5,1,454,32,0,0,1,631
2597,5,1,455,3,0,0,1,679
2598,5,1,456,5,1,1,1,729
2599,5,1,457,3,0,0,1,1900
2600,5,1,458,32,0,0,1,733
2601,5,1,459,32,1,1,1,498
2602,5,1,460,10,0,0,1,699
2603,5,1,461,10,1,1,1,540
2604,5,1,462,5,0,0,1,4183
2605,5,1,463,5,1,1,1,501
2606,5,1,464,5,0,0,1,556
2607,5,1,465,32,0,0,1,581
2608,5,1,466,3,0,0,1,576
2609,5,1,467,1,0,0,1,815
2610,5,1,468,20,0,0,1,1219
2611,5,1,469,5,1,1,1,566
2612,5,1,470,10,1,1,1,722
2613,5,1,471,10,1,1,1,1164
2614,5,1,472,1,0,0,1,718
2615,5,1,473,1,0,0,1,511
2616,5,1,474,1,0,0,1,1559
2617,5,1,475,10,0,0,1,816
2618,5,1,476,20,1,1,1,634
2619,5,1,477,3,0,0,1,571
2620,5,1,478,5,0,0,1,730
2621,5,1,479,20,1,1,1,519
2622,5,1,480,20,1,1,1,756
2623,5,1,481,20,1,1,1,559
2624,5,1,482,3,0,0,1,682
2625,5,1,483,5,1,1,1,790
2626,5,1,484,5,1,1,1,459
2627,5,1,485,3,1,1,1,707
2628,5,1,486,10,0,0,1,651
2629,5,1,487,3,0,0,1,709
2630,5,1,488,1,0,0,1,496
2631,5,1,489,3,1,1,1,932
2632,5,1,490,10,1,1,1,863
2633,5,1,491,1,0,0,1,661
2634,5,1,492,20,1,1,1,626
2635,5,1,493,1,0,0,1,570
2636,5,1,494,10,1,1,1,786
2637,5,1,495,10,1,1,1,818
2638,5,1,496,5,0,0,1,824
2639,5,1,497,1,1,1,1,439
2640,5,1,498,20,0,0,1,669
2641,5,1,499,32,0,0,1,721
2642,5,1,500,32,1,1,1,615
2643,5,1,501,5,0,0,1,634
2644,5,1,502,5,0,0,1,584
2645,5,1,503,20,0,0,1,604
2646,5,1,504,10,1,1,1,2086
2647,5,1,505,32,0,0,1,656
2648,5,1,506,1,0,0,1,555
2649,5,1,507,10,0,0,1,733
2650,5,1,508,3,0,0,1,808
2651,5,1,509,1,0,0,1,515
2652,5,1,510,20,0,0,1,932
2653,5,1,511,10,1,1,1,832
2654,5,1,512,32,1,1,1,828
2655,5,1,513,1,0,0,1,506
2656,5,1,514,32,1,1,1,623
2657,5,1,515,3,1,1,1,717
2658,5,1,516,5,1,1,1,561
2659,5,1,517,3,1,1,1,570
2660,5,1,518,32,1,1,1,491
2661,5,1,519,3,1,1,1,1008
2662,5,1,520,5,1,1,1,765
2663,5,1,521,20,1,1,1,597
2664,5,1,522,10,1,1,1,730
2665,5,1,523,5,1,1,1,585
2666,5,1,524,5,1,1,1,588
2667,5,1,525,10,0,0,1,629
2668,5,1,526,5,0,0,1,639
2669,5,1,527,32,0,0,1,562
2670,5,1,528,10,0,0,1,672
2671,5,1,529,10,0,0,1,647
2672,5,1,530,32,1,1,1,670
2673,5,1,531,1,0,0,1,522
2674,5,1,532,3,1,1,1,862
2675,5,1,533,1,0,0,1,576
2676,5,1,534,10,0,0,1,859
2677,5,1,535,1,1,1,1,479
2678,5,1,536,3,0,0,1,685
2679,5,1,537,20,0,0,1,562
2680,5,1,538,20,1,1,1,717
2681,5,1,539,20,1,1,1,455
2682,5,1,540,20,0,0,1,675
2683,5,1,541,3,1,1,1,445
2684,5,1,542,20,1,1,1,563
2685,5,1,543,10,1,1,1,501
2686,5,1,544,10,0,0,1,649
2687,5,1,545,32,1,1,1,625
2688,5,1,546,32,0,0,1,484
2689,5,1,547,20,0,0,1,539
2690,5,1,548,1,0,0,1,443
2691,5,1,549,32,1,1,1,882
2692,5,1,550,10,0,0,1,772
2693,5,1,551,1,1,1,1,800
2694,5,1,552,20,0,0,1,892
2695,5,1,553,3,0,0,1,691
2696,5,1,554,5,0,0,1,1034
2697,5,1,555,20,0,0,1,685
2698,5,1,556,32,1,1,1,739
2699,5,1,557,1,1,1,1,540
2700,5,1,558,3,0,0,1,739
2701,5,1,559,20,0,0,1,475
2702,5,1,560,32,0,0,1,924
2703,5,1,561,32,0,0,1,752
2704,5,1,562,10,0,0,1,531
2705,5,1,563,10,1,1,1,525
2706,5,1,564,5,1,1,1,616
2707,5,1,565,1,1,1,1,476
2708,5,1,566,1,1,1,1,412
2709,5,1,567,10,0,0,1,805
2710,5,1,568,20,1,1,1,554
2711,5,1,569,32,0,0,1,624
2712,5,1,570,1,0,0,1,523
2713,5,1,571,20,1,1,1,619
2714,5,1,572,20,1,1,1,605
2715,5,1,573,1,0,0,1,530
2716,5,1,574,3,1,1,1,862
2717,5,1,575,3,1,1,1,953
2718,5,1,576,32,0,0,1,667
2719,5,1,577,32,1,1,1,772
2720,5,1,578,10,1,1,1,691
2721,5,1,579,3,0,0,1,762
2722,5,1,580,10,0,0,1,825
2723,5,1,581,1,1,1,1,671
2724,5,1,582,10,0,0,1,926
2725,5,1,583,3,1,1,1,695
2726,5,1,584,1,0,0,1,526
2727,5,1,585,1,1,1,1,485
2728,5,1,586,3,1,1,1,724
2729,5,1,587,3,0,0,1,483
2730,5,1,588,20,1,1,1,532
2731,5,1,589,32,0,0,1,760
2732,5,1,590,5,0,0,1,766
2733,5,1,591,10,0,0,1,536
2734,5,1,592,32,1,1,1,594
2735,5,1,593,1,0,0,1,699
2736,5,1,594,20,1,1,1,821
2737,5,1,595,20,0,0,1,1877
2738,5,1,596,3,0,0,1,675
2739,5,1,597,32,0,0,1,1114
2740,5,1,598,5,1,1,1,589
2741,5,1,599,10,0,0,1,1998
2742,5,1,600,32,0,0,1,930
2743,5,1,601,20,1,1,1,785
2744,5,1,602,3,1,1,1,947
2745,5,1,603,5,1,1,1,1876
2746,5,1,604,10,1,1,1,2448
2747,5,1,605,5,0,0,1,597
2748,5,1,606,1,0,0,1,431
2749,5,1,607,1,1,1,1,522
2750,5,1,608,5,0,0,1,632
2751,5,1,609,5,0,0,1,1065
2752,5,1,610,10,0,0,1,608
2753,5,1,611,1,0,0,1,471
2754,5,1,612,5,1,1,1,649
2755,5,1,613,5,1,1,1,532
2756,5,1,614,10,0,0,0,692
2757,5,1,615,5,0,0,1,741
2758,5,1,616,1,0,0,1,502
2759,5,1,617,20,0,0,1,724
2760,5,1,618,3,1,1,1,781
2761,5,1,619,5,1,1,1,793
2762,5,1,620,32,1,1,1,713
2763,5,1,621,10,1,1,1,729
2764,5,1,622,20,1,1,1,775
2765,5,1,623,32,0,0,1,764
2766,5,1,624,5,0,0,1,588
2767,5,1,625,1,1,1,1,549
2768,5,1,626,20,0,0,1,681
2769,5,1,627,32,1,1,1,772
2770,5,1,628,5,1,1,1,474
2771,5,1,629,5,1,1,1,1005
2772,5,1,630,10,1,1,1,499
2773,5,1,631,20,0,0,1,684
2774,5,1,632,32,1,1,1,571
2775,5,1,633,5,0,0,1,510
2776,5,1,634,20,0,0,1,588
2777,5,1,635,32,1,1,1,732
2778,5,1,636,20,0,0,1,546
2779,5,1,637,3,1,1,1,739
2780,5,1,638,1,1,1,1,473
2781,5,1,639,1,1,1,1,479
2782,5,1,640,20,0,0,1,544
2783,5,1,641,1,0,0,1,927
2784,5,1,642,10,0,0,0,597
2785,5,1,643,32,0,0,1,682
2786,5,1,644,1,0,0,1,542
2787,5,1,645,1,1,1,1,547
2788,5,1,646,5,1,1,1,767
2789,5,1,647,20,0,0,1,594
2790,5,1,648,1,1,1,1,427
2791,5,1,649,3,1,1,1,425
2792,5,1,650,20,0,0,1,558
2793,5,1,651,20,1,1,1,523
2794,5,1,652,20,1,1,1,583
2795,5,1,653,5,1,1,1,525
2796,5,1,654,20,0,0,1,680
2797,5,1,655,10,0,0,1,1032
2798,5,1,656,3,0,0,1,902
2799,5,1,657,20,1,1,1,574
2800,5,1,658,10,1,1,1,523
2801,5,1,659,32,0,0,1,494
2802,5,1,660,20,0,0,1,713
2803,5,1,661,20,0,0,1,551
2804,5,1,662,3,0,0,1,610
2805,5,1,663,32,0,0,1,732
2806,5,1,664,32,1,1,1,699
2807,5,1,665,1,0,0,1,501
2808,5,1,666,1,1,1,1,482
2809,5,1,667,5,0,0,1,731
2810,5,1,668,10,0,0,1,499
2811,5,1,669,10,0,0,1,753
2812,5,1,670,10,1,1,1,660
2813,5,1,671,32,1,1,1,601
2814,5,1,672,3,1,1,1,977
2815,5,1,673,32,1,1,1,745
2816,5,1,674,5,1,1,1,682
2817,5,1,675,1,1,1,1,462
2818,5,1,676,10,0,0,1,560
2819,5,1,677,20,0,0,1,585
2820,5,1,678,10,0,0,1,562
2821,5,1,679,10,0,0,1,573
2822,5,1,680,1,1,1,1,548
2823,5,1,681,10,1,1,1,629
2824,5,1,682,5,1,1,1,568
2825,5,1,683,10,1,1,1,569
2826,5,1,684,10,1,1,1,585
2827,5,1,685,5,1,1,1,469
2828,5,1,686,5,0,0,1,530
2829,5,1,687,5,1,1,1,759
2830,5,1,688,20,1,1,1,458
2831,5,1,689,10,1,1,1,659
2832,5,1,690,10,0,0,1,679
2833,5,1,691,10,0,0,1,613
2834,5,1,692,1,1,1,1,478
2835,5,1,693,5,0,0,1,755
2836,5,1,694,3,0,0,1,733
2837,5,1,695,1,0,0,1,537
2838,5,1,696,10,0,0,1,609
2839,5,1,697,1,0,0,1,1072
2840,5,1,698,20,0,0,1,679
2841,5,1,699,20,0,0,1,840
2842,5,1,700,5,0,0,1,767
2843,5,1,701,32,0,0,1,628
2844,5,1,702,20,0,0,0,444
2845,5,1,703,20,0,0,1,731
2846,5,1,704,5,0,0,1,497
2847,5,1,705,10,1,1,1,717
2848,5,1,706,32,1,1,1,674
2849,5,1,707,5,1,1,1,644
2850,5,1,708,32,0,0,1,562
2851,5,1,709,3,0,0,1,820
2852,5,1,710,20,1,1,1,716
2853,5,1,711,20,0,0,1,663
2854,5,1,712,1,0,0,1,592
2855,5,1,713,3,1,1,1,645
2856,5,1,714,32,1,3,0,945
2857,6,1,1,10,0,0,1,1212
2858,6,1,2,3,0,0,1,939
2859,6,1,3,32,0,0,1,978
2860,6,1,4,5,0,0,1,1569
2861,6,1,5,32,1,1,1,715
2862,6,1,6,1,1,1,1,1504
2863,6,1,7,3,0,0,1,882
2864,6,1,8,3,1,1,1,1089
2865,6,1,9,3,1,1,1,1221
2866,6,1,10,32,1,1,1,1092
2867,6,1,11,5,1,1,1,982
2868,6,1,12,32,0,0,1,820
2869,6,1,13,20,0,0,1,793
2870,6,1,14,5,0,0,1,884
2871,6,1,15,1,1,1,1,1213
2872,6,1,16,5,1,1,1,742
2873,6,1,17,10,0,0,1,783
2874,6,1,18,5,1,1,1,1069
2875,6,1,19,3,0,0,1,566
2876,6,1,20,10,0,0,1,625
2877,6,1,21,32,1,1,1,584
2878,6,1,22,5,0,0,1,721
2879,6,1,23,5,0,0,1,662
2880,6,1,24,20,1,1,1,824
2881,6,1,25,5,0,0,1,672
2882,6,1,26,32,0,0,1,1001
2883,6,1,27,10,1,1,1,653
2884,6,1,28,20,0,0,1,639
2885,6,1,29,3,1,1,1,593
2886,6,1,30,5,0,0,1,708
2887,6,1,31,10,1,1,1,641
2888,6,1,32,20,0,0,1,731
2889,6,1,33,3,0,0,1,730
2890,6,1,34,20,0,0,1,542
2891,6,1,35,5,0,0,1,734
2892,6,1,36,10,1,1,1,882
2893,6,1,37,10,0,0,1,631
2894,6,1,38,1,0,0,1,704
2895,6,1,39,3,1,1,1,891
2896,6,1,40,20,1,1,1,979
2897,6,1,41,10,1,1,1,730
2898,6,1,42,32,0,0,1,603
2899,6,1,43,3,0,0,1,668
2900,6,1,44,1,0,0,1,579
2901,6,1,45,1,1,1,1,645
2902,6,1,46,5,0,0,1,661
2903,6,1,47,10,0,0,1,886
2904,6,1,48,3,1,1,1,735
2905,6,1,49,3,1,1,1,890
2906,6,1,50,32,0,0,1,754
2907,6,1,51,5,0,0,1,595
2908,6,1,52,32,1,1,1,795
2909,6,1,53,32,0,0,1,628
2910,6,1,54,1,1,1,1,689
2911,6,1,55,3,1,1,1,892
2912,6,1,56,1,0,0,1,551
2913,6,1,57,3,1,1,1,661
2914,6,1,58,10,1,1,1,943
2915,6,1,59,5,1,1,1,717
2916,6,1,60,32,1,1,1,598
2917,6,1,61,20,0,0,1,609
2918,6,1,62,3,0,0,1,1155
2919,6,1,63,1,1,1,1,580
2920,6,1,64,20,1,1,1,637
2921,6,1,65,32,1,1,1,648
2922,6,1,66,10,1,1,1,653
2923,6,1,67,10,0,0,1,585
2924,6,1,68,1,1,1,1,659
2925,6,1,69,10,1,1,1,685
2926,6,1,70,32,0,0,1,554
2927,6,1,71,3,1,1,1,709
2928,6,1,72,32,0,0,1,520
2929,6,1,73,3,0,0,1,768
2930,6,1,74,5,1,1,1,650
2931,6,1,75,32,0,0,1,886
2932,6,1,76,10,0,0,1,588
2933,6,1,77,20,0,0,1,610
2934,6,1,78,1,1,1,1,721
2935,6,1,79,20,0,0,1,586
2936,6,1,80,20,1,1,1,625
2937,6,1,81,20,0,0,1,545
2938,6,1,82,10,1,1,1,755
2939,6,1,83,32,0,0,1,703
2940,6,1,84,3,0,0,1,771
2941,6,1,85,1,0,0,1,647
2942,6,1,86,10,1,1,1,698
2943,6,1,87,20,1,1,1,599
2944,6,1,88,10,1,1,1,612
2945,6,1,89,5,1,1,1,598
2946,6,1,90,10,1,1,1,763
2947,6,1,91,1,1,1,1,599
2948,6,1,92,5,1,1,1,628
2949,6,1,93,20,1,1,1,539
2950,6,1,94,5,0,0,1,786
2951,6,1,95,3,1,1,1,574
2952,6,1,96,5,1,1,1,959
2953,6,1,97,3,1,1,1,763
2954,6,1,98,20,0,0,1,697
2955,6,1,99,1,0,0,1,630
2956,6,1,100,20,1,1,1,728
2957,6,1,101,20,0,0,1,574
2958,6,1,102,5,0,0,1,913
2959,6,1,103,3,1,1,1,603
2960,6,1,104,20,1,1,1,664
2961,6,1,105,32,1,1,1,679
2962,6,1,106,32,1,1,1,556
2963,6,1,107,1,0,0,1,481
2964,6,1,108,10,0,0,1,602
2965,6,1,109,1,0,0,1,512
2966,6,1,110,10,0,0,1,694
2967,6,1,111,10,1,1,1,638
2968,6,1,112,20,0,0,1,619
2969,6,1,113,1,0,0,1,550
2970,6,1,114,1,1,1,1,500
2971,6,1,115,5,1,1,1,922
2972,6,1,116,32,0,0,1,774
2973,6,1,117,1,0,0,1,492
2974,6,1,118,1,1,1,1,636
2975,6,1,119,5,0,0,1,627
2976,6,1,120,20,1,1,1,658
2977,6,1,121,5,1,1,1,641
2978,6,1,122,20,0,0,1,639
2979,6,1,123,3,1,1,1,518
2980,6,1,124,5,0,0,1,703
2981,6,1,125,20,0,0,1,724
2982,6,1,126,1,0,0,1,534
2983,6,1,127,10,1,1,1,575
2984,6,1,128,1,1,1,1,456
2985,6,1,129,20,1,1,1,590
2986,6,1,130,20,0,0,1,411
2987,6,1,131,3,1,1,1,555
2988,6,1,132,5,1,1,1,531
2989,6,1,133,1,1,1,1,834
2990,6,1,134,3,0,0,1,487
2991,6,1,135,3,1,1,1,656
2992,6,1,136,10,1,1,1,788
2993,6,1,137,32,0,0,1,661
2994,6,1,138,3,1,1,1,610
2995,6,1,139,32,0,0,1,554
2996,6,1,140,10,1,1,1,598
2997,6,1,141,20,0,0,1,495
2998,6,1,142,3,1,1,1,802
2999,6,1,143,20,0,0,1,564
3000,6,1,144,1,0,0,1,498
3001,6,1,145,5,0,0,1,626
3002,6,1,146,3,1,1,1,801
3003,6,1,147,10,0,0,1,648
3004,6,1,148,32,1,1,1,623
3005,6,1,149,32,1,1,1,531
3006,6,1,150,32,0,0,1,625
3007,6,1,151,3,1,1,1,458
3008,6,1,152,1,1,1,1,429
3009,6,1,153,10,0,0,1,590
3010,6,1,154,1,0,0,1,532
3011,6,1,155,32,0,0,1,608
3012,6,1,156,5,1,1,1,483
3013,6,1,157,1,0,0,1,519
3014,6,1,158,3,0,0,1,903
3015,6,1,159,5,1,1,1,702
3016,6,1,160,10,1,1,1,680
3017,6,1,161,32,0,0,1,760
3018,6,1,162,5,1,1,1,666
3019,6,1,163,3,1,1,1,614
3020,6,1,164,10,0,0,1,568
3021,6,1,165,1,0,0,1,495
3022,6,1,166,1,0,0,1,501
3023,6,1,167,3,0,0,1,560
3024,6,1,168,5,0,0,1,698
3025,6,1,169,3,1,1,1,693
3026,6,1,170,20,1,1,1,523
3027,6,1,171,10,1,1,1,533
3028,6,1,172,3,0,0,1,682
3029,6,1,173,5,1,1,1,531
3030,6,1,174,1,0,0,1,446
3031,6,1,175,5,1,1,1,669
3032,6,1,176,3,1,1,1,671
3033,6,1,177,1,1,1,1,547
3034,6,1,178,32,0,0,1,635
3035,6,1,179,10,0,0,1,599
3036,6,1,180,3,0,0,1,494
3037,6,1,181,20,0,0,1,783
3038,6,1,182,32,0,0,1,583
3039,6,1,183,3,0,0,1,550
3040,6,1,184,20,1,1,1,642
3041,6,1,185,1,1,1,1,716
3042,6,1,186,10,1,1,1,733
3043,6,1,187,5,0,0,1,680
3044,6,1,188,20,0,0,1,703
3045,6,1,189,20,0,0,1,529
3046,6,1,190,20,1,1,1,615
3047,6,1,191,20,1,1,1,850
3048,6,1,192,3,1,1,1,966
3049,6,1,193,1,0,0,1,474
3050,6,1,194,10,0,0,1,577
3051,6,1,195,3,1,1,1,616
3052,6,1,196,5,0,0,1,705
3053,6,1,197,20,1,1,1,577
3054,6,1,198,3,0,0,1,556
3055,6,1,199,20,1,1,1,521
3056,6,1,200,20,1,1,1,477
3057,6,1,201,3,1,1,1,1064
3058,6,1,202,3,1,1,1,659
3059,6,1,203,32,1,1,1,600
3060,6,1,204,20,0,0,1,596
3061,6,1,205,20,1,1,1,574
3062,6,1,206,20,1,1,1,569
3063,6,1,207,32,1,1,1,521
3064,6,1,208,5,1,1,1,614
3065,6,1,209,5,1,1,1,752
3066,6,1,210,3,1,1,1,549
3067,6,1,211,32,1,1,1,715
3068,6,1,212,20,0,0,1,481
3069,6,1,213,20,1,1,1,569
3070,6,1,214,20,0,0,1,521
3071,6,1,215,10,1,1,1,671
3072,6,1,216,20,0,0,1,640
3073,6,1,217,3,0,0,1,731
3074,6,1,218,32,0,0,1,646
3075,6,1,219,20,1,1,1,535
3076,6,1,220,5,1,1,1,686
3077,6,1,221,20,1,1,1,748
3078,6,1,222,5,0,0,1,654
3079,6,1,223,20,0,0,1,655
3080,6,1,224,10,1,1,1,485
3081,6,1,225,5,0,0,1,525
3082,6,1,226,3,0,0,1,644
3083,6,1,227,5,0,0,1,508
3084,6,1,228,32,1,1,1,585
3085,6,1,229,32,0,0,1,451
3086,6,1,230,1,1,1,1,571
3087,6,1,231,5,1,1,1,717
3088,6,1,232,1,1,1,1,530
3089,6,1,233,20,0,0,1,710
3090,6,1,234,5,0,0,1,703
3091,6,1,235,1,0,0,1,532
3092,6,1,236,5,1,1,1,510
3093,6,1,237,1,1,1,1,590
3094,6,1,238,32,1,1,1,717
3095,6,1,239,5,0,0,1,454
3096,6,1,240,5,0,0,1,648
3097,6,1,241,32,1,1,1,557
3098,6,1,242,32,1,1,1,730
3099,6,1,243,3,0,0,1,489
3100,6,1,244,5,1,1,1,623
3101,6,1,245,32,1,1,1,544
3102,6,1,246,20,0,0,1,580
3103,6,1,247,10,1,1,1,606
3104,6,1,248,10,0,0,1,622
3105,6,1,249,3,0,0,1,590
3106,6,1,250,1,0,0,1,481
3107,6,1,251,10,1,1,1,547
3108,6,1,252,20,1,1,1,496
3109,6,1,253,20,1,1,1,566
3110,6,1,254,32,1,1,1,515
3111,6,1,255,1,1,1,1,433
3112,6,1,256,10,0,0,1,467
3113,6,1,257,3,1,1,1,561
3114,6,1,258,1,1,1,1,482
3115,6,1,259,32,1,1,1,571
3116,6,1,260,1,0,0,1,478
3117,6,1,261,20,0,0,1,525
3118,6,1,262,10,0,0,1,500
3119,6,1,263,5,0,0,1,610
3120,6,1,264,20,0,0,1,568
3121,6,1,265,32,1,1,1,582
3122,6,1,266,3,1,1,1,788
3123,6,1,267,32,0,0,1,621
3124,6,1,268,32,1,1,1,658
3125,6,1,269,32,0,0,1,531
3126,6,1,270,20,0,0,1,523
3127,6,1,271,20,1,1,1,590
3128,6,1,272,5,1,1,1,698
3129,6,1,273,32,0,0,1,573
3130,6,1,274,3,0,0,1,519
3131,6,1,275,3,0,0,1,873
3132,6,1,276,1,1,1,1,593
3133,6,1,277,32,0,0,1,2396
3134,6,1,278,1,0,0,1,642
3135,6,1,279,32,1,1,1,567
3136,6,1,280,3,0,0,1,594
3137,6,1,281,5,1,1,1,549
3138,6,1,282,3,0,0,1,549
3139,6,1,283,5,1,1,1,631
3140,6,1,284,3,1,1,1,525
3141,6,1,285,32,0,0,1,484
3142,6,1,286,20,1,1,1,712
3143,6,1,287,10,0,0,1,619
3144,6,1,288,5,1,1,1,801
3145,6,1,289,5,0,0,1,427
3146,6,1,290,1,1,1,1,478
3147,6,1,291,3,0,0,1,629
3148,6,1,292,3,0,0,1,721
3149,6,1,293,32,0,0,1,593
3150,6,1,294,3,0,0,1,484
3151,6,1,295,5,1,1,1,521
3152,6,1,296,32,0,0,1,499
3153,6,1,297,32,1,1,1,501
3154,6,1,298,5,1,1,1,541
3155,6,1,299,1,0,0,1,428
3156,6,1,300,32,1,1,1,495
3157,6,1,301,32,1,1,1,554
3158,6,1,302,32,1,1,1,496
3159,6,1,303,5,1,1,1,526
3160,6,1,304,1,1,1,1,413
3161,6,1,305,10,0,0,0,539
3162,6,1,306,32,1,1,1,512
3163,6,1,307,20,1,1,1,478
3164,6,1,308,1,0,0,1,502
3165,6,1,309,5,1,1,1,675
3166,6,1,310,10,0,0,1,576
3167,6,1,311,1,1,1,1,563
3168,6,1,312,1,1,1,1,615
3169,6,1,313,3,1,1,1,530
3170,6,1,314,5,0,0,1,788
3171,6,1,315,10,0,0,1,498
3172,6,1,316,32,1,1,1,733
3173,6,1,317,10,1,1,1,491
3174,6,1,318,5,0,0,1,518
3175,6,1,319,5,1,1,1,696
3176,6,1,320,32,1,1,1,767
3177,6,1,321,20,1,1,1,566
3178,6,1,322,3,0,0,1,767
3179,6,1,323,20,1,1,1,570
3180,6,1,324,10,1,1,1,504
3181,6,1,325,32,1,1,1,550
3182,6,1,326,10,0,0,1,496
3183,6,1,327,3,1,1,1,482
3184,6,1,328,20,0,0,1,578
3185,6,1,329,1,1,1,1,506
3186,6,1,330,10,0,0,1,522
3187,6,1,331,1,1,1,1,454
3188,6,1,332,32,1,1,1,619
3189,6,1,333,5,1,1,1,580
3190,6,1,334,5,0,0,1,673
3191,6,1,335,20,1,1,1,792
3192,6,1,336,20,1,1,1,482
3193,6,1,337,32,1,1,1,499
3194,6,1,338,3,0,0,1,486
3195,6,1,339,5,0,0,1,606
3196,6,1,340,20,0,0,1,790
3197,6,1,341,10,0,0,1,709
3198,6,1,342,20,1,1,1,568
3199,6,1,343,10,1,1,1,658
3200,6,1,344,5,0,0,1,455
3201,6,1,345,3,0,0,1,709
3202,6,1,346,5,1,1,1,585
3203,6,1,347,3,1,1,1,678
3204,6,1,348,10,0,0,1,680
3205,6,1,349,10,0,0,1,395
3206,6,1,350,20,1,1,1,552
3207,6,1,351,32,0,0,1,575
3208,6,1,352,10,0,0,1,600
3209,6,1,353,10,1,1,1,446
3210,6,1,354,3,1,1,1,607
3211,6,1,355,10,1,1,1,575
3212,6,1,356,3,0,0,1,862
3213,6,1,357,3,1,1,1,936
3214,6,1,358,3,0,0,1,605
3215,6,1,359,5,1,1,1,712
3216,6,1,360,10,1,1,1,634
3217,6,1,361,10,0,0,1,692
3218,6,1,362,32,0,0,1,884
3219,6,1,363,10,1,1,1,608
3220,6,1,364,10,0,0,1,1131
3221,6,1,365,10,1,1,1,647
3222,6,1,366,1,0,0,1,443
3223,6,1,367,20,0,0,1,577
3224,6,1,368,3,0,0,1,668
3225,6,1,369,20,0,0,1,739
3226,6,1,370,32,1,1,1,623
3227,6,1,371,32,0,0,1,962
3228,6,1,372,5,1,1,1,536
3229,6,1,373,1,1,1,1,481
3230,6,1,374,5,0,0,1,759
3231,6,1,375,10,0,0,1,597
3232,6,1,376,32,0,0,1,724
3233,6,1,377,5,1,1,1,586
3234,6,1,378,20,0,0,1,518
3235,6,1,379,10,1,1,1,657
3236,6,1,380,32,0,0,1,677
3237,6,1,381,32,1,1,1,778
3238,6,1,382,1,0,0,1,446
3239,6,1,383,32,0,0,1,512
3240,6,1,384,32,0,0,1,522
3241,6,1,385,32,0,0,1,488
3242,6,1,386,20,0,0,1,596
3243,6,1,387,32,1,1,1,656
3244,6,1,388,20,1,1,1,537
3245,6,1,389,20,0,0,1,452
3246,6,1,390,10,1,1,1,529
3247,6,1,391,10,0,0,1,585
3248,6,1,392,5,1,1,1,577
3249,6,1,393,32,1,1,1,526
3250,6,1,394,20,1,1,1,533
3251,6,1,395,1,1,1,1,470
3252,6,1,396,3,1,1,1,578
3253,6,1,397,32,1,1,1,830
3254,6,1,398,1,0,0,1,591
3255,6,1,399,20,0,0,1,648
3256,6,1,400,3,0,0,1,4079
3257,6,1,401,32,0,0,1,552
3258,6,1,402,32,0,0,1,506
3259,6,1,403,20,0,0,1,509
3260,6,1,404,3,1,1,1,649
3261,6,1,405,10,0,0,1,618
3262,6,1,406,3,1,1,1,460
3263,6,1,407,1,1,1,1,598
3264,6,1,408,3,0,0,1,378
3265,6,1,409,20,1,1,1,529
3266,6,1,410,20,1,1,1,534
3267,6,1,411,32,1,1,1,739
3268,6,1,412,10,1,1,1,503
3269,6,1,413,3,1,1,1,488
3270,6,1,414,5,1,1,1,392
3271,6,1,415,32,0,0,1,543
3272,6,1,416,5,0,0,1,2153
3273,6,1,417,3,1,1,1,489
3274,6,1,418,1,0,0,1,418
3275,6,1,419,10,0,0,1,636
3276,6,1,420,20,1,1,1,572
3277,6,1,421,10,1,1,1,606
3278,6,1,422,1,1,1,1,435
3279,6,1,423,32,0,0,1,520
3280,6,1,424,3,0,0,1,564
3281,6,1,425,20,1,1,1,815
3282,6,1,426,3,0,0,1,443
3283,6,1,427,10,1,1,1,499
3284,6,1,428,5,1,1,1,797
3285,6,1,429,1,1,1,1,504
3286,6,1,430,1,1,1,1,2189
3287,6,1,431,32,0,0,1,568
3288,6,1,432,10,0,0,1,567
3289,6,1,433,3,0,0,1,513
3290,6,1,434,10,1,1,1,476
3291,6,1,435,5,0,0,1,449
3292,6,1,436,5,0,0,1,526
3293,6,1,437,5,0,0,1,491
3294,6,1,438,20,0,0,1,499
3295,6,1,439,5,1,1,1,730
3296,6,1,440,1,0,0,1,489
3297,6,1,441,10,1,1,1,456
3298,6,1,442,5,1,1,1,683
3299,6,1,443,3,0,0,1,467
3300,6,1,444,32,0,0,1,850
3301,6,1,445,3,0,0,1,706
3302,6,1,446,5,0,0,1,957
3303,6,1,447,10,0,0,1,593
3304,6,1,448,1,1,1,1,618
3305,6,1,449,10,1,1,1,614
3306,6,1,450,10,0,0,1,453
3307,6,1,451,32,1,1,1,534
3308,6,1,452,20,0,0,1,477
3309,6,1,453,5,1,1,1,769
3310,6,1,454,1,0,0,1,600
3311,6,1,455,3,1,1,1,882
3312,6,1,456,10,1,1,1,671
3313,6,1,457,5,0,0,1,991
3314,6,1,458,20,1,1,1,791
3315,6,1,459,3,1,1,1,538
3316,6,1,460,20,1,1,1,841
3317,6,1,461,20,0,0,1,1467
3318,6,1,462,32,1,1,1,456
3319,6,1,463,10,1,1,1,456
3320,6,1,464,1,1,1,1,809
3321,6,1,465,32,1,1,1,604
3322,6,1,466,3,1,1,1,3278
3323,6,1,467,10,1,1,1,542
3324,6,1,468,20,1,1,1,419
3325,6,1,469,1,0,0,1,395
3326,6,1,470,20,1,1,1,492
3327,6,1,471,5,1,1,1,606
3328,6,1,472,3,0,0,1,691
3329,6,1,473,5,0,0,1,603
3330,6,1,474,10,1,1,1,742
3331,6,1,475,10,0,0,1,929
3332,6,1,476,32,0,0,1,685
3333,6,1,477,1,0,0,1,809
3334,6,1,478,3,1,1,1,534
3335,6,1,479,1,0,0,1,396
3336,6,1,480,20,1,1,1,509
3337,6,1,481,20,0,0,1,772
3338,6,1,482,10,0,0,1,441
3339,6,1,483,1,1,1,1,408
3340,6,1,484,5,0,0,1,407
3341,6,1,485,10,1,1,1,602
3342,6,1,486,32,1,1,1,564
3343,6,1,487,10,1,1,1,552
3344,6,1,488,1,1,1,1,448
3345,6,1,489,10,0,0,1,628
3346,6,1,490,1,0,0,1,679
3347,6,1,491,1,1,1,1,451
3348,6,1,492,32,0,0,1,842
3349,6,1,493,20,1,1,1,743
3350,6,1,494,32,0,0,1,709
3351,6,1,495,1,1,1,1,514
3352,6,1,496,32,0,0,1,711
3353,6,1,497,20,1,1,1,1018
3354,6,1,498,3,0,0,1,819
3355,6,1,499,1,0,0,1,572
3356,6,1,500,5,1,1,1,1032
3357,6,1,501,20,0,0,1,660
3358,6,1,502,3,1,1,1,821
3359,6,1,503,5,1,1,1,611
3360,6,1,504,1,0,0,1,606
3361,6,1,505,32,1,1,1,625
3362,6,1,506,3,0,0,1,808
3363,6,1,507,1,1,1,1,2503
3364,6,1,508,3,1,1,1,521
3365,6,1,509,1,1,1,1,451
3366,6,1,510,10,1,1,1,688
3367,6,1,511,20,0,0,1,809
3368,6,1,512,5,1,1,1,925
3369,6,1,513,20,1,1,1,558
3370,6,1,514,1,1,1,1,425
3371,6,1,515,32,1,1,1,896
3372,6,1,516,3,0,0,1,546
3373,6,1,517,1,1,1,1,538
3374,6,1,518,5,1,1,1,713
3375,6,1,519,1,0,0,1,440
3376,6,1,520,1,1,1,1,411
3377,6,1,521,5,0,0,1,668
3378,6,1,522,10,0,0,1,996
3379,6,1,523,32,0,0,1,752
3380,6,1,524,1,1,1,1,527
3381,6,1,525,1,0,0,1,435
3382,6,1,526,5,0,0,1,1008
3383,6,1,527,3,0,0,1,593
3384,6,1,528,3,0,0,1,814
3385,6,1,529,10,0,0,1,596
3386,6,1,530,10,0,0,1,880
3387,6,1,531,1,0,0,1,642
3388,6,1,532,32,0,0,1,1301
3389,6,1,533,20,1,1,1,457
3390,6,1,534,3,0,0,1,527
3391,6,1,535,20,1,1,1,568
3392,6,1,536,32,1,1,1,1143
3393,6,1,537,1,1,1,1,449
3394,6,1,538,20,0,0,1,1396
3395,6,1,539,3,0,0,1,924
3396,6,1,540,3,0,0,1,794
3397,6,1,541,3,1,1,1,981
3398,6,1,542,20,1,1,1,629
3399,6,1,543,5,1,1,1,495
3400,6,1,544,10,1,1,1,1186
3401,6,1,545,10,1,1,1,1555
3402,6,1,546,32,0,0,1,634
3403,6,1,547,5,0,0,1,574
3404,6,1,548,20,1,1,1,1512
3405,6,1,549,32,1,1,1,598
3406,6,1,550,1,1,1,1,494
3407,6,1,551,3,1,1,1,530
3408,6,1,552,32,1,1,1,650
3409,6,1,553,32,0,0,1,2106
3410,6,1,554,3,1,1,1,767
3411,6,1,555,10,0,0,1,725
3412,6,1,556,20,0,0,1,511
3413,6,1,557,1,0,0,1,1907
3414,6,1,558,10,0,0,1,522
3415,6,1,559,5,1,1,1,767
3416,6,1,560,5,0,0,1,492
3417,6,1,561,20,0,0,1,656
3418,6,1,562,5,1,1,1,533
3419,6,1,563,20,0,0,1,547
3420,6,1,564,10,0,0,1,795
3421,6,1,565,5,0,0,1,918
3422,6,1,566,1,0,0,1,1417
3423,6,1,567,5,1,1,1,1664
3424,6,1,568,3,1,1,1,2185
3425,6,1,569,5,0,0,1,1760
3426,6,1,570,10,0,0,1,590
3427,6,1,571,20,0,0,1,848
3428,6,1,572,10,0,0,1,520
3429,6,1,573,1,1,1,1,531
3430,6,1,574,32,1,1,1,597
3431,6,1,575,10,0,0,1,538
3432,6,1,576,10,1,1,1,618
3433,6,1,577,3,0,0,1,1121
3434,6,1,578,3,0,0,1,700
3435,6,1,579,20,1,1,1,707
3436,6,1,580,10,1,1,1,730
3437,6,1,581,10,0,0,1,528
3438,6,1,582,1,1,1,1,668
3439,6,1,583,1,0,0,1,355
3440,6,1,584,3,1,1,1,619
3441,6,1,585,1,0,0,1,880
3442,6,1,586,20,0,0,1,3565
3443,6,1,587,1,0,0,1,559
3444,6,1,588,10,0,0,1,576
3445,6,1,589,32,0,0,1,418
3446,6,1,590,10,1,1,1,516
3447,6,1,591,32,0,0,1,560
3448,6,1,592,1,0,0,1,592
3449,6,1,593,5,0,0,1,4626
3450,6,1,594,1,0,0,1,383
3451,6,1,595,32,0,0,1,607
3452,6,1,596,1,0,0,1,530
3453,6,1,597,32,1,1,1,1766
3454,6,1,598,5,0,0,1,526
3455,6,1,599,1,0,0,1,1622
3456,6,1,600,3,0,0,1,1045
3457,6,1,601,20,1,1,1,502
3458,6,1,602,3,1,1,1,1380
3459,6,1,603,3,0,0,1,702
3460,6,1,604,10,0,0,1,846
3461,6,1,605,32,1,1,1,845
3462,6,1,606,1,1,1,1,1047
3463,6,1,607,20,0,0,1,645
3464,6,1,608,10,0,0,1,572
3465,6,1,609,3,1,1,1,798
3466,6,1,610,1,0,0,1,528
3467,6,1,611,5,1,1,1,683
3468,6,1,612,1,0,0,1,516
3469,6,1,613,20,1,1,1,2494
3470,6,1,614,1,0,0,1,457
3471,6,1,615,3,0,0,1,771
3472,6,1,616,32,0,0,1,663
3473,6,1,617,20,0,0,1,854
3474,6,1,618,1,1,1,1,488
3475,6,1,619,5,1,1,1,543
3476,6,1,620,1,0,0,1,442
3477,6,1,621,5,0,0,1,657
3478,6,1,622,5,0,0,1,573
3479,6,1,623,1,0,0,1,1033
3480,6,1,624,5,1,1,0,384
3481,6,1,625,10,1,1,1,619
3482,6,1,626,1,1,1,1,451
3483,6,1,627,5,0,0,1,536
3484,6,1,628,32,0,0,1,685
3485,6,1,629,10,1,1,1,622
3486,6,1,630,32,1,1,1,515
3487,6,1,631,5,0,0,1,915
3488,6,1,632,1,0,0,1,568
3489,6,1,633,32,0,0,1,569
3490,6,1,634,32,0,0,1,965
3491,6,1,635,10,0,0,1,457
3492,6,1,636,20,0,0,1,833
3493,6,1,637,3,0,0,1,769
3494,6,1,638,3,0,0,1,1028
3495,6,1,639,10,1,1,1,2205
3496,6,1,640,20,1,1,1,673
3497,6,1,641,1,1,1,1,933
3498,6,1,642,3,0,0,1,737
3499,6,1,643,3,1,1,1,765
3500,6,1,644,1,1,1,1,463
3501,6,1,645,3,0,0,1,613
3502,6,1,646,10,0,0,1,3677
3503,6,1,647,5,0,0,1,615
3504,6,1,648,20,1,1,1,988
3505,6,1,649,5,1,1,1,1407
3506,6,1,650,5,0,3,0,4991
3507,6,1,651,1,0,0,1,1311
3508,6,1,652,5,0,0,1,575
3509,6,1,653,3,1,1,1,521
3510,6,1,654,5,1,1,1,640
3511,6,1,655,10,0,0,1,658
3512,6,1,656,1,0,0,1,379
3513,6,1,657,20,0,0,1,532
3514,6,1,658,3,0,0,1,685
3515,6,1,659,5,1,1,1,588
3516,6,1,660,20,1,1,1,607
3517,6,1,661,5,0,0,1,893
3518,6,1,662,20,1,1,1,581
3519,6,1,663,1,1,1,1,663
3520,6,1,664,10,1,1,1,546
3521,6,1,665,32,1,1,1,687
3522,6,1,666,1,0,0,1,783
3523,6,1,667,5,0,0,1,1156
3524,6,1,668,32,1,1,1,957
3525,6,1,669,1,1,1,1,3146
3526,6,1,670,5,0,0,1,663
3527,6,1,671,3,0,0,1,529
3528,6,1,672,1,0,0,1,422
3529,6,1,673,20,0,0,1,650
3530,6,1,674,32,0,0,1,501
3531,6,1,675,10,0,0,1,472
3532,6,1,676,32,1,1,1,571
3533,6,1,677,1,0,0,1,876
3534,6,1,678,1,0,0,1,366
3535,6,1,679,32,0,0,1,595
3536,6,1,680,3,1,1,1,842
3537,6,1,681,10,0,3,0,4992
3538,6,1,682,20,1,1,1,527
3539,6,1,683,3,1,1,1,519
3540,6,1,684,32,1,1,1,673
3541,6,1,685,10,0,0,1,536
3542,6,1,686,32,1,1,1,482
3543,6,1,687,3,1,1,1,587
3544,6,1,688,32,1,1,1,492
3545,6,1,689,10,1,1,1,523
3546,6,1,690,1,1,1,1,459
3547,6,1,691,1,1,1,1,400
3548,6,1,692,10,0,0,1,574
3549,6,1,693,20,0,0,1,1015
3550,6,1,694,3,1,1,1,707
3551,6,1,695,32,0,0,1,530
3552,6,1,696,10,1,1,1,661
3553,6,1,697,5,1,1,1,640
3554,6,1,698,32,1,1,1,543
3555,6,1,699,5,0,0,1,493
3556,6,1,700,10,1,1,1,457
3557,6,1,701,32,1,1,1,500
3558,6,1,702,3,0,0,1,651
3559,6,1,703,5,1,1,1,458
3560,6,1,704,20,0,0,1,690
3561,6,1,705,20,1,1,1,1080
3562,6,1,706,3,1,1,0,456
3563,6,1,707,20,0,0,1,478
3564,6,1,708,1,1,1,1,502
3565,6,1,709,5,0,0,1,775
3566,6,1,710,20,0,0,1,782
3567,6,1,711,10,1,1,1,591
3568,6,1,712,10,1,1,1,588
3569,6,1,713,1,1,1,1,460
3570,6,1,714,10,0,0,1,571
3571,7,1,1,32,1,1,1,969
3572,7,1,2,5,0,0,1,475
3573,7,1,3,3,1,1,1,374
3574,7,1,4,20,1,1,1,553
3575,7,1,5,5,1,1,1,521
3576,7,1,6,20,1,1,1,1170
3577,7,1,7,5,1,1,1,625
3578,7,1,8,5,1,1,1,455
3579,7,1,9,3,0,0,1,977
3580,7,1,10,10,1,1,1,539
3581,7,1,11,20,1,1,0,578
3582,7,1,12,20,1,1,1,754
3583,7,1,13,32,0,0,1,824
3584,7,1,14,3,0,0,1,1177
3585,7,1,15,10,0,0,1,641
3586,7,1,16,10,0,0,1,759
3587,7,1,17,1,0,0,1,493
3588,7,1,18,10,0,0,1,543
3589,7,1,19,32,1,1,1,735
3590,7,1,20,1,0,0,1,672
3591,7,1,21,5,0,0,1,702
3592,7,1,22,5,0,0,1,513
3593,7,1,23,10,0,0,1,618
3594,7,1,24,20,1,1,1,567
3595,7,1,25,10,1,1,1,666
3596,7,1,26,5,0,0,1,643
3597,7,1,27,1,1,1,1,713
3598,7,1,28,5,0,0,1,779
3599,7,1,29,10,0,0,1,575
3600,7,1,30,32,0,0,1,558
3601,7,1,31,1,0,0,1,466
3602,7,1,32,10,0,0,1,545
3603,7,1,33,3,1,1,1,522
3604,7,1,34,32,0,0,1,516
3605,7,1,35,1,1,1,1,384
3606,7,1,36,3,1,1,1,779
3607,7,1,37,3,1,1,1,673
3608,7,1,38,20,1,1,1,596
3609,7,1,39,10,0,0,1,721
3610,7,1,40,10,1,1,1,701
3611,7,1,41,20,1,1,1,595
3612,7,1,42,1,0,0,1,1271
3613,7,1,43,5,1,1,1,740
3614,7,1,44,5,0,0,1,710
3615,7,1,45,32,0,0,1,813
3616,7,1,46,32,1,1,1,638
3617,7,1,47,5,0,0,1,687
3618,7,1,48,20,0,0,1,646
3619,7,1,49,5,1,1,1,479
3620,7,1,50,3,0,0,1,669
3621,7,1,51,1,0,0,1,454
3622,7,1,52,20,0,0,1,493
3623,7,1,53,32,0,0,1,709
3624,7,1,54,20,1,1,1,686
3625,7,1,55,5,0,0,1,512
3626,7,1,56,32,1,1,1,692
3627,7,1,57,32,0,0,1,674
3628,7,1,58,32,1,1,1,548
3629,7,1,59,32,0,0,1,683
3630,7,1,60,3,1,1,1,604
3631,7,1,61,5,0,0,1,392
3632,7,1,62,3,1,1,1,407
3633,7,1,63,32,0,0,1,465
3634,7,1,64,3,0,0,1,595
3635,7,1,65,10,0,0,1,449
3636,7,1,66,1,0,0,1,555
3637,7,1,67,32,0,0,1,571
3638,7,1,68,1,1,1,1,394
3639,7,1,69,10,0,0,1,599
3640,7,1,70,5,1,1,1,476
3641,7,1,71,32,0,0,1,620
3642,7,1,72,10,1,1,1,523
3643,7,1,73,1,0,0,1,407
3644,7,1,74,5,0,0,1,470
3645,7,1,75,32,0,0,1,701
3646,7,1,76,10,0,0,1,516
3647,7,1,77,20,0,0,1,591
3648,7,1,78,20,0,0,1,446
3649,7,1,79,20,1,1,1,688
3650,7,1,80,3,1,1,1,550
3651,7,1,81,3,1,1,1,589
3652,7,1,82,32,1,1,1,518
3653,7,1,83,3,1,1,0,596
3654,7,1,84,5,0,0,1,1159
3655,7,1,85,1,1,1,1,435
3656,7,1,86,3,0,0,1,760
3657,7,1,87,5,1,1,1,530
3658,7,1,88,20,1,1,1,668
3659,7,1,89,32,1,1,1,879
3660,7,1,90,10,1,1,1,583
3661,7,1,91,20,0,0,1,545
3662,7,1,92,3,1,1,1,593
3663,7,1,93,3,0,0,1,562
3664,7,1,94,10,0,0,1,776
3665,7,1,95,10,0,0,1,738
3666,7,1,96,10,0,0,1,583
3667,7,1,97,10,1,1,1,476
3668,7,1,98,10,1,1,1,660
3669,7,1,99,3,1,1,1,676
3670,7,1,100,3,0,0,1,535
3671,7,1,101,3,0,0,1,560
3672,7,1,102,3,1,1,1,817
3673,7,1,103,1,0,0,1,664
3674,7,1,104,1,1,1,1,964
3675,7,1,105,32,0,0,1,885
3676,7,1,106,5,1,1,1,890
3677,7,1,107,1,1,1,1,422
3678,7,1,108,20,0,0,1,513
3679,7,1,109,3,1,1,1,505
3680,7,1,110,3,1,1,1,756
3681,7,1,111,3,0,0,1,495
3682,7,1,112,20,1,1,1,417
3683,7,1,113,20,0,0,1,546
3684,7,1,114,3,1,1,1,807
3685,7,1,115,1,1,1,1,432
3686,7,1,116,5,1,1,1,712
3687,7,1,117,5,0,0,1,487
3688,7,1,118,20,1,1,1,666
3689,7,1,119,1,0,0,1,407
3690,7,1,120,5,0,0,1,770
3691,7,1,121,10,1,1,1,850
3692,7,1,122,3,1,1,1,1113
3693,7,1,123,1,1,1,1,448
3694,7,1,124,3,0,0,1,644
3695,7,1,125,32,1,1,1,571
3696,7,1,126,10,0,0,1,529
3697,7,1,127,32,1,1,1,510
3698,7,1,128,5,1,1,1,654
3699,7,1,129,10,0,0,1,517
3700,7,1,130,10,1,1,1,400
3701,7,1,131,3,0,0,1,679
3702,7,1,132,32,1,1,1,598
3703,7,1,133,5,0,0,1,513
3704,7,1,134,3,1,1,1,718
3705,7,1,135,3,0,0,1,517
3706,7,1,136,20,0,0,1,483
3707,7,1,137,20,1,1,1,723
3708,7,1,138,1,1,1,1,471
3709,7,1,139,1,1,1,1,363
3710,7,1,140,3,0,0,1,489
3711,7,1,141,10,0,0,1,532
3712,7,1,142,5,1,1,1,450
3713,7,1,143,10,1,1,1,501
3714,7,1,144,32,0,0,0,597
3715,7,1,145,3,0,0,1,657
3716,7,1,146,1,0,0,1,495
3717,7,1,147,1,0,0,1,412
3718,7,1,148,20,0,0,1,654
3719,7,1,149,20,1,1,1,629
3720,7,1,150,1,1,1,1,413
3721,7,1,151,10,1,1,1,704
3722,7,1,152,10,1,1,1,716
3723,7,1,153,3,0,0,1,518
3724,7,1,154,32,1,1,1,703
3725,7,1,155,1,1,1,1,628
3726,7,1,156,20,0,0,1,795
3727,7,1,157,10,1,1,1,604
3728,7,1,158,10,0,0,1,533
3729,7,1,159,32,0,0,1,454
3730,7,1,160,5,0,0,1,878
3731,7,1,161,32,0,0,1,601
3732,7,1,162,3,0,0,1,542
3733,7,1,163,10,1,1,1,632
3734,7,1,164,10,1,1,1,789
3735,7,1,165,5,1,1,1,448
3736,7,1,166,10,1,1,1,627
3737,7,1,167,32,1,1,1,533
3738,7,1,168,1,0,0,1,556
3739,7,1,169,1,1,1,1,510
3740,7,1,170,20,0,0,1,779
3741,7,1,171,20,1,1,1,563
3742,7,1,172,10,1,1,1,745
3743,7,1,173,32,0,0,1,653
3744,7,1,174,3,0,0,1,750
3745,7,1,175,20,1,1,1,696
3746,7,1,176,32,1,1,1,688
3747,7,1,177,1,0,0,1,510
3748,7,1,178,10,0,0,1,586
3749,7,1,179,32,1,1,1,596
3750,7,1,180,3,1,1,1,432
3751,7,1,181,32,1,1,1,640
3752,7,1,182,3,0,0,1,1036
3753,7,1,183,5,0,0,1,442
3754,7,1,184,10,0,0,1,519
3755,7,1,185,10,1,1,1,710
3756,7,1,186,10,1,1,1,592
3757,7,1,187,5,1,1,1,888
3758,7,1,188,32,1,1,1,419
3759,7,1,189,1,0,0,1,811
3760,7,1,190,3,0,0,1,1303
3761,7,1,191,5,0,0,1,562
3762,7,1,192,10,1,1,1,651
3763,7,1,193,32,0,0,1,975
3764,7,1,194,5,0,0,1,692
3765,7,1,195,3,0,0,1,537
3766,7,1,196,20,1,1,1,758
3767,7,1,197,5,0,0,1,748
3768,7,1,198,20,1,1,1,831
3769,7,1,199,1,0,0,1,370
3770,7,1,200,10,0,0,1,485
3771,7,1,201,1,0,0,1,496
3772,7,1,202,20,0,0,1,498
3773,7,1,203,32,0,0,1,465
3774,7,1,204,1,0,0,1,476
3775,7,1,205,20,1,1,1,574
3776,7,1,206,32,1,1,1,726
3777,7,1,207,20,0,0,1,518
3778,7,1,208,10,0,0,1,619
3779,7,1,209,32,0,0,1,672
3780,7,1,210,3,1,1,1,546
3781,7,1,211,32,1,1,1,720
3782,7,1,212,1,0,0,1,676
3783,7,1,213,5,0,0,1,612
3784,7,1,214,5,1,1,1,545
3785,7,1,215,1,0,0,1,390
3786,7,1,216,3,1,1,1,469
3787,7,1,217,5,0,0,1,774
3788,7,1,218,1,0,0,1,500
3789,7,1,219,10,1,1,1,643
3790,7,1,220,1,1,1,1,603
3791,7,1,221,20,0,0,1,846
3792,7,1,222,32,1,1,1,624
3793,7,1,223,10,1,1,1,693
3794,7,1,224,5,1,1,1,732
3795,7,1,225,5,1,1,1,591
3796,7,1,226,20,0,0,1,646
3797,7,1,227,5,1,1,1,545
3798,7,1,228,32,1,1,1,610
3799,7,1,229,10,0,0,1,695
3800,7,1,230,10,0,0,1,726
3801,7,1,231,5,0,0,1,458
3802,7,1,232,5,1,1,1,494
3803,7,1,233,3,1,1,1,396
3804,7,1,234,10,1,1,1,533
3805,7,1,235,5,1,1,1,533
3806,7,1,236,32,1,1,1,564
3807,7,1,237,10,0,0,1,885
3808,7,1,238,20,0,0,1,469
3809,7,1,239,3,1,1,1,647
3810,7,1,240,32,0,0,1,564
3811,7,1,241,5,0,0,1,635
3812,7,1,242,32,0,0,1,713
3813,7,1,243,32,0,0,1,514
3814,7,1,244,32,0,0,1,562
3815,7,1,245,32,0,0,1,523
3816,7,1,246,10,0,0,1,525
3817,7,1,247,20,0,0,1,507
3818,7,1,248,5,1,1,0,489
3819,7,1,249,5,0,0,1,541
3820,7,1,250,1,0,0,1,395
3821,7,1,251,32,0,0,1,601
3822,7,1,252,3,0,0,1,482
3823,7,1,253,3,0,0,1,596
3824,7,1,254,10,1,1,1,1010
3825,7,1,255,3,0,0,1,566
3826,7,1,256,5,1,1,1,572
3827,7,1,257,32,0,0,1,574
3828,7,1,258,10,1,1,1,705
3829,7,1,259,5,1,1,1,1484
3830,7,1,260,3,1,1,1,615
3831,7,1,261,5,0,0,1,875
3832,7,1,262,1,0,0,1,416
3833,7,1,263,5,1,1,1,642
3834,7,1,264,20,1,1,1,499
3835,7,1,265,10,1,1,1,552
3836,7,1,266,10,1,1,1,422
3837,7,1,267,5,1,1,1,697
3838,7,1,268,5,1,1,1,599
3839,7,1,269,3,0,0,1,526
3840,7,1,270,20,0,0,1,584
3841,7,1,271,5,0,0,1,560
3842,7,1,272,32,1,1,1,578
3843,7,1,273,5,0,0,1,540
3844,7,1,274,1,1,1,1,429
3845,7,1,275,3,1,1,0,463
3846,7,1,276,1,1,1,1,532
3847,7,1,277,32,0,0,1,705
3848,7,1,278,32,1,1,1,675
3849,7,1,279,1,1,1,1,453
3850,7,1,280,1,1,1,1,451
3851,7,1,281,1,1,1,1,449
3852,7,1,282,32,0,0,1,521
3853,7,1,283,1,0,0,1,345
3854,7,1,284,10,0,0,1,552
3855,7,1,285,3,0,0,1,940
3856,7,1,286,5,0,0,1,596
3857,7,1,287,3,0,0,1,673
3858,7,1,288,5,1,1,1,653
3859,7,1,289,3,1,1,1,522
3860,7,1,290,20,1,1,1,648
3861,7,1,291,32,1,1,1,488
3862,7,1,292,3,1,1,1,651
3863,7,1,293,32,1,1,1,787
3864,7,1,294,32,0,0,1,628
3865,7,1,295,1,1,1,1,376
3866,7,1,296,20,0,0,1,447
3867,7,1,297,1,1,1,1,424
3868,7,1,298,3,0,0,1,910
3869,7,1,299,1,1,1,1,443
3870,7,1,300,5,1,1,1,425
3871,7,1,301,1,0,0,1,513
3872,7,1,302,10,0,0,1,792
3873,7,1,303,3,1,1,1,880
3874,7,1,304,1,1,1,1,359
3875,7,1,305,20,0,0,1,532
3876,7,1,306,10,0,0,1,670
3877,7,1,307,32,1,1,1,570
3878,7,1,308,20,1,1,1,620
3879,7,1,309,20,1,1,1,665
3880,7,1,310,32,0,0,1,610
3881,7,1,311,32,0,0,1,702
3882,7,1,312,10,1,1,1,563
3883,7,1,313,20,0,0,1,526
3884,7,1,314,3,0,0,1,392
3885,7,1,315,3,0,0,1,693
3886,7,1,316,5,0,0,1,585
3887,7,1,317,10,0,0,1,461
3888,7,1,318,5,0,0,1,1013
3889,7,1,319,10,1,1,1,814
3890,7,1,320,32,1,1,1,659
3891,7,1,321,5,1,1,1,431
3892,7,1,322,5,0,0,1,771
3893,7,1,323,1,1,1,1,552
3894,7,1,324,5,1,1,1,524
3895,7,1,325,10,0,0,1,471
3896,7,1,326,1,0,0,1,467
3897,7,1,327,3,1,1,1,476
3898,7,1,328,20,1,1,1,554
3899,7,1,329,32,0,0,1,469
3900,7,1,330,32,0,0,1,545
3901,7,1,331,3,1,1,1,540
3902,7,1,332,3,1,1,1,468
3903,7,1,333,10,1,1,1,503
3904,7,1,334,1,0,0,1,451
3905,7,1,335,32,1,1,0,500
3906,7,1,336,32,0,0,1,560
3907,7,1,337,1,1,1,1,399
3908,7,1,338,1,1,1,1,371
3909,7,1,339,1,0,0,1,491
3910,7,1,340,1,1,1,1,425
3911,7,1,341,3,1,1,1,940
3912,7,1,342,5,1,1,1,767
3913,7,1,343,1,0,0,1,439
3914,7,1,344,3,1,1,1,675
3915,7,1,345,32,1,1,1,447
3916,7,1,346,20,1,1,1,440
3917,7,1,347,5,1,1,1,384
3918,7,1,348,32,1,1,1,569
3919,7,1,349,20,0,0,1,496
3920,7,1,350,32,1,1,1,537
3921,7,1,351,20,1,1,1,523
3922,7,1,352,3,0,0,1,725
3923,7,1,353,32,0,0,1,644
3924,7,1,354,1,0,0,1,343
3925,7,1,355,1,1,1,1,390
3926,7,1,356,32,0,0,1,499
3927,7,1,357,10,1,1,1,655
3928,7,1,358,32,1,1,1,547
3929,7,1,359,10,1,1,1,744
3930,7,1,360,5,1,1,1,359
3931,7,1,361,32,1,1,1,437
3932,7,1,362,10,1,1,1,754
3933,7,1,363,20,0,0,1,515
3934,7,1,364,1,1,1,1,470
3935,7,1,365,10,0,0,1,530
3936,7,1,366,5,1,1,1,420
3937,7,1,367,5,1,1,1,407
3938,7,1,368,32,1,1,1,410
3939,7,1,369,5,0,0,1,668
3940,7,1,370,20,0,0,1,512
3941,7,1,371,1,1,1,1,432
3942,7,1,372,10,0,0,1,512
3943,7,1,373,5,1,1,1,409
3944,7,1,374,5,1,1,1,525
3945,7,1,375,20,1,1,1,511
3946,7,1,376,5,1,1,1,499
3947,7,1,377,20,0,0,1,653
3948,7,1,378,1,0,0,1,419
3949,7,1,379,10,0,0,1,430
3950,7,1,380,20,1,1,1,618
3951,7,1,381,32,1,1,1,533
3952,7,1,382,20,1,1,1,445
3953,7,1,383,3,0,0,1,526
3954,7,1,384,20,1,1,1,514
3955,7,1,385,20,0,0,1,468
3956,7,1,386,10,0,0,1,495
3957,7,1,387,10,0,0,1,475
3958,7,1,388,3,1,1,1,588
3959,7,1,389,10,1,1,1,467
3960,7,1,390,5,0,0,1,572
3961,7,1,391,32,1,1,1,771
3962,7,1,392,10,0,0,0,451
3963,7,1,393,3,1,1,1,493
3964,7,1,394,1,1,1,1,415
3965,7,1,395,3,1,1,1,811
3966,7,1,396,3,1,1,1,701
3967,7,1,397,3,0,0,1,735
3968,7,1,398,5,0,0,1,908
3969,7,1,399,1,0,0,1,540
3970,7,1,400,3,0,0,1,614
3971,7,1,401,10,0,0,1,444
3972,7,1,402,20,0,0,1,555
3973,7,1,403,3,1,1,1,810
3974,7,1,404,10,0,0,1,603
3975,7,1,405,1,0,0,1,615
3976,7,1,406,20,0,0,1,641
3977,7,1,407,1,1,1,1,459
3978,7,1,408,10,1,1,1,535
3979,7,1,409,3,1,1,1,639
3980,7,1,410,3,1,1,1,473
3981,7,1,411,32,1,1,1,693
