Subject,Condition,trial_n,block_n,setsize,Targ_Pres,Error,correct,message,rt
1,2_vs_5,1,1,3,1,0,1,HIT,639
1,2_vs_5,2,1,12,0,0,1,TNEG,5955
1,2_vs_5,3,1,6,1,0,1,HIT,598
1,2_vs_5,4,1,12,0,0,1,TNEG,1595
1,2_vs_5,5,1,6,1,0,1,HIT,407
1,2_vs_5,6,1,6,1,0,1,HIT,1014
1,2_vs_5,7,1,3,0,0,1,TNEG,881
1,2_vs_5,8,1,6,0,0,1,TNEG,1351
1,2_vs_5,9,1,6,1,0,1,HIT,1055
1,2_vs_5,10,1,12,1,0,1,HIT,955
1,2_vs_5,11,1,3,1,0,1,HIT,417
1,2_vs_5,12,1,12,0,0,1,TNEG,1643
1,2_vs_5,13,1,6,1,0,1,HIT,903
1,2_vs_5,14,1,12,0,0,1,TNEG,2274
1,2_vs_5,15,1,18,1,0,1,HIT,814
1,2_vs_5,16,1,12,0,0,1,TNEG,2146
1,2_vs_5,17,1,6,0,0,1,TNEG,1102
1,2_vs_5,18,1,3,0,0,1,TNEG,752
1,2_vs_5,19,1,6,0,0,1,TNEG,950
1,2_vs_5,20,1,3,0,0,1,TNEG,672
1,2_vs_5,21,1,18,0,0,1,TNEG,1997
1,2_vs_5,22,1,6,0,0,1,TNEG,1318
1,2_vs_5,23,1,6,0,0,1,TNEG,1182
1,2_vs_5,24,1,12,0,0,1,TNEG,2369
1,2_vs_5,25,1,12,0,0,1,TNEG,1689
1,2_vs_5,26,1,3,0,0,1,TNEG,576
1,2_vs_5,27,1,6,1,0,1,HIT,662
1,2_vs_5,28,1,6,1,0,1,HIT,454
1,2_vs_5,29,1,12,1,0,1,HIT,1409
1,2_vs_5,30,1,18,0,0,1,TNEG,1956
1,2_vs_5,31,1,6,0,0,1,TNEG,1277
1,2_vs_5,32,1,18,1,0,1,HIT,1948
1,2_vs_5,33,1,3,0,0,1,TNEG,904
1,2_vs_5,34,1,6,0,0,1,TNEG,893
1,2_vs_5,35,1,6,0,0,1,TNEG,1078
1,2_vs_5,36,1,3,0,0,1,TNEG,1208
1,2_vs_5,37,1,3,0,0,1,TNEG,487
1,2_vs_5,38,1,3,1,0,1,HIT,480
1,2_vs_5,39,1,12,0,0,1,TNEG,2080
1,2_vs_5,40,1,6,0,0,1,TNEG,1549
1,2_vs_5,41,1,6,0,0,1,TNEG,1309
1,2_vs_5,42,1,6,1,0,1,HIT,492
1,2_vs_5,43,1,3,1,0,1,HIT,486
1,2_vs_5,44,1,3,0,0,1,TNEG,639
1,2_vs_5,45,1,18,0,0,1,TNEG,3282
1,2_vs_5,46,1,3,0,0,1,TNEG,872
1,2_vs_5,47,1,18,0,0,1,TNEG,2218
1,2_vs_5,48,1,3,1,0,1,HIT,447
1,2_vs_5,49,1,18,1,0,1,HIT,1962
1,2_vs_5,50,1,3,1,0,1,HIT,519
1,2_vs_5,51,1,12,1,0,1,HIT,936
1,2_vs_5,52,1,12,1,0,1,HIT,511
1,2_vs_5,53,1,6,1,0,1,HIT,421
1,2_vs_5,54,1,6,1,0,1,HIT,612
1,2_vs_5,55,1,18,1,0,1,HIT,1450
1,2_vs_5,56,1,12,1,0,1,HIT,1183
1,2_vs_5,57,1,6,1,0,1,HIT,453
1,2_vs_5,58,1,12,1,0,1,HIT,471
1,2_vs_5,59,1,3,1,0,1,HIT,479
1,2_vs_5,60,1,12,0,0,1,TNEG,2095
1,2_vs_5,61,1,3,1,0,1,HIT,422
1,2_vs_5,62,1,12,1,0,1,HIT,1736
1,2_vs_5,63,1,3,1,0,1,HIT,431
1,2_vs_5,64,1,3,0,0,1,TNEG,791
1,2_vs_5,65,1,3,1,0,1,HIT,528
1,2_vs_5,66,1,12,1,0,1,HIT,568
1,2_vs_5,67,1,6,0,0,1,TNEG,973
1,2_vs_5,68,1,12,1,0,1,HIT,920
1,2_vs_5,69,1,6,0,0,1,TNEG,1301
1,2_vs_5,70,1,6,0,0,1,TNEG,1004
1,2_vs_5,71,1,3,1,0,1,HIT,695
1,2_vs_5,72,1,18,0,0,1,TNEG,4051
1,2_vs_5,73,1,18,0,0,1,TNEG,2858
1,2_vs_5,74,1,6,1,0,1,HIT,685
1,2_vs_5,75,1,6,0,0,1,TNEG,1309
1,2_vs_5,76,1,18,0,0,1,TNEG,2106
1,2_vs_5,77,1,3,1,0,1,HIT,775
1,2_vs_5,78,1,6,0,0,1,TNEG,956
1,2_vs_5,79,1,6,1,0,1,HIT,724
1,2_vs_5,80,1,12,0,0,1,TNEG,2223
1,2_vs_5,81,1,3,0,0,1,TNEG,616
1,2_vs_5,82,1,3,0,0,1,TNEG,823
1,2_vs_5,83,1,3,0,0,1,TNEG,623
1,2_vs_5,84,1,12,1,0,1,HIT,1343
1,2_vs_5,85,1,3,0,0,1,TNEG,616
1,2_vs_5,86,1,3,0,0,1,TNEG,591
1,2_vs_5,87,1,6,1,0,1,HIT,468
1,2_vs_5,88,1,12,1,0,1,HIT,1312
1,2_vs_5,89,1,18,0,0,1,TNEG,1778
1,2_vs_5,90,1,12,1,0,1,HIT,1255
1,2_vs_5,91,1,6,0,0,1,TNEG,933
1,2_vs_5,92,1,3,0,0,1,TNEG,591
1,2_vs_5,93,1,3,1,0,1,HIT,648
1,2_vs_5,94,1,18,0,0,1,TNEG,2922
1,2_vs_5,95,1,3,1,0,1,HIT,471
1,2_vs_5,96,1,6,0,0,1,TNEG,1685
1,2_vs_5,97,1,6,1,0,1,HIT,788
1,2_vs_5,98,1,12,1,0,1,HIT,2527
1,2_vs_5,99,1,18,0,0,1,TNEG,3170
1,2_vs_5,100,1,18,1,0,1,HIT,1162
1,2_vs_5,101,1,3,0,0,1,TNEG,648
1,2_vs_5,102,1,3,0,0,1,TNEG,583
1,2_vs_5,103,1,12,1,0,1,HIT,863
1,2_vs_5,104,1,3,1,0,1,HIT,447
1,2_vs_5,105,1,6,0,0,1,TNEG,997
1,2_vs_5,106,1,6,0,0,1,TNEG,1573
1,2_vs_5,107,1,18,1,0,1,HIT,1795
1,2_vs_5,108,1,3,1,0,1,HIT,455
1,2_vs_5,109,1,6,1,0,1,HIT,661
1,2_vs_5,110,1,6,0,0,1,TNEG,1044
1,2_vs_5,111,1,18,1,0,1,HIT,1298
1,2_vs_5,112,1,6,1,0,1,HIT,981
1,2_vs_5,113,1,3,0,0,1,TNEG,919
1,2_vs_5,114,1,3,0,0,1,TNEG,680
1,2_vs_5,115,1,3,1,0,1,HIT,567
1,2_vs_5,116,1,6,1,0,1,HIT,477
1,2_vs_5,117,1,6,1,0,1,HIT,860
1,2_vs_5,118,1,6,0,0,1,TNEG,1197
1,2_vs_5,119,1,6,1,0,1,HIT,693
1,2_vs_5,120,1,3,1,0,1,HIT,432
1,2_vs_5,121,1,18,0,0,1,TNEG,2474
1,2_vs_5,122,1,18,1,0,1,HIT,634
1,2_vs_5,123,1,6,1,0,1,HIT,445
1,2_vs_5,124,1,3,1,0,1,HIT,456
1,2_vs_5,125,1,3,0,0,1,TNEG,575
1,2_vs_5,126,1,18,1,0,1,HIT,2170
1,2_vs_5,127,1,12,0,0,1,TNEG,1896
1,2_vs_5,128,1,12,0,0,1,TNEG,1663
1,2_vs_5,129,1,6,1,0,1,HIT,693
1,2_vs_5,130,1,3,1,1,0,MISS,679
1,2_vs_5,131,1,12,1,0,1,HIT,807
1,2_vs_5,132,1,12,1,0,1,HIT,1711
1,2_vs_5,133,1,6,0,0,1,TNEG,1053
1,2_vs_5,134,1,6,1,0,1,HIT,661
1,2_vs_5,135,1,3,0,0,1,TNEG,783
1,2_vs_5,136,1,3,0,0,1,TNEG,983
1,2_vs_5,137,1,6,1,0,1,HIT,749
1,2_vs_5,138,1,18,1,1,0,MISS,2434
1,2_vs_5,139,1,6,1,0,1,HIT,533
1,2_vs_5,140,1,18,0,0,1,TNEG,3258
1,2_vs_5,141,1,6,0,0,1,TNEG,1268
1,2_vs_5,142,1,3,0,0,1,TNEG,806
1,2_vs_5,143,1,12,0,0,1,TNEG,1472
1,2_vs_5,144,1,12,0,0,1,TNEG,2031
1,2_vs_5,145,1,6,0,0,1,TNEG,1516
1,2_vs_5,146,1,6,1,0,1,HIT,869
1,2_vs_5,147,1,18,1,0,1,HIT,650
1,2_vs_5,148,1,3,0,0,1,TNEG,879
1,2_vs_5,149,1,12,0,0,1,TNEG,1440
1,2_vs_5,150,1,18,1,1,0,MISS,3258
1,2_vs_5,151,1,6,1,0,1,HIT,1653
1,2_vs_5,152,1,12,1,0,1,HIT,1904
1,2_vs_5,153,1,12,1,0,1,HIT,2072
1,2_vs_5,154,1,18,1,0,1,HIT,3010
1,2_vs_5,155,1,18,0,0,1,TNEG,3514
1,2_vs_5,156,1,12,0,0,1,TNEG,2127
1,2_vs_5,157,1,18,0,0,1,TNEG,2674
1,2_vs_5,158,1,12,0,0,1,TNEG,2495
1,2_vs_5,159,1,6,0,0,1,TNEG,1332
1,2_vs_5,160,1,3,0,0,1,TNEG,719
1,2_vs_5,161,1,18,0,0,1,TNEG,2850
1,2_vs_5,162,1,6,1,0,1,HIT,780
1,2_vs_5,163,1,3,1,0,1,HIT,648
1,2_vs_5,164,1,12,0,0,1,TNEG,2128
1,2_vs_5,165,1,6,1,0,1,HIT,1060
1,2_vs_5,166,1,6,0,0,1,TNEG,1829
1,2_vs_5,167,1,3,1,0,1,HIT,535
1,2_vs_5,168,1,18,1,0,1,HIT,874
1,2_vs_5,169,1,3,1,0,1,HIT,543
1,2_vs_5,170,1,12,1,0,1,HIT,2023
1,2_vs_5,171,1,3,0,0,1,TNEG,712
1,2_vs_5,172,1,12,1,0,1,HIT,1343
1,2_vs_5,173,1,12,0,0,1,TNEG,1575
1,2_vs_5,174,1,3,0,0,1,TNEG,727
1,2_vs_5,175,1,6,0,0,1,TNEG,1189
1,2_vs_5,176,1,3,0,0,1,TNEG,743
1,2_vs_5,177,1,6,1,0,1,HIT,853
1,2_vs_5,178,1,6,0,0,1,TNEG,1645
1,2_vs_5,179,1,6,1,0,1,HIT,1332
1,2_vs_5,180,1,18,1,0,1,HIT,1946
1,2_vs_5,181,1,12,0,0,1,TNEG,3303
1,2_vs_5,182,1,6,0,0,1,TNEG,1509
1,2_vs_5,183,1,6,0,0,1,TNEG,1420
1,2_vs_5,184,1,12,0,0,1,TNEG,1975
1,2_vs_5,185,1,6,1,0,1,HIT,596
1,2_vs_5,186,1,18,1,0,1,HIT,570
1,2_vs_5,187,1,18,0,0,1,TNEG,3098
1,2_vs_5,188,1,3,0,0,1,TNEG,735
1,2_vs_5,189,1,6,1,0,1,HIT,653
1,2_vs_5,190,1,3,1,0,1,HIT,447
1,2_vs_5,192,1,6,1,0,1,HIT,1236
1,2_vs_5,193,1,3,1,0,1,HIT,839
1,2_vs_5,194,1,6,1,0,1,HIT,1044
1,2_vs_5,195,1,12,0,0,1,TNEG,1720
1,2_vs_5,196,1,18,0,0,1,TNEG,3259
1,2_vs_5,197,1,6,0,0,1,TNEG,1556
1,2_vs_5,198,1,6,1,0,1,HIT,637
1,2_vs_5,199,1,6,0,0,1,TNEG,1244
1,2_vs_5,200,1,3,0,0,1,TNEG,887
1,2_vs_5,201,1,6,0,0,1,TNEG,1165
1,2_vs_5,202,1,6,1,0,1,HIT,532
1,2_vs_5,203,1,12,0,0,1,TNEG,2024
1,2_vs_5,204,1,12,0,0,1,TNEG,1928
1,2_vs_5,205,1,12,0,0,1,TNEG,2176
1,2_vs_5,206,1,3,0,0,1,TNEG,551
1,2_vs_5,207,1,12,0,0,1,TNEG,1351
1,2_vs_5,208,1,12,1,0,1,HIT,751
1,2_vs_5,209,1,3,0,0,1,TNEG,567
1,2_vs_5,210,1,18,1,0,1,HIT,898
1,2_vs_5,211,1,3,0,0,1,TNEG,615
1,2_vs_5,212,1,3,0,0,1,TNEG,559
1,2_vs_5,213,1,3,0,0,1,TNEG,968
1,2_vs_5,214,1,3,0,0,1,TNEG,719
1,2_vs_5,215,1,6,0,0,1,TNEG,1301
1,2_vs_5,216,1,12,1,0,1,HIT,1399
1,2_vs_5,217,1,3,1,0,1,HIT,616
1,2_vs_5,218,1,18,1,0,1,HIT,1123
1,2_vs_5,219,1,3,0,1,0,FA,783
1,2_vs_5,220,1,18,0,0,1,TNEG,3026
1,2_vs_5,221,1,18,1,0,1,HIT,666
1,2_vs_5,222,1,3,0,0,1,TNEG,567
1,2_vs_5,223,1,12,1,0,1,HIT,2183
1,2_vs_5,224,1,3,1,0,1,HIT,607
1,2_vs_5,225,1,3,0,0,1,TNEG,736
1,2_vs_5,226,1,3,1,0,1,HIT,1279
1,2_vs_5,227,1,6,1,0,1,HIT,1189
1,2_vs_5,228,1,18,0,0,1,TNEG,6618
1,2_vs_5,229,1,6,1,0,1,HIT,1204
1,2_vs_5,230,1,18,1,0,1,HIT,2123
1,2_vs_5,231,1,6,1,0,1,HIT,1045
1,2_vs_5,232,1,6,1,0,1,HIT,717
1,2_vs_5,233,1,18,0,0,1,TNEG,3034
1,2_vs_5,234,1,6,1,0,1,HIT,1125
1,2_vs_5,235,1,3,1,0,1,HIT,607
1,2_vs_5,236,1,3,1,0,1,HIT,871
1,2_vs_5,237,1,18,1,0,1,HIT,962
1,2_vs_5,238,1,18,1,0,1,HIT,2274
1,2_vs_5,239,1,3,1,0,1,HIT,991
1,2_vs_5,240,1,18,0,0,1,TNEG,3034
1,2_vs_5,241,1,18,1,0,1,HIT,674
1,2_vs_5,242,1,6,0,0,1,TNEG,1501
1,2_vs_5,243,1,18,0,0,1,TNEG,4578
1,2_vs_5,244,1,3,0,0,1,TNEG,799
1,2_vs_5,245,1,6,0,0,1,TNEG,1213
1,2_vs_5,246,1,12,1,0,1,HIT,1583
1,2_vs_5,247,1,6,0,0,1,TNEG,1301
1,2_vs_5,248,1,18,0,0,1,TNEG,2378
1,2_vs_5,249,1,3,1,0,1,HIT,687
1,2_vs_5,250,1,12,1,0,1,HIT,2439
1,2_vs_5,251,1,3,1,0,1,HIT,1079
1,2_vs_5,252,1,6,1,0,1,HIT,796
1,2_vs_5,253,1,6,0,0,1,TNEG,828
1,2_vs_5,254,1,3,0,1,0,FA,503
1,2_vs_5,255,1,12,1,0,1,HIT,1447
1,2_vs_5,256,1,3,1,0,1,HIT,455
1,2_vs_5,257,1,6,0,0,1,TNEG,1533
1,2_vs_5,258,1,12,1,0,1,HIT,1239
1,2_vs_5,259,1,18,0,0,1,TNEG,2490
1,2_vs_5,260,1,12,0,0,1,TNEG,1447
1,2_vs_5,261,1,12,1,0,1,HIT,1192
1,2_vs_5,262,1,3,0,0,1,TNEG,744
1,2_vs_5,263,1,3,1,0,1,HIT,439
1,2_vs_5,264,1,3,0,0,1,TNEG,487
1,2_vs_5,265,1,6,0,0,1,TNEG,1004
1,2_vs_5,266,1,18,1,0,1,HIT,1890
1,2_vs_5,267,1,6,1,0,1,HIT,676
1,2_vs_5,268,1,18,0,0,1,TNEG,2346
1,2_vs_5,269,1,12,1,0,1,HIT,888
1,2_vs_5,270,1,3,0,0,1,TNEG,1167
1,2_vs_5,271,1,3,1,0,1,HIT,687
1,2_vs_5,272,1,18,1,1,0,MISS,2162
1,2_vs_5,273,1,12,1,0,1,HIT,864
1,2_vs_5,274,1,18,0,0,1,TNEG,2162
1,2_vs_5,275,1,18,1,0,1,HIT,1465
1,2_vs_5,276,1,12,1,0,1,HIT,462
1,2_vs_5,277,1,6,0,0,1,TNEG,868
1,2_vs_5,278,1,12,0,0,1,TNEG,2264
1,2_vs_5,279,1,3,0,0,1,TNEG,599
1,2_vs_5,280,1,3,1,0,1,HIT,407
1,2_vs_5,281,1,18,0,0,1,TNEG,2282
1,2_vs_5,282,1,3,0,0,1,TNEG,488
1,2_vs_5,283,1,6,1,0,1,HIT,1076
1,2_vs_5,284,1,3,0,0,1,TNEG,479
1,2_vs_5,285,1,18,0,0,1,TNEG,2458
1,2_vs_5,286,1,18,0,0,1,TNEG,2001
1,2_vs_5,287,1,6,1,0,1,HIT,436
1,2_vs_5,288,1,6,1,0,1,HIT,597
1,2_vs_5,289,1,3,1,0,1,HIT,663
1,2_vs_5,290,1,12,0,0,1,TNEG,1959
1,2_vs_5,291,1,6,0,0,1,TNEG,1325
1,2_vs_5,292,1,3,0,0,1,TNEG,639
1,2_vs_5,293,1,6,0,0,1,TNEG,1421
1,2_vs_5,294,1,3,0,0,1,TNEG,871
1,2_vs_5,295,1,12,1,0,1,HIT,511
1,2_vs_5,296,1,12,0,0,1,TNEG,2375
1,2_vs_5,297,1,12,1,0,1,HIT,1351
1,2_vs_5,298,1,18,0,0,1,TNEG,1850
1,2_vs_5,299,1,6,0,0,1,TNEG,1421
1,2_vs_5,300,1,6,1,0,1,HIT,1164
1,2_vs_5,1,2,6,1,0,1,HIT,1109
1,2_vs_5,2,2,18,1,0,1,HIT,678
1,2_vs_5,3,2,6,1,0,1,HIT,1607
1,2_vs_5,4,2,3,0,0,1,TNEG,809
1,2_vs_5,5,2,6,1,0,1,HIT,671
1,2_vs_5,6,2,6,0,0,1,TNEG,1262
1,2_vs_5,7,2,3,0,0,1,TNEG,793
1,2_vs_5,8,2,18,1,0,1,HIT,2214
1,2_vs_5,9,2,3,1,0,1,HIT,737
1,2_vs_5,10,2,3,1,0,1,HIT,496
1,2_vs_5,11,2,6,1,0,1,HIT,1183
1,2_vs_5,12,2,6,0,0,1,TNEG,1239
1,2_vs_5,13,2,12,1,0,1,HIT,1786
1,2_vs_5,14,2,3,1,0,1,HIT,457
1,2_vs_5,15,2,18,1,0,1,HIT,1494
1,2_vs_5,16,2,18,0,0,1,TNEG,2558
1,2_vs_5,17,2,12,1,0,1,HIT,994
1,2_vs_5,18,2,6,0,0,1,TNEG,1262
1,2_vs_5,19,2,18,1,0,1,HIT,549
1,2_vs_5,20,2,6,0,0,1,TNEG,822
1,2_vs_5,21,2,3,1,0,1,HIT,408
1,2_vs_5,22,2,6,1,0,1,HIT,934
1,2_vs_5,23,2,3,0,0,1,TNEG,744
1,2_vs_5,24,2,12,1,0,1,HIT,705
1,2_vs_5,25,2,6,1,0,1,HIT,1142
1,2_vs_5,26,2,18,1,0,1,HIT,749
1,2_vs_5,27,2,18,0,0,1,TNEG,3661
1,2_vs_5,28,2,12,0,0,1,TNEG,1585
1,2_vs_5,29,2,3,1,0,1,HIT,640
1,2_vs_5,30,2,18,1,0,1,HIT,1076
1,2_vs_5,31,2,12,1,0,1,HIT,473
1,2_vs_5,32,2,18,1,1,0,MISS,2004
1,2_vs_5,33,2,3,0,0,1,TNEG,591
1,2_vs_5,34,2,3,0,0,1,TNEG,616
1,2_vs_5,35,2,12,1,0,1,HIT,1016
1,2_vs_5,36,2,3,0,0,1,TNEG,544
1,2_vs_5,37,2,12,1,0,1,HIT,1166
1,2_vs_5,38,2,6,1,0,1,HIT,517
1,2_vs_5,39,2,12,1,0,1,HIT,489
1,2_vs_5,40,2,12,0,0,1,TNEG,2201
1,2_vs_5,41,2,6,0,0,1,TNEG,1013
1,2_vs_5,42,2,12,0,0,1,TNEG,1856
1,2_vs_5,43,2,12,0,0,1,TNEG,1383
1,2_vs_5,44,2,3,1,0,1,HIT,671
1,2_vs_5,45,2,3,0,0,1,TNEG,751
1,2_vs_5,46,2,12,1,0,1,HIT,767
1,2_vs_5,47,2,6,0,0,1,TNEG,1413
1,2_vs_5,48,2,18,1,0,1,HIT,554
1,2_vs_5,49,2,6,0,0,1,TNEG,1077
1,2_vs_5,50,2,18,0,0,1,TNEG,2051
1,2_vs_5,51,2,12,1,0,1,HIT,1367
1,2_vs_5,52,2,6,1,0,1,HIT,956
1,2_vs_5,53,2,3,1,0,1,HIT,479
1,2_vs_5,54,2,18,0,0,1,TNEG,2651
1,2_vs_5,55,2,6,1,0,1,HIT,461
1,2_vs_5,56,2,6,1,0,1,HIT,557
1,2_vs_5,57,2,3,0,0,1,TNEG,647
1,2_vs_5,58,2,12,0,0,1,TNEG,1903
1,2_vs_5,59,2,12,0,0,1,TNEG,2176
1,2_vs_5,60,2,6,0,0,1,TNEG,1796
1,2_vs_5,61,2,3,1,0,1,HIT,519
1,2_vs_5,62,2,6,0,0,1,TNEG,1821
1,2_vs_5,63,2,6,1,0,1,HIT,517
1,2_vs_5,64,2,6,0,0,1,TNEG,1605
1,2_vs_5,65,2,18,0,0,1,TNEG,1594
1,2_vs_5,66,2,12,0,0,1,TNEG,2368
1,2_vs_5,67,2,3,1,0,1,HIT,839
1,2_vs_5,68,2,6,0,0,1,TNEG,1108
1,2_vs_5,69,2,18,0,0,1,TNEG,4978
1,2_vs_5,70,2,3,1,0,1,HIT,559
1,2_vs_5,71,2,12,0,0,1,TNEG,1736
1,2_vs_5,72,2,6,1,0,1,HIT,845
1,2_vs_5,73,2,12,0,0,1,TNEG,2776
1,2_vs_5,74,2,6,1,0,1,HIT,493
1,2_vs_5,75,2,3,1,0,1,HIT,591
1,2_vs_5,76,2,12,1,0,1,HIT,960
1,2_vs_5,77,2,6,0,0,1,TNEG,1773
1,2_vs_5,78,2,3,1,0,1,HIT,511
1,2_vs_5,79,2,6,0,0,1,TNEG,1493
1,2_vs_5,80,2,12,1,0,1,HIT,1919
1,2_vs_5,81,2,18,1,0,1,HIT,1738
1,2_vs_5,82,2,6,1,0,1,HIT,612
1,2_vs_5,83,2,6,1,0,1,HIT,525
1,2_vs_5,84,2,6,1,0,1,HIT,781
1,2_vs_5,85,2,3,0,0,1,TNEG,759
1,2_vs_5,86,2,3,0,0,1,TNEG,504
1,2_vs_5,87,2,3,1,0,1,HIT,879
1,2_vs_5,88,2,18,1,0,1,HIT,1722
1,2_vs_5,89,2,6,0,0,1,TNEG,1333
1,2_vs_5,90,2,6,1,0,1,HIT,828
1,2_vs_5,91,2,18,1,0,1,HIT,1050
1,2_vs_5,92,2,12,0,0,1,TNEG,1375
1,2_vs_5,93,2,3,1,0,1,HIT,383
1,2_vs_5,94,2,18,1,0,1,HIT,2234
1,2_vs_5,95,2,3,0,0,1,TNEG,839
1,2_vs_5,96,2,3,0,0,1,TNEG,775
1,2_vs_5,97,2,3,0,0,1,TNEG,782
1,2_vs_5,98,2,6,1,0,1,HIT,468
1,2_vs_5,99,2,3,0,0,1,TNEG,551
1,2_vs_5,100,2,6,0,0,1,TNEG,948
1,2_vs_5,101,2,6,0,0,1,TNEG,1149
1,2_vs_5,102,2,3,0,0,1,TNEG,791
1,2_vs_5,103,2,3,1,0,1,HIT,456
1,2_vs_5,104,2,12,1,0,1,HIT,1967
1,2_vs_5,105,2,6,0,0,1,TNEG,1333
1,2_vs_5,106,2,3,0,0,1,TNEG,455
1,2_vs_5,107,2,3,1,0,1,HIT,407
1,2_vs_5,108,2,6,0,0,1,TNEG,1005
1,2_vs_5,109,2,6,0,0,1,TNEG,1011
1,2_vs_5,110,2,6,1,0,1,HIT,1205
1,2_vs_5,111,2,6,1,0,1,HIT,589
1,2_vs_5,112,2,18,1,0,1,HIT,1826
1,2_vs_5,113,2,6,0,0,1,TNEG,893
1,2_vs_5,114,2,12,0,0,1,TNEG,2039
1,2_vs_5,115,2,3,0,0,1,TNEG,800
1,2_vs_5,116,2,18,0,0,1,TNEG,1682
1,2_vs_5,117,2,6,1,0,1,HIT,1301
1,2_vs_5,118,2,6,0,0,1,TNEG,933
1,2_vs_5,119,2,3,1,0,1,HIT,488
1,2_vs_5,120,2,18,1,0,1,HIT,722
1,2_vs_5,121,2,18,1,0,1,HIT,698
1,2_vs_5,122,2,3,0,0,1,TNEG,631
1,2_vs_5,123,2,18,0,0,1,TNEG,3387
1,2_vs_5,124,2,18,1,0,1,HIT,913
1,2_vs_5,125,2,18,0,0,1,TNEG,1378
1,2_vs_5,126,2,3,0,0,1,TNEG,743
1,2_vs_5,127,2,6,1,0,1,HIT,844
1,2_vs_5,128,2,3,0,0,1,TNEG,583
1,2_vs_5,129,2,18,0,0,1,TNEG,2139
1,2_vs_5,130,2,6,0,0,1,TNEG,1093
1,2_vs_5,131,2,18,1,0,1,HIT,1618
1,2_vs_5,132,2,12,0,0,1,TNEG,2080
1,2_vs_5,133,2,3,1,0,1,HIT,687
1,2_vs_5,134,2,12,0,0,1,TNEG,2407
1,2_vs_5,135,2,3,0,0,1,TNEG,1215
1,2_vs_5,136,2,18,1,0,1,HIT,691
1,2_vs_5,137,2,12,1,0,1,HIT,1247
1,2_vs_5,138,2,6,1,0,1,HIT,749
1,2_vs_5,139,2,12,0,0,1,TNEG,1551
1,2_vs_5,140,2,18,1,0,1,HIT,882
1,2_vs_5,141,2,6,0,0,1,TNEG,1637
1,2_vs_5,142,2,18,1,0,1,HIT,754
1,2_vs_5,143,2,12,1,0,1,HIT,1080
1,2_vs_5,144,2,12,1,0,1,HIT,991
1,2_vs_5,145,2,18,0,0,1,TNEG,1978
1,2_vs_5,146,2,3,0,0,1,TNEG,768
1,2_vs_5,147,2,18,0,0,1,TNEG,1714
1,2_vs_5,148,2,6,1,0,1,HIT,772
1,2_vs_5,149,2,3,0,0,1,TNEG,559
1,2_vs_5,150,2,18,0,0,1,TNEG,1539
1,2_vs_5,151,2,6,1,0,1,HIT,453
1,2_vs_5,152,2,18,1,1,0,MISS,1795
1,2_vs_5,153,2,6,1,0,1,HIT,596
1,2_vs_5,154,2,3,1,0,1,HIT,432
1,2_vs_5,155,2,6,1,0,1,HIT,597
1,2_vs_5,156,2,3,1,0,1,HIT,503
1,2_vs_5,157,2,3,1,0,1,HIT,375
1,2_vs_5,158,2,3,0,0,1,TNEG,1015
1,2_vs_5,159,2,12,1,0,1,HIT,407
1,2_vs_5,160,2,12,1,0,1,HIT,624
1,2_vs_5,161,2,18,0,0,1,TNEG,2770
1,2_vs_5,162,2,3,1,0,1,HIT,431
1,2_vs_5,163,2,12,0,0,1,TNEG,1456
1,2_vs_5,164,2,18,1,0,1,HIT,1274
1,2_vs_5,165,2,3,1,0,1,HIT,615
1,2_vs_5,166,2,3,1,0,1,HIT,471
1,2_vs_5,167,2,18,0,0,1,TNEG,1922
1,2_vs_5,168,2,18,1,0,1,HIT,675
1,2_vs_5,169,2,3,1,0,1,HIT,368
1,2_vs_5,170,2,6,0,0,1,TNEG,957
1,2_vs_5,171,2,3,0,0,1,TNEG,591
1,2_vs_5,172,2,18,1,0,1,HIT,625
1,2_vs_5,173,2,12,1,0,1,HIT,1663
1,2_vs_5,174,2,3,0,0,1,TNEG,535
1,2_vs_5,175,2,6,1,0,1,HIT,460
1,2_vs_5,176,2,18,0,0,1,TNEG,1986
1,2_vs_5,177,2,3,1,0,1,HIT,447
1,2_vs_5,178,2,18,0,0,1,TNEG,2027
1,2_vs_5,179,2,3,0,0,1,TNEG,527
1,2_vs_5,180,2,6,1,0,1,HIT,837
1,2_vs_5,181,2,6,1,0,1,HIT,621
1,2_vs_5,182,2,18,0,0,1,TNEG,2154
1,2_vs_5,183,2,6,0,0,1,TNEG,1077
1,2_vs_5,184,2,6,0,0,1,TNEG,764
1,2_vs_5,185,2,6,0,0,1,TNEG,1036
1,2_vs_5,186,2,12,1,0,1,HIT,599
1,2_vs_5,187,2,12,0,0,1,TNEG,992
1,2_vs_5,188,2,12,1,0,1,HIT,455
1,2_vs_5,189,2,18,1,1,0,MISS,1986
1,2_vs_5,190,2,12,1,0,1,HIT,968
1,2_vs_5,191,2,6,0,0,1,TNEG,925
1,2_vs_5,192,2,3,1,0,1,HIT,399
1,2_vs_5,193,2,3,0,0,1,TNEG,527
1,2_vs_5,194,2,6,0,0,1,TNEG,1925
1,2_vs_5,195,2,12,0,0,1,TNEG,1143
1,2_vs_5,196,2,18,0,0,1,TNEG,1754
1,2_vs_5,197,2,12,0,0,1,TNEG,1863
1,2_vs_5,198,2,12,1,0,1,HIT,1399
1,2_vs_5,199,2,12,0,0,1,TNEG,1432
1,2_vs_5,200,2,6,1,0,1,HIT,972
1,2_vs_5,201,2,18,0,0,1,TNEG,1299
1,2_vs_5,202,2,3,0,0,1,TNEG,647
1,2_vs_5,203,2,3,1,0,1,HIT,528
1,2_vs_5,204,2,3,0,0,1,TNEG,520
1,2_vs_5,205,2,18,1,0,1,HIT,2714
1,2_vs_5,206,2,3,0,1,0,FA,766
1,2_vs_5,207,2,3,1,0,1,HIT,423
1,2_vs_5,208,2,12,0,0,1,TNEG,1071
1,2_vs_5,209,2,12,0,0,1,TNEG,935
1,2_vs_5,210,2,6,0,0,1,TNEG,1117
1,2_vs_5,211,2,18,1,0,1,HIT,994
1,2_vs_5,212,2,18,1,1,0,MISS,1290
1,2_vs_5,213,2,3,1,0,1,HIT,519
1,2_vs_5,214,2,6,0,0,1,TNEG,853
1,2_vs_5,215,2,6,1,0,1,HIT,477
1,2_vs_5,216,2,6,1,0,1,HIT,508
1,2_vs_5,217,2,18,1,0,1,HIT,498
1,2_vs_5,218,2,18,0,0,1,TNEG,2915
1,2_vs_5,219,2,12,0,1,0,FA,1279
1,2_vs_5,220,2,12,0,0,1,TNEG,1432
1,2_vs_5,221,2,3,1,0,1,HIT,447
1,2_vs_5,222,2,12,0,0,1,TNEG,1720
1,2_vs_5,223,2,6,0,0,1,TNEG,1221
1,2_vs_5,224,2,18,1,0,1,HIT,506
1,2_vs_5,225,2,6,1,0,1,HIT,828
1,2_vs_5,226,2,6,0,0,1,TNEG,821
1,2_vs_5,227,2,3,0,0,1,TNEG,560
1,2_vs_5,228,2,6,1,0,1,HIT,605
1,2_vs_5,229,2,6,1,0,1,HIT,1077
1,2_vs_5,230,2,6,0,0,1,TNEG,1141
1,2_vs_5,231,2,6,0,0,1,TNEG,861
1,2_vs_5,232,2,3,0,0,1,TNEG,703
1,2_vs_5,233,2,6,1,0,1,HIT,1812
1,2_vs_5,234,2,12,0,0,1,TNEG,2016
1,2_vs_5,235,2,6,1,0,1,HIT,629
1,2_vs_5,236,2,6,1,0,1,HIT,1101
1,2_vs_5,237,2,6,1,0,1,HIT,580
1,2_vs_5,238,2,3,1,0,1,HIT,455
1,2_vs_5,239,2,12,0,0,1,TNEG,1567
1,2_vs_5,240,2,3,1,0,1,HIT,407
1,2_vs_5,241,2,12,1,0,1,HIT,488
1,2_vs_5,242,2,18,1,0,1,HIT,1643
1,2_vs_5,243,2,3,1,0,1,HIT,567
1,2_vs_5,244,2,18,1,0,1,HIT,1322
1,2_vs_5,245,2,6,0,0,1,TNEG,1237
1,2_vs_5,246,2,18,0,0,1,TNEG,2443
1,2_vs_5,247,2,6,0,0,1,TNEG,1605
1,2_vs_5,248,2,12,0,0,1,TNEG,1912
1,2_vs_5,249,2,18,0,0,1,TNEG,1858
1,2_vs_5,250,2,12,0,0,1,TNEG,1391
1,2_vs_5,251,2,6,1,0,1,HIT,997
1,2_vs_5,252,2,18,1,0,1,HIT,922
1,2_vs_5,253,2,6,1,0,1,HIT,453
1,2_vs_5,254,2,18,0,0,1,TNEG,2410
1,2_vs_5,255,2,3,0,0,1,TNEG,551
1,2_vs_5,256,2,6,0,0,1,TNEG,981
1,2_vs_5,257,2,18,0,0,1,TNEG,2706
1,2_vs_5,258,2,6,1,0,1,HIT,501
1,2_vs_5,259,2,3,0,0,1,TNEG,735
1,2_vs_5,260,2,12,1,0,1,HIT,1183
1,2_vs_5,261,2,3,0,0,1,TNEG,711
1,2_vs_5,262,2,18,0,0,1,TNEG,1937
1,2_vs_5,263,2,18,0,0,1,TNEG,1690
1,2_vs_5,264,2,3,1,0,1,HIT,831
1,2_vs_5,265,2,6,0,0,1,TNEG,765
1,2_vs_5,266,2,18,1,0,1,HIT,1786
1,2_vs_5,267,2,12,1,0,1,HIT,711
1,2_vs_5,268,2,3,1,0,1,HIT,712
1,2_vs_5,269,2,3,0,0,1,TNEG,798
1,2_vs_5,270,2,3,1,0,1,HIT,423
1,2_vs_5,271,2,12,1,0,1,HIT,952
1,2_vs_5,272,2,3,0,0,1,TNEG,679
1,2_vs_5,273,2,18,0,0,1,TNEG,3002
1,2_vs_5,274,2,3,0,0,1,TNEG,775
1,2_vs_5,275,2,18,0,0,1,TNEG,2914
1,2_vs_5,276,2,12,1,0,1,HIT,1231
1,2_vs_5,277,2,18,0,0,1,TNEG,2234
1,2_vs_5,278,2,12,0,0,1,TNEG,1783
1,2_vs_5,279,2,12,0,0,1,TNEG,2455
1,2_vs_5,280,2,3,1,0,1,HIT,495
1,2_vs_5,281,2,6,0,0,1,TNEG,1101
1,2_vs_5,282,2,3,1,0,1,HIT,367
1,2_vs_5,283,2,6,1,0,1,HIT,757
1,2_vs_5,284,2,18,1,0,1,HIT,571
1,2_vs_5,285,2,12,0,0,1,TNEG,1608
1,2_vs_5,286,2,6,1,0,1,HIT,429
1,2_vs_5,287,2,12,0,0,1,TNEG,1368
1,2_vs_5,288,2,3,1,0,1,HIT,504
1,2_vs_5,289,2,18,0,0,1,TNEG,1755
1,2_vs_5,290,2,12,1,0,1,HIT,1879
1,2_vs_5,291,2,6,1,0,1,HIT,613
1,2_vs_5,292,2,3,1,0,1,HIT,375
1,2_vs_5,293,2,12,1,0,1,HIT,1071
1,2_vs_5,294,2,3,0,0,1,TNEG,672
1,2_vs_5,295,2,12,0,0,1,TNEG,1335
1,2_vs_5,296,2,3,0,0,1,TNEG,647
1,2_vs_5,297,2,18,1,0,1,HIT,1146
1,2_vs_5,298,2,12,1,0,1,HIT,607
1,2_vs_5,299,2,12,0,0,1,TNEG,1288
1,2_vs_5,300,2,18,1,0,1,HIT,1466
1,2_vs_5,1,3,18,0,0,1,TNEG,6280
1,2_vs_5,2,3,3,0,0,1,TNEG,599
1,2_vs_5,3,3,3,1,0,1,HIT,521
1,2_vs_5,4,3,18,1,0,1,HIT,2127
1,2_vs_5,5,3,12,1,0,1,HIT,1419
1,2_vs_5,6,3,12,0,0,1,TNEG,1859
1,2_vs_5,7,3,18,0,0,1,TNEG,3935
1,2_vs_5,8,3,3,1,0,1,HIT,424
1,2_vs_5,9,3,12,0,0,1,TNEG,2890
1,2_vs_5,10,3,3,0,0,1,TNEG,561
1,2_vs_5,11,3,3,0,0,1,TNEG,680
1,2_vs_5,12,3,3,1,0,1,HIT,513
1,2_vs_5,13,3,18,0,0,1,TNEG,4014
1,2_vs_5,14,3,6,0,0,1,TNEG,1647
1,2_vs_5,15,3,3,0,0,1,TNEG,880
1,2_vs_5,16,3,3,0,0,1,TNEG,633
1,2_vs_5,17,3,12,0,0,1,TNEG,3010
1,2_vs_5,18,3,18,1,0,1,HIT,1717
1,2_vs_5,19,3,18,1,0,1,HIT,1757
1,2_vs_5,20,3,6,1,0,1,HIT,614
1,2_vs_5,21,3,6,0,0,1,TNEG,1614
1,2_vs_5,22,3,12,1,0,1,HIT,930
1,2_vs_5,23,3,6,1,0,1,HIT,390
1,2_vs_5,24,3,3,1,0,1,HIT,417
1,2_vs_5,25,3,3,0,0,1,TNEG,936
1,2_vs_5,26,3,6,1,0,1,HIT,782
1,2_vs_5,27,3,3,1,0,1,HIT,455
1,2_vs_5,28,3,3,1,0,1,HIT,392
1,2_vs_5,29,3,3,0,0,1,TNEG,976
1,2_vs_5,30,3,12,0,0,1,TNEG,2497
1,2_vs_5,31,3,3,1,0,1,HIT,672
1,2_vs_5,32,3,12,1,0,1,HIT,2865
1,2_vs_5,33,3,6,0,0,1,TNEG,2101
1,2_vs_5,34,3,18,1,0,1,HIT,2684
1,2_vs_5,35,3,18,0,0,1,TNEG,2804
1,2_vs_5,36,3,3,0,0,1,TNEG,944
1,2_vs_5,37,3,12,0,0,1,TNEG,1928
1,2_vs_5,38,3,3,1,0,1,HIT,472
1,2_vs_5,39,3,12,1,0,1,HIT,568
1,2_vs_5,40,3,12,0,0,1,TNEG,2216
1,2_vs_5,41,3,6,0,0,1,TNEG,925
1,2_vs_5,42,3,6,0,0,1,TNEG,1349
1,2_vs_5,43,3,12,0,0,1,TNEG,2288
1,2_vs_5,44,3,18,1,0,1,HIT,1771
1,2_vs_5,45,3,18,0,0,1,TNEG,2906
1,2_vs_5,46,3,12,0,0,1,TNEG,2063
1,2_vs_5,47,3,6,0,0,1,TNEG,1469
1,2_vs_5,48,3,6,0,0,1,TNEG,1133
1,2_vs_5,49,3,18,0,0,1,TNEG,1763
1,2_vs_5,50,3,18,1,0,1,HIT,1250
1,2_vs_5,51,3,12,1,0,1,HIT,1448
1,2_vs_5,52,3,18,1,1,0,MISS,2747
1,2_vs_5,53,3,18,1,0,1,HIT,610
1,2_vs_5,54,3,6,1,0,1,HIT,1125
1,2_vs_5,55,3,18,0,0,1,TNEG,3154
1,2_vs_5,56,3,12,0,0,1,TNEG,2359
1,2_vs_5,57,3,3,0,0,1,TNEG,679
1,2_vs_5,58,3,3,1,0,1,HIT,447
1,2_vs_5,59,3,3,0,0,1,TNEG,663
1,2_vs_5,60,3,6,1,0,1,HIT,1644
1,2_vs_5,61,3,3,1,0,1,HIT,782
1,2_vs_5,62,3,12,0,0,1,TNEG,2656
1,2_vs_5,63,3,6,0,0,1,TNEG,1732
1,2_vs_5,64,3,6,1,0,1,HIT,652
1,2_vs_5,65,3,3,1,0,1,HIT,911
1,2_vs_5,66,3,6,0,0,1,TNEG,1789
1,2_vs_5,67,3,6,0,0,1,TNEG,1428
1,2_vs_5,68,3,6,0,0,1,TNEG,1325
1,2_vs_5,69,3,6,0,0,1,TNEG,1916
1,2_vs_5,70,3,18,1,0,1,HIT,2666
1,2_vs_5,71,3,12,0,0,1,TNEG,3223
1,2_vs_5,72,3,12,1,0,1,HIT,880
1,2_vs_5,73,3,6,0,0,1,TNEG,2477
1,2_vs_5,74,3,3,1,0,1,HIT,518
1,2_vs_5,75,3,3,0,0,1,TNEG,727
1,2_vs_5,76,3,3,0,0,1,TNEG,807
1,2_vs_5,77,3,3,0,0,1,TNEG,863
1,2_vs_5,78,3,18,1,0,1,HIT,1706
1,2_vs_5,79,3,3,1,0,1,HIT,615
1,2_vs_5,80,3,6,0,0,1,TNEG,1885
1,2_vs_5,81,3,12,0,0,1,TNEG,3152
1,2_vs_5,82,3,12,1,0,1,HIT,752
1,2_vs_5,83,3,18,0,0,1,TNEG,3995
1,2_vs_5,84,3,18,0,0,1,TNEG,3026
1,2_vs_5,85,3,3,0,0,1,TNEG,1071
1,2_vs_5,86,3,3,0,0,1,TNEG,776
1,2_vs_5,87,3,6,1,0,1,HIT,525
1,2_vs_5,88,3,6,1,0,1,HIT,1149
1,2_vs_5,89,3,6,1,0,1,HIT,549
1,2_vs_5,90,3,18,0,0,1,TNEG,1691
1,2_vs_5,91,3,6,0,0,1,TNEG,1428
1,2_vs_5,92,3,3,1,0,1,HIT,792
1,2_vs_5,93,3,6,1,0,1,HIT,1085
1,2_vs_5,94,3,3,0,0,1,TNEG,711
1,2_vs_5,95,3,18,1,0,1,HIT,802
1,2_vs_5,96,3,12,1,0,1,HIT,1951
1,2_vs_5,97,3,12,0,0,1,TNEG,1912
1,2_vs_5,98,3,3,0,0,1,TNEG,519
1,2_vs_5,99,3,12,1,0,1,HIT,1623
1,2_vs_5,100,3,12,1,0,1,HIT,1224
1,2_vs_5,101,3,6,0,0,1,TNEG,1069
1,2_vs_5,102,3,12,0,0,1,TNEG,1864
1,2_vs_5,103,3,6,1,1,0,MISS,1269
1,2_vs_5,104,3,6,1,0,1,HIT,1013
1,2_vs_5,105,3,6,1,0,1,HIT,685
1,2_vs_5,106,3,3,1,0,1,HIT,480
1,2_vs_5,107,3,3,0,0,1,TNEG,551
1,2_vs_5,108,3,6,1,0,1,HIT,573
1,2_vs_5,109,3,12,0,1,0,FA,615
1,2_vs_5,110,3,6,0,0,1,TNEG,1077
1,2_vs_5,111,3,3,0,0,1,TNEG,695
1,2_vs_5,112,3,12,0,0,1,TNEG,2776
1,2_vs_5,113,3,18,1,0,1,HIT,2002
1,2_vs_5,114,3,6,0,0,1,TNEG,1140
1,2_vs_5,115,3,6,0,0,1,TNEG,1045
1,2_vs_5,116,3,18,0,0,1,TNEG,2571
1,2_vs_5,117,3,6,1,0,1,HIT,653
1,2_vs_5,118,3,18,0,0,1,TNEG,2370
1,2_vs_5,119,3,12,0,0,1,TNEG,1879
1,2_vs_5,120,3,12,1,0,1,HIT,535
1,2_vs_5,121,3,18,1,0,1,HIT,578
1,2_vs_5,122,3,6,1,0,1,HIT,685
1,2_vs_5,123,3,6,0,0,1,TNEG,765
1,2_vs_5,124,3,6,1,0,1,HIT,413
1,2_vs_5,125,3,6,1,0,1,HIT,861
1,2_vs_5,126,3,3,0,1,0,FA,432
1,2_vs_5,127,3,6,1,0,1,HIT,485
1,2_vs_5,128,3,18,1,0,1,HIT,2138
1,2_vs_5,129,3,12,1,0,1,HIT,416
1,2_vs_5,130,3,18,0,0,1,TNEG,2066
1,2_vs_5,131,3,6,0,0,1,TNEG,1436
1,2_vs_5,132,3,18,1,0,1,HIT,1610
1,2_vs_5,133,3,6,0,0,1,TNEG,1253
1,2_vs_5,134,3,6,1,0,1,HIT,1765
1,2_vs_5,135,3,18,0,0,1,TNEG,2138
1,2_vs_5,136,3,3,1,0,1,HIT,423
1,2_vs_5,137,3,3,1,0,1,HIT,422
1,2_vs_5,138,3,12,1,0,1,HIT,1584
1,2_vs_5,139,3,6,1,0,1,HIT,413
1,2_vs_5,140,3,18,0,0,1,TNEG,3011
1,2_vs_5,141,3,12,1,0,1,HIT,423
1,2_vs_5,142,3,3,1,0,1,HIT,784
1,2_vs_5,143,3,6,1,0,1,HIT,965
1,2_vs_5,144,3,6,1,0,1,HIT,1284
1,2_vs_5,145,3,12,0,0,1,TNEG,1496
1,2_vs_5,146,3,6,1,0,1,HIT,429
1,2_vs_5,147,3,3,1,0,1,HIT,743
1,2_vs_5,148,3,6,1,0,1,HIT,477
1,2_vs_5,149,3,3,1,0,1,HIT,375
1,2_vs_5,150,3,3,1,0,1,HIT,375
1,2_vs_5,151,3,6,0,0,1,TNEG,1245
1,2_vs_5,152,3,3,0,0,1,TNEG,703
1,2_vs_5,153,3,3,1,0,1,HIT,439
1,2_vs_5,154,3,18,1,1,0,MISS,1442
1,2_vs_5,155,3,6,0,0,1,TNEG,1820
1,2_vs_5,156,3,3,0,0,1,TNEG,902
1,2_vs_5,157,3,12,0,0,1,TNEG,2055
1,2_vs_5,158,3,18,1,1,0,MISS,1418
1,2_vs_5,159,3,12,0,0,1,TNEG,1791
1,2_vs_5,160,3,12,1,0,1,HIT,1567
1,2_vs_5,161,3,12,1,0,1,HIT,1455
1,2_vs_5,162,3,6,1,0,1,HIT,1284
1,2_vs_5,163,3,6,1,0,1,HIT,789
1,2_vs_5,164,3,6,1,0,1,HIT,365
1,2_vs_5,165,3,3,1,0,1,HIT,360
1,2_vs_5,166,3,6,0,0,1,TNEG,1012
1,2_vs_5,167,3,12,0,0,1,TNEG,3312
1,2_vs_5,168,3,12,1,1,0,MISS,2272
1,2_vs_5,169,3,3,1,0,1,HIT,431
1,2_vs_5,170,3,6,0,0,1,TNEG,1141
1,2_vs_5,171,3,6,0,0,1,TNEG,1020
1,2_vs_5,172,3,3,1,0,1,HIT,599
1,2_vs_5,173,3,12,0,0,1,TNEG,1736
1,2_vs_5,174,3,18,0,0,1,TNEG,2138
1,2_vs_5,175,3,3,0,0,1,TNEG,615
1,2_vs_5,176,3,12,1,0,1,HIT,1136
1,2_vs_5,177,3,18,1,0,1,HIT,738
1,2_vs_5,178,3,18,1,0,1,HIT,819
1,2_vs_5,179,3,3,1,0,1,HIT,447
1,2_vs_5,180,3,3,1,0,1,HIT,1007
1,2_vs_5,181,3,18,0,0,1,TNEG,2418
1,2_vs_5,182,3,12,1,0,1,HIT,1392
1,2_vs_5,183,3,3,1,0,1,HIT,487
1,2_vs_5,184,3,3,0,0,1,TNEG,1103
1,2_vs_5,185,3,12,0,1,0,FA,1656
1,2_vs_5,186,3,6,1,0,1,HIT,661
1,2_vs_5,187,3,3,1,0,1,HIT,678
1,2_vs_5,188,3,3,1,0,1,HIT,400
1,2_vs_5,189,3,3,0,0,1,TNEG,471
1,2_vs_5,190,3,18,0,0,1,TNEG,2915
1,2_vs_5,191,3,6,0,0,1,TNEG,973
1,2_vs_5,192,3,12,1,0,1,HIT,847
1,2_vs_5,193,3,18,1,0,1,HIT,747
1,2_vs_5,194,3,6,0,0,1,TNEG,972
1,2_vs_5,195,3,3,0,0,1,TNEG,807
1,2_vs_5,196,3,18,1,0,1,HIT,1218
1,2_vs_5,197,3,3,1,0,1,HIT,406
1,2_vs_5,198,3,3,1,0,1,HIT,535
1,2_vs_5,199,3,6,0,1,0,FA,517
1,2_vs_5,200,3,18,0,0,1,TNEG,1722
1,2_vs_5,201,3,18,0,0,1,TNEG,1498
1,2_vs_5,202,3,12,1,0,1,HIT,535
1,2_vs_5,203,3,3,0,0,1,TNEG,663
1,2_vs_5,204,3,3,0,0,1,TNEG,847
1,2_vs_5,205,3,6,0,0,1,TNEG,1140
1,2_vs_5,206,3,6,0,0,1,TNEG,1069
1,2_vs_5,207,3,18,1,0,1,HIT,1123
1,2_vs_5,208,3,6,0,0,1,TNEG,965
1,2_vs_5,209,3,18,1,0,1,HIT,802
1,2_vs_5,210,3,18,1,0,1,HIT,1563
1,2_vs_5,211,3,6,1,0,1,HIT,637
1,2_vs_5,212,3,18,0,0,1,TNEG,3186
1,2_vs_5,213,3,6,0,0,1,TNEG,1244
1,2_vs_5,214,3,3,0,0,1,TNEG,815
1,2_vs_5,215,3,3,0,0,1,TNEG,527
1,2_vs_5,216,3,6,0,0,1,TNEG,1773
1,2_vs_5,217,3,12,1,0,1,HIT,583
1,2_vs_5,218,3,6,1,0,1,HIT,644
1,2_vs_5,219,3,18,0,0,1,TNEG,2107
1,2_vs_5,220,3,6,1,0,1,HIT,1005
1,2_vs_5,221,3,3,0,0,1,TNEG,736
1,2_vs_5,222,3,18,0,0,1,TNEG,1882
1,2_vs_5,223,3,6,1,0,1,HIT,589
1,2_vs_5,224,3,18,1,0,1,HIT,1819
1,2_vs_5,225,3,18,1,0,1,HIT,682
1,2_vs_5,226,3,18,0,0,1,TNEG,2162
1,2_vs_5,227,3,6,1,0,1,HIT,1132
1,2_vs_5,228,3,18,0,0,1,TNEG,7210
1,2_vs_5,229,3,6,0,0,1,TNEG,1604
1,2_vs_5,230,3,18,0,0,1,TNEG,1754
1,2_vs_5,231,3,6,1,0,1,HIT,509
1,2_vs_5,232,3,6,1,0,1,HIT,861
1,2_vs_5,233,3,6,0,0,1,TNEG,1117
1,2_vs_5,234,3,12,1,0,1,HIT,568
1,2_vs_5,235,3,6,1,0,1,HIT,1605
1,2_vs_5,236,3,6,1,0,1,HIT,1029
1,2_vs_5,237,3,3,0,0,1,TNEG,823
1,2_vs_5,238,3,6,1,0,1,HIT,1060
1,2_vs_5,239,3,6,1,0,1,HIT,949
1,2_vs_5,240,3,18,1,0,1,HIT,1018
1,2_vs_5,241,3,12,0,0,1,TNEG,1599
1,2_vs_5,242,3,18,0,0,1,TNEG,2282
1,2_vs_5,243,3,12,1,0,1,HIT,486
1,2_vs_5,244,3,18,0,0,1,TNEG,2057
1,2_vs_5,245,3,6,0,0,1,TNEG,1421
1,2_vs_5,246,3,12,0,0,1,TNEG,1256
1,2_vs_5,247,3,6,0,0,1,TNEG,909
1,2_vs_5,248,3,12,1,0,1,HIT,919
1,2_vs_5,249,3,18,1,0,1,HIT,1858
1,2_vs_5,250,3,12,1,0,1,HIT,895
1,2_vs_5,251,3,18,1,0,1,HIT,987
1,2_vs_5,252,3,6,1,0,1,HIT,509
1,2_vs_5,253,3,12,0,0,1,TNEG,1791
1,2_vs_5,254,3,12,1,0,1,HIT,1855
1,2_vs_5,255,3,3,1,0,1,HIT,623
1,2_vs_5,256,3,6,0,0,1,TNEG,1556
1,2_vs_5,257,3,12,1,0,1,HIT,943
1,2_vs_5,258,3,3,1,0,1,HIT,624
1,2_vs_5,259,3,3,1,0,1,HIT,455
1,2_vs_5,260,3,6,0,0,1,TNEG,1101
1,2_vs_5,261,3,6,1,0,1,HIT,596
1,2_vs_5,262,3,3,0,0,1,TNEG,799
1,2_vs_5,263,3,6,1,0,1,HIT,444
1,2_vs_5,264,3,12,0,0,1,TNEG,1344
1,2_vs_5,265,3,6,0,0,1,TNEG,996
1,2_vs_5,266,3,18,0,0,1,TNEG,2746
1,2_vs_5,267,3,6,0,0,1,TNEG,1092
1,2_vs_5,268,3,6,0,0,1,TNEG,1189
1,2_vs_5,269,3,18,1,1,0,MISS,4058
1,2_vs_5,270,3,6,1,1,0,MISS,1637
1,2_vs_5,271,3,3,1,0,1,HIT,632
1,2_vs_5,273,3,12,0,0,1,TNEG,2376
1,2_vs_5,274,3,3,0,0,1,TNEG,1967
1,2_vs_5,275,3,6,1,0,1,HIT,564
1,2_vs_5,276,3,12,0,0,1,TNEG,1703
1,2_vs_5,277,3,3,0,0,1,TNEG,799
1,2_vs_5,278,3,12,0,0,1,TNEG,3975
1,2_vs_5,279,3,12,0,0,1,TNEG,2983
1,2_vs_5,280,3,12,1,0,1,HIT,1192
1,2_vs_5,281,3,12,1,0,1,HIT,904
1,2_vs_5,282,3,6,1,0,1,HIT,421
1,2_vs_5,283,3,6,1,0,1,HIT,677
1,2_vs_5,284,3,3,0,0,1,TNEG,648
1,2_vs_5,285,3,6,1,0,1,HIT,1389
1,2_vs_5,286,3,6,0,0,1,TNEG,1237
1,2_vs_5,287,3,12,0,0,1,TNEG,2936
1,2_vs_5,288,3,18,1,0,1,HIT,1290
1,2_vs_5,289,3,18,0,0,1,TNEG,2267
1,2_vs_5,290,3,12,0,0,1,TNEG,1464
1,2_vs_5,291,3,12,0,0,1,TNEG,1543
1,2_vs_5,292,3,3,0,0,1,TNEG,823
1,2_vs_5,293,3,18,0,0,1,TNEG,1746
1,2_vs_5,294,3,3,1,0,1,HIT,463
1,2_vs_5,295,3,6,1,0,1,HIT,845
1,2_vs_5,296,3,3,1,0,1,HIT,391
1,2_vs_5,297,3,6,0,0,1,TNEG,1101
1,2_vs_5,298,3,12,0,0,1,TNEG,2231
1,2_vs_5,299,3,18,0,0,1,TNEG,1642
1,2_vs_5,300,3,6,0,0,1,TNEG,1485
1,2_vs_5,1,4,6,0,0,1,TNEG,1265
1,2_vs_5,2,4,18,1,0,1,HIT,990
1,2_vs_5,3,4,18,0,0,1,TNEG,2015
1,2_vs_5,4,4,3,0,0,1,TNEG,489
1,2_vs_5,5,4,18,1,0,1,HIT,1807
1,2_vs_5,6,4,3,0,0,1,TNEG,896
1,2_vs_5,7,4,18,1,0,1,HIT,2670
1,2_vs_5,8,4,6,1,0,1,HIT,647
1,2_vs_5,9,4,6,1,0,1,HIT,1527
1,2_vs_5,10,4,12,0,0,1,TNEG,2467
1,2_vs_5,11,4,3,1,0,1,HIT,656
1,2_vs_5,12,4,3,1,0,1,HIT,753
1,2_vs_5,13,4,12,0,0,1,TNEG,3034
1,2_vs_5,14,4,3,0,0,1,TNEG,1096
1,2_vs_5,15,4,12,1,0,1,HIT,1313
1,2_vs_5,16,4,6,0,0,1,TNEG,2030
1,2_vs_5,17,4,3,0,0,1,TNEG,1464
1,2_vs_5,18,4,6,0,0,1,TNEG,2806
1,2_vs_5,19,4,6,1,0,1,HIT,766
1,2_vs_5,20,4,3,0,0,1,TNEG,897
1,2_vs_5,21,4,18,1,0,1,HIT,1421
1,2_vs_5,22,4,6,1,0,1,HIT,1134
1,2_vs_5,23,4,12,1,0,1,HIT,1161
1,2_vs_5,24,4,6,0,0,1,TNEG,1118
1,2_vs_5,25,4,3,0,0,1,TNEG,496
1,2_vs_5,26,4,6,0,0,1,TNEG,1214
1,2_vs_5,27,4,12,1,1,0,MISS,968
1,2_vs_5,28,4,12,0,0,1,TNEG,2681
1,2_vs_5,29,4,12,0,0,1,TNEG,1736
1,2_vs_5,30,4,3,0,0,1,TNEG,664
1,2_vs_5,31,4,18,1,0,1,HIT,1284
1,2_vs_5,33,4,12,0,0,1,TNEG,2576
1,2_vs_5,34,4,3,1,0,1,HIT,1175
1,2_vs_5,35,4,3,0,0,1,TNEG,968
1,2_vs_5,36,4,18,1,0,1,HIT,556
1,2_vs_5,37,4,18,1,0,1,HIT,2460
1,2_vs_5,38,4,12,1,0,1,HIT,928
1,2_vs_5,39,4,12,0,0,1,TNEG,2456
1,2_vs_5,40,4,6,1,0,1,HIT,749
1,2_vs_5,41,4,18,0,0,1,TNEG,2339
1,2_vs_5,42,4,6,0,0,1,TNEG,1308
1,2_vs_5,43,4,6,0,0,1,TNEG,1180
1,2_vs_5,44,4,18,0,0,1,TNEG,2779
1,2_vs_5,45,4,3,1,0,1,HIT,903
1,2_vs_5,46,4,3,0,0,1,TNEG,800
1,2_vs_5,47,4,6,0,0,1,TNEG,1701
1,2_vs_5,48,4,6,1,0,1,HIT,493
1,2_vs_5,49,4,12,0,0,1,TNEG,1984
1,2_vs_5,50,4,3,0,0,1,TNEG,767
1,2_vs_5,51,4,6,1,0,1,HIT,612
1,2_vs_5,52,4,12,1,0,1,HIT,1239
1,2_vs_5,53,4,18,0,0,1,TNEG,4426
1,2_vs_5,54,4,12,1,0,1,HIT,535
1,2_vs_5,55,4,6,1,0,1,HIT,933
1,2_vs_5,56,4,6,1,0,1,HIT,893
1,2_vs_5,57,4,18,0,0,1,TNEG,2346
1,2_vs_5,58,4,18,0,0,1,TNEG,2082
1,2_vs_5,59,4,18,0,0,1,TNEG,2034
1,2_vs_5,60,4,12,0,0,1,TNEG,1647
1,2_vs_5,61,4,18,1,0,1,HIT,898
1,2_vs_5,62,4,3,1,0,1,HIT,447
1,2_vs_5,63,4,12,1,0,1,HIT,1087
1,2_vs_5,64,4,18,1,0,1,HIT,970
1,2_vs_5,65,4,18,1,0,1,HIT,1419
1,2_vs_5,66,4,12,1,0,1,HIT,927
1,2_vs_5,67,4,6,0,0,1,TNEG,1252
1,2_vs_5,68,4,12,0,0,1,TNEG,1695
1,2_vs_5,69,4,18,0,0,1,TNEG,2026
1,2_vs_5,70,4,12,1,0,1,HIT,1207
1,2_vs_5,71,4,3,0,0,1,TNEG,566
1,2_vs_5,72,4,12,1,0,1,HIT,735
1,2_vs_5,73,4,6,1,0,1,HIT,996
1,2_vs_5,74,4,12,0,0,1,TNEG,2296
1,2_vs_5,75,4,3,0,0,1,TNEG,983
1,2_vs_5,76,4,6,0,0,1,TNEG,1205
1,2_vs_5,77,4,3,1,0,1,HIT,527
1,2_vs_5,78,4,3,1,0,1,HIT,544
1,2_vs_5,79,4,6,0,0,1,TNEG,997
1,2_vs_5,80,4,6,1,0,1,HIT,957
1,2_vs_5,81,4,18,0,0,1,TNEG,1850
1,2_vs_5,82,4,6,1,0,1,HIT,556
1,2_vs_5,83,4,18,0,0,1,TNEG,1754
1,2_vs_5,84,4,6,1,0,1,HIT,989
1,2_vs_5,85,4,3,1,0,1,HIT,743
1,2_vs_5,86,4,3,0,0,1,TNEG,608
1,2_vs_5,87,4,12,1,0,1,HIT,1807
1,2_vs_5,88,4,3,1,0,1,HIT,504
1,2_vs_5,89,4,6,1,0,1,HIT,637
1,2_vs_5,90,4,18,1,0,1,HIT,1155
1,2_vs_5,91,4,6,0,0,1,TNEG,1293
1,2_vs_5,92,4,12,1,0,1,HIT,1191
1,2_vs_5,93,4,18,0,0,1,TNEG,2666
1,2_vs_5,94,4,3,1,0,1,HIT,583
1,2_vs_5,95,4,3,0,0,1,TNEG,711
1,2_vs_5,96,4,18,1,0,1,HIT,1338
1,2_vs_5,97,4,3,1,0,1,HIT,455
1,2_vs_5,98,4,3,0,0,1,TNEG,543
1,2_vs_5,99,4,6,0,0,1,TNEG,1069
1,2_vs_5,100,4,12,1,0,1,HIT,511
1,2_vs_5,101,4,18,1,0,1,HIT,626
1,2_vs_5,102,4,12,0,0,1,TNEG,1559
1,2_vs_5,103,4,18,0,0,1,TNEG,3922
1,2_vs_5,104,4,6,0,0,1,TNEG,1412
1,2_vs_5,105,4,12,1,0,1,HIT,1279
1,2_vs_5,106,4,6,1,0,1,HIT,549
1,2_vs_5,107,4,12,1,0,1,HIT,1031
1,2_vs_5,108,4,6,0,0,1,TNEG,1653
1,2_vs_5,109,4,12,1,0,1,HIT,1263
1,2_vs_5,110,4,3,0,0,1,TNEG,663
1,2_vs_5,111,4,3,1,0,1,HIT,655
1,2_vs_5,112,4,3,0,0,1,TNEG,743
1,2_vs_5,113,4,18,1,0,1,HIT,1402
1,2_vs_5,114,4,6,0,0,1,TNEG,2013
1,2_vs_5,115,4,18,1,0,1,HIT,1162
1,2_vs_5,116,4,6,1,0,1,HIT,829
1,2_vs_5,117,4,18,0,0,1,TNEG,1771
1,2_vs_5,118,4,6,0,0,1,TNEG,2869
1,2_vs_5,119,4,6,1,0,1,HIT,901
1,2_vs_5,120,4,3,0,0,1,TNEG,631
1,2_vs_5,121,4,3,1,0,1,HIT,559
1,2_vs_5,122,4,12,1,0,1,HIT,984
1,2_vs_5,123,4,6,0,0,1,TNEG,1381
1,2_vs_5,124,4,3,0,0,1,TNEG,679
1,2_vs_5,125,4,6,1,0,1,HIT,620
1,2_vs_5,126,4,12,0,0,1,TNEG,2055
1,2_vs_5,127,4,6,1,0,1,HIT,1725
1,2_vs_5,128,4,6,0,0,1,TNEG,1117
1,2_vs_5,129,4,18,0,0,1,TNEG,2514
1,2_vs_5,130,4,6,1,0,1,HIT,533
1,2_vs_5,131,4,12,0,0,1,TNEG,2127
1,2_vs_5,132,4,18,0,0,1,TNEG,1578
1,2_vs_5,133,4,6,1,0,1,HIT,1165
1,2_vs_5,134,4,12,1,1,0,MISS,2240
1,2_vs_5,135,4,3,0,0,1,TNEG,807
1,2_vs_5,136,4,18,1,0,1,HIT,1683
1,2_vs_5,137,4,6,0,0,1,TNEG,804
1,2_vs_5,138,4,3,0,0,1,TNEG,839
1,2_vs_5,139,4,6,0,0,1,TNEG,1092
1,2_vs_5,140,4,6,1,0,1,HIT,460
1,2_vs_5,141,4,6,0,0,1,TNEG,845
1,2_vs_5,142,4,18,0,0,1,TNEG,1691
1,2_vs_5,143,4,6,0,0,1,TNEG,1212
1,2_vs_5,144,4,18,1,0,1,HIT,866
1,2_vs_5,145,4,3,1,0,1,HIT,855
1,2_vs_5,146,4,3,0,0,1,TNEG,799
1,2_vs_5,147,4,12,1,0,1,HIT,591
1,2_vs_5,148,4,18,0,0,1,TNEG,1722
1,2_vs_5,149,4,12,0,0,1,TNEG,1695
1,2_vs_5,150,4,6,0,0,1,TNEG,1084
1,2_vs_5,151,4,3,1,0,1,HIT,591
1,2_vs_5,152,4,6,1,0,1,HIT,725
1,2_vs_5,153,4,12,1,0,1,HIT,1272
1,2_vs_5,154,4,12,0,0,1,TNEG,1655
1,2_vs_5,155,4,12,0,0,1,TNEG,1839
1,2_vs_5,156,4,12,1,0,1,HIT,1087
1,2_vs_5,157,4,12,0,0,1,TNEG,1777
1,2_vs_5,158,4,12,0,0,1,TNEG,1551
1,2_vs_5,159,4,3,1,0,1,HIT,720
1,2_vs_5,160,4,6,1,0,1,HIT,877
1,2_vs_5,161,4,12,0,0,1,TNEG,1919
1,2_vs_5,162,4,12,1,0,1,HIT,968
1,2_vs_5,163,4,3,1,0,1,HIT,423
1,2_vs_5,164,4,3,0,0,1,TNEG,760
1,2_vs_5,165,4,18,1,0,1,HIT,1346
1,2_vs_5,166,4,6,1,0,1,HIT,661
1,2_vs_5,167,4,3,1,0,1,HIT,432
1,2_vs_5,168,4,3,1,0,1,HIT,511
1,2_vs_5,169,4,12,0,0,1,TNEG,1688
1,2_vs_5,170,4,3,0,0,1,TNEG,551
1,2_vs_5,171,4,6,0,0,1,TNEG,1197
1,2_vs_5,172,4,18,0,0,1,TNEG,2162
1,2_vs_5,173,4,12,1,0,1,HIT,616
1,2_vs_5,174,4,18,0,0,1,TNEG,2330
1,2_vs_5,175,4,6,1,0,1,HIT,532
1,2_vs_5,176,4,3,0,0,1,TNEG,607
1,2_vs_5,177,4,12,1,0,1,HIT,1223
1,2_vs_5,178,4,18,1,0,1,HIT,1418
1,2_vs_5,179,4,6,0,0,1,TNEG,981
1,2_vs_5,180,4,3,1,0,1,HIT,438
1,2_vs_5,181,4,18,1,0,1,HIT,2251
1,2_vs_5,182,4,3,1,0,1,HIT,799
1,2_vs_5,183,4,18,1,0,1,HIT,770
1,2_vs_5,184,4,18,1,0,1,HIT,1218
1,2_vs_5,185,4,18,1,0,1,HIT,1634
1,2_vs_5,186,4,3,1,0,1,HIT,727
1,2_vs_5,187,4,3,1,0,1,HIT,551
1,2_vs_5,188,4,6,1,0,1,HIT,525
1,2_vs_5,189,4,12,1,0,1,HIT,1727
1,2_vs_5,190,4,18,1,0,1,HIT,473
1,2_vs_5,191,4,12,0,0,1,TNEG,2359
1,2_vs_5,192,4,3,0,0,1,TNEG,735
1,2_vs_5,193,4,6,1,0,1,HIT,1436
1,2_vs_5,194,4,6,1,0,1,HIT,757
1,2_vs_5,195,4,6,1,0,1,HIT,725
1,2_vs_5,196,4,18,0,0,1,TNEG,2339
1,2_vs_5,197,4,18,0,0,1,TNEG,1642
1,2_vs_5,198,4,18,1,0,1,HIT,1562
1,2_vs_5,199,4,12,0,0,1,TNEG,2696
1,2_vs_5,200,4,3,0,0,1,TNEG,615
1,2_vs_5,201,4,6,1,0,1,HIT,605
1,2_vs_5,202,4,18,0,0,1,TNEG,2963
1,2_vs_5,203,4,3,1,0,1,HIT,615
1,2_vs_5,204,4,12,1,0,1,HIT,1615
1,2_vs_5,205,4,18,0,0,1,TNEG,4690
1,2_vs_5,206,4,3,0,1,0,FA,623
1,2_vs_5,207,4,18,0,0,1,TNEG,2458
1,2_vs_5,208,4,18,1,0,1,HIT,1554
1,2_vs_5,209,4,12,0,0,1,TNEG,2359
1,2_vs_5,210,4,12,1,0,1,HIT,1719
1,2_vs_5,211,4,18,0,0,1,TNEG,1378
1,2_vs_5,212,4,12,0,0,1,TNEG,1384
1,2_vs_5,213,4,3,1,0,1,HIT,551
1,2_vs_5,214,4,6,0,0,1,TNEG,541
1,2_vs_5,215,4,6,1,0,1,HIT,1541
1,2_vs_5,216,4,18,0,1,0,FA,811
1,2_vs_5,217,4,3,1,0,1,HIT,751
1,2_vs_5,218,4,12,0,0,1,TNEG,1415
1,2_vs_5,219,4,3,0,0,1,TNEG,655
1,2_vs_5,220,4,6,1,0,1,HIT,1260
1,2_vs_5,221,4,6,1,0,1,HIT,476
1,2_vs_5,222,4,3,1,0,1,HIT,431
1,2_vs_5,223,4,18,1,0,1,HIT,794
1,2_vs_5,224,4,3,1,0,1,HIT,479
1,2_vs_5,225,4,12,0,0,1,TNEG,1432
1,2_vs_5,226,4,12,1,0,1,HIT,1599
1,2_vs_5,227,4,6,1,0,1,HIT,453
1,2_vs_5,228,4,12,0,0,1,TNEG,1208
1,2_vs_5,229,4,3,0,0,1,TNEG,663
1,2_vs_5,230,4,3,1,0,1,HIT,647
1,2_vs_5,231,4,12,0,0,1,TNEG,1440
1,2_vs_5,232,4,18,1,0,1,HIT,506
1,2_vs_5,233,4,3,1,0,1,HIT,767
1,2_vs_5,234,4,12,1,0,1,HIT,1568
1,2_vs_5,235,4,18,1,0,1,HIT,1554
1,2_vs_5,236,4,6,0,0,1,TNEG,1141
1,2_vs_5,237,4,3,0,0,1,TNEG,975
1,2_vs_5,238,4,3,1,0,1,HIT,815
1,2_vs_5,239,4,3,1,0,1,HIT,943
1,2_vs_5,240,4,18,0,0,1,TNEG,3227
1,2_vs_5,241,4,12,1,0,1,HIT,999
1,2_vs_5,242,4,18,0,0,1,TNEG,1738
1,2_vs_5,243,4,6,1,0,1,HIT,620
1,2_vs_5,244,4,3,1,0,1,HIT,984
1,2_vs_5,245,4,6,0,0,1,TNEG,917
1,2_vs_5,246,4,3,0,0,1,TNEG,799
1,2_vs_5,247,4,12,0,0,1,TNEG,1431
1,2_vs_5,248,4,6,1,0,1,HIT,1276
1,2_vs_5,249,4,18,1,0,1,HIT,2251
1,2_vs_5,250,4,12,0,0,1,TNEG,1999
1,2_vs_5,251,4,18,1,0,1,HIT,1666
1,2_vs_5,252,4,3,1,0,1,HIT,495
1,2_vs_5,253,4,18,0,0,1,TNEG,1394
1,2_vs_5,254,4,12,0,0,1,TNEG,1295
1,2_vs_5,255,4,6,0,0,1,TNEG,1069
1,2_vs_5,256,4,12,0,0,1,TNEG,1951
1,2_vs_5,257,4,18,0,0,1,TNEG,2075
1,2_vs_5,258,4,18,0,0,1,TNEG,1594
1,2_vs_5,259,4,12,0,0,1,TNEG,1416
1,2_vs_5,260,4,12,1,0,1,HIT,479
1,2_vs_5,261,4,12,1,0,1,HIT,1311
1,2_vs_5,262,4,3,1,0,1,HIT,679
1,2_vs_5,263,4,12,1,0,1,HIT,1544
1,2_vs_5,264,4,3,0,0,1,TNEG,920
1,2_vs_5,265,4,18,1,1,0,MISS,2322
1,2_vs_5,266,4,12,0,0,1,TNEG,1711
1,2_vs_5,267,4,3,1,0,1,HIT,3927
1,2_vs_5,268,4,18,0,0,1,TNEG,2403
1,2_vs_5,269,4,12,0,0,1,TNEG,2119
1,2_vs_5,270,4,18,0,0,1,TNEG,4970
1,2_vs_5,271,4,3,0,0,1,TNEG,759
1,2_vs_5,272,4,3,1,0,1,HIT,535
1,2_vs_5,273,4,6,1,0,1,HIT,1013
1,2_vs_5,274,4,12,0,0,1,TNEG,1655
1,2_vs_5,275,4,12,1,0,1,HIT,463
1,2_vs_5,276,4,3,0,0,1,TNEG,583
1,2_vs_5,277,4,3,1,0,1,HIT,655
1,2_vs_5,278,4,18,0,0,1,TNEG,2033
1,2_vs_5,279,4,6,1,0,1,HIT,869
1,2_vs_5,280,4,6,0,0,1,TNEG,741
1,2_vs_5,281,4,3,0,0,1,TNEG,855
1,2_vs_5,282,4,12,0,0,1,TNEG,1063
1,2_vs_5,283,4,12,0,0,1,TNEG,1999
1,2_vs_5,284,4,18,1,0,1,HIT,818
1,2_vs_5,285,4,18,1,1,0,MISS,2162
1,2_vs_5,286,4,3,1,0,1,HIT,807
1,2_vs_5,287,4,6,0,0,1,TNEG,1348
1,2_vs_5,288,4,12,0,0,1,TNEG,2256
1,2_vs_5,289,4,18,1,0,1,HIT,1922
1,2_vs_5,290,4,6,1,0,1,HIT,1101
1,2_vs_5,291,4,6,0,0,1,TNEG,1253
1,2_vs_5,292,4,3,0,0,1,TNEG,967
1,2_vs_5,293,4,3,0,0,1,TNEG,479
1,2_vs_5,294,4,6,1,0,1,HIT,508
1,2_vs_5,295,4,3,1,0,1,HIT,399
1,2_vs_5,296,4,3,1,1,0,MISS,592
1,2_vs_5,297,4,3,0,0,1,TNEG,815
1,2_vs_5,298,4,6,0,0,1,TNEG,1181
1,2_vs_5,299,4,18,1,0,1,HIT,529
1,2_vs_5,300,4,18,0,0,1,TNEG,4771
1,2_vs_5,1,5,6,1,0,1,HIT,848
1,2_vs_5,2,5,6,1,0,1,HIT,878
1,2_vs_5,3,5,12,0,0,1,TNEG,1955
1,2_vs_5,4,5,12,1,0,1,HIT,586
1,2_vs_5,5,5,12,0,0,1,TNEG,2218
1,2_vs_5,6,5,6,0,0,1,TNEG,950
1,2_vs_5,7,5,6,0,0,1,TNEG,975
1,2_vs_5,8,5,12,0,0,1,TNEG,1963
1,2_vs_5,9,5,6,0,0,1,TNEG,935
1,2_vs_5,10,5,3,0,0,1,TNEG,793
1,2_vs_5,11,5,6,0,0,1,TNEG,1390
1,2_vs_5,12,5,3,1,0,1,HIT,601
1,2_vs_5,13,5,6,1,0,1,HIT,1038
1,2_vs_5,14,5,6,1,0,1,HIT,543
1,2_vs_5,15,5,12,1,0,1,HIT,954
1,2_vs_5,16,5,18,1,0,1,HIT,470
1,2_vs_5,17,5,12,0,0,1,TNEG,2290
1,2_vs_5,18,5,12,0,0,1,TNEG,1482
1,2_vs_5,19,5,3,0,0,1,TNEG,776
1,2_vs_5,20,5,18,0,0,1,TNEG,2741
1,2_vs_5,21,5,18,1,0,1,HIT,2141
1,2_vs_5,22,5,12,1,0,1,HIT,634
1,2_vs_5,23,5,12,0,0,1,TNEG,2874
1,2_vs_5,24,5,3,1,0,1,HIT,456
1,2_vs_5,25,5,6,0,0,1,TNEG,1542
1,2_vs_5,26,5,12,0,0,1,TNEG,1809
1,2_vs_5,27,5,18,1,0,1,HIT,1045
1,2_vs_5,28,5,3,0,0,1,TNEG,784
1,2_vs_5,29,5,3,1,0,1,HIT,544
1,2_vs_5,30,5,12,0,0,1,TNEG,1657
1,2_vs_5,31,5,6,0,0,1,TNEG,1605
1,2_vs_5,32,5,6,0,0,1,TNEG,662
1,2_vs_5,33,5,6,0,0,1,TNEG,1318
1,2_vs_5,34,5,3,0,0,1,TNEG,592
1,2_vs_5,35,5,6,0,0,1,TNEG,1222
1,2_vs_5,36,5,12,0,0,1,TNEG,2137
1,2_vs_5,37,5,12,0,0,1,TNEG,1817
1,2_vs_5,38,5,6,1,0,1,HIT,526
1,2_vs_5,39,5,6,1,0,1,HIT,533
1,2_vs_5,40,5,3,1,0,1,HIT,696
1,2_vs_5,41,5,12,0,0,1,TNEG,1992
1,2_vs_5,42,5,6,0,0,1,TNEG,1277
1,2_vs_5,43,5,6,1,0,1,HIT,861
1,2_vs_5,44,5,3,1,0,1,HIT,599
1,2_vs_5,45,5,3,0,0,1,TNEG,912
1,2_vs_5,46,5,18,1,0,1,HIT,811
1,2_vs_5,47,5,6,0,0,1,TNEG,2012
1,2_vs_5,48,5,18,1,0,1,HIT,2890
1,2_vs_5,49,5,18,0,0,1,TNEG,2378
1,2_vs_5,50,5,3,0,0,1,TNEG,671
1,2_vs_5,51,5,3,0,0,1,TNEG,696
1,2_vs_5,52,5,3,0,0,1,TNEG,631
1,2_vs_5,53,5,6,0,0,1,TNEG,1597
1,2_vs_5,54,5,18,0,0,1,TNEG,1898
1,2_vs_5,55,5,18,0,0,1,TNEG,3010
1,2_vs_5,56,5,3,0,0,1,TNEG,560
1,2_vs_5,57,5,12,1,0,1,HIT,2023
1,2_vs_5,58,5,6,1,0,1,HIT,733
1,2_vs_5,59,5,18,0,0,1,TNEG,3826
1,2_vs_5,60,5,3,1,0,1,HIT,551
1,2_vs_5,61,5,6,1,0,1,HIT,797
1,2_vs_5,62,5,6,1,0,1,HIT,853
1,2_vs_5,63,5,12,1,0,1,HIT,663
1,2_vs_5,64,5,18,0,0,1,TNEG,3242
1,2_vs_5,65,5,3,0,0,1,TNEG,759
1,2_vs_5,66,5,3,1,0,1,HIT,375
1,2_vs_5,67,5,6,1,0,1,HIT,917
1,2_vs_5,68,5,18,1,0,1,HIT,882
1,2_vs_5,69,5,3,1,0,1,HIT,615
1,2_vs_5,70,5,12,1,0,1,HIT,1135
1,2_vs_5,71,5,12,1,0,1,HIT,2280
1,2_vs_5,72,5,18,0,0,1,TNEG,2179
1,2_vs_5,73,5,18,0,0,1,TNEG,4059
1,2_vs_5,74,5,6,0,0,1,TNEG,1756
1,2_vs_5,75,5,6,0,0,1,TNEG,861
1,2_vs_5,76,5,3,0,0,1,TNEG,575
1,2_vs_5,77,5,18,0,0,1,TNEG,2186
1,2_vs_5,78,5,18,1,0,1,HIT,1746
1,2_vs_5,79,5,3,0,0,1,TNEG,839
1,2_vs_5,80,5,12,0,0,1,TNEG,1664
1,2_vs_5,81,5,12,1,0,1,HIT,584
1,2_vs_5,82,5,6,0,0,1,TNEG,1621
1,2_vs_5,83,5,3,1,0,1,HIT,655
1,2_vs_5,84,5,12,1,0,1,HIT,487
1,2_vs_5,85,5,18,0,0,1,TNEG,2626
1,2_vs_5,86,5,3,0,0,1,TNEG,672
1,2_vs_5,87,5,12,0,0,1,TNEG,1824
1,2_vs_5,88,5,12,0,0,1,TNEG,2079
1,2_vs_5,89,5,18,1,0,1,HIT,706
1,2_vs_5,90,5,6,1,0,1,HIT,652
1,2_vs_5,91,5,3,1,0,1,HIT,888
1,2_vs_5,92,5,3,0,0,1,TNEG,1159
1,2_vs_5,93,5,18,0,0,1,TNEG,3346
1,2_vs_5,94,5,12,1,0,1,HIT,1879
1,2_vs_5,95,5,12,1,0,1,HIT,575
1,2_vs_5,96,5,3,0,0,1,TNEG,792
1,2_vs_5,97,5,12,1,0,1,HIT,1416
1,2_vs_5,98,5,6,0,0,1,TNEG,1389
1,2_vs_5,99,5,3,1,0,1,HIT,423
1,2_vs_5,100,5,12,0,0,1,TNEG,1255
1,2_vs_5,101,5,6,0,0,1,TNEG,1293
1,2_vs_5,102,5,3,0,0,1,TNEG,591
1,2_vs_5,103,5,3,1,0,1,HIT,527
1,2_vs_5,104,5,3,0,0,1,TNEG,887
1,2_vs_5,105,5,18,1,0,1,HIT,643
1,2_vs_5,106,5,3,1,0,1,HIT,960
1,2_vs_5,107,5,3,0,0,1,TNEG,536
1,2_vs_5,108,5,3,0,0,1,TNEG,486
1,2_vs_5,109,5,3,0,0,1,TNEG,631
1,2_vs_5,110,5,3,0,0,1,TNEG,560
1,2_vs_5,111,5,3,0,0,1,TNEG,735
1,2_vs_5,112,5,12,0,0,1,TNEG,1784
1,2_vs_5,113,5,3,0,0,1,TNEG,719
1,2_vs_5,114,5,12,0,0,1,TNEG,2095
1,2_vs_5,115,5,6,1,0,1,HIT,1109
1,2_vs_5,116,5,6,1,0,1,HIT,724
1,2_vs_5,117,5,6,1,0,1,HIT,452
1,2_vs_5,118,5,3,0,0,1,TNEG,1008
1,2_vs_5,119,5,12,0,0,1,TNEG,1936
1,2_vs_5,120,5,12,1,0,1,HIT,1488
1,2_vs_5,121,5,6,1,0,1,HIT,1165
1,2_vs_5,122,5,6,0,0,1,TNEG,1165
1,2_vs_5,123,5,12,1,0,1,HIT,1135
1,2_vs_5,124,5,6,0,0,1,TNEG,1245
1,2_vs_5,125,5,18,0,0,1,TNEG,3306
1,2_vs_5,126,5,12,1,0,1,HIT,1855
1,2_vs_5,127,5,6,0,0,1,TNEG,1340
1,2_vs_5,128,5,18,0,0,1,TNEG,1322
1,2_vs_5,129,5,3,0,0,1,TNEG,576
1,2_vs_5,130,5,18,0,0,1,TNEG,2107
1,2_vs_5,131,5,12,1,0,1,HIT,1024
1,2_vs_5,132,5,6,1,0,1,HIT,1069
1,2_vs_5,133,5,6,1,0,1,HIT,965
1,2_vs_5,134,5,6,1,0,1,HIT,805
1,2_vs_5,135,5,6,0,0,1,TNEG,1805
1,2_vs_5,136,5,12,1,0,1,HIT,1439
1,2_vs_5,137,5,6,1,0,1,HIT,924
1,2_vs_5,138,5,3,0,0,1,TNEG,927
1,2_vs_5,139,5,12,1,0,1,HIT,1855
1,2_vs_5,140,5,6,1,0,1,HIT,693
1,2_vs_5,141,5,18,1,0,1,HIT,1435
1,2_vs_5,142,5,3,0,0,1,TNEG,935
1,2_vs_5,143,5,12,1,0,1,HIT,888
1,2_vs_5,144,5,6,0,0,1,TNEG,1077
1,2_vs_5,145,5,6,1,0,1,HIT,468
1,2_vs_5,146,5,12,1,0,1,HIT,1712
1,2_vs_5,147,5,12,0,0,1,TNEG,1695
1,2_vs_5,148,5,6,0,0,1,TNEG,1021
1,2_vs_5,149,5,12,1,0,1,HIT,1127
1,2_vs_5,150,5,6,1,0,1,HIT,485
1,2_vs_5,151,5,3,0,0,1,TNEG,671
1,2_vs_5,152,5,6,0,0,1,TNEG,1309
1,2_vs_5,153,5,18,0,0,1,TNEG,1930
1,2_vs_5,154,5,6,1,0,1,HIT,845
1,2_vs_5,155,5,18,0,0,1,TNEG,2825
1,2_vs_5,156,5,3,0,0,1,TNEG,558
1,2_vs_5,157,5,18,0,0,1,TNEG,1594
1,2_vs_5,158,5,3,1,0,1,HIT,823
1,2_vs_5,159,5,6,1,0,1,HIT,612
1,2_vs_5,160,5,6,0,0,1,TNEG,717
1,2_vs_5,161,5,18,1,0,1,HIT,458
1,2_vs_5,162,5,12,0,0,1,TNEG,1479
1,2_vs_5,163,5,6,0,0,1,TNEG,1061
1,2_vs_5,164,5,3,0,0,1,TNEG,959
1,2_vs_5,165,5,6,1,0,1,HIT,516
1,2_vs_5,166,5,12,1,0,1,HIT,520
1,2_vs_5,167,5,6,0,0,1,TNEG,836
1,2_vs_5,168,5,12,0,0,1,TNEG,1232
1,2_vs_5,169,5,12,0,0,1,TNEG,1183
1,2_vs_5,170,5,18,1,0,1,HIT,658
1,2_vs_5,171,5,6,1,0,1,HIT,836
1,2_vs_5,172,5,6,0,0,1,TNEG,1765
1,2_vs_5,173,5,18,1,0,1,HIT,1746
1,2_vs_5,174,5,18,1,0,1,HIT,890
1,2_vs_5,175,5,3,1,0,1,HIT,520
1,2_vs_5,176,5,18,1,0,1,HIT,2203
1,2_vs_5,177,5,6,1,0,1,HIT,988
1,2_vs_5,178,5,18,0,0,1,TNEG,1922
1,2_vs_5,179,5,3,0,0,1,TNEG,519
1,2_vs_5,180,5,18,0,0,1,TNEG,3970
1,2_vs_5,181,5,18,0,0,1,TNEG,1874
1,2_vs_5,182,5,6,1,0,1,HIT,717
1,2_vs_5,183,5,3,1,0,1,HIT,615
1,2_vs_5,184,5,18,1,0,1,HIT,970
1,2_vs_5,185,5,3,1,0,1,HIT,551
1,2_vs_5,186,5,3,0,0,1,TNEG,639
1,2_vs_5,187,5,6,1,0,1,HIT,908
1,2_vs_5,188,5,18,1,0,1,HIT,1307
1,2_vs_5,189,5,12,1,0,1,HIT,1775
1,2_vs_5,190,5,6,0,0,1,TNEG,1172
1,2_vs_5,191,5,3,1,0,1,HIT,687
1,2_vs_5,192,5,3,1,0,1,HIT,455
1,2_vs_5,193,5,6,0,0,1,TNEG,1325
1,2_vs_5,194,5,6,0,0,1,TNEG,1796
1,2_vs_5,195,5,3,0,0,1,TNEG,632
1,2_vs_5,196,5,6,0,0,1,TNEG,1356
1,2_vs_5,197,5,3,1,0,1,HIT,495
1,2_vs_5,198,5,12,1,0,1,HIT,888
1,2_vs_5,199,5,18,1,0,1,HIT,594
1,2_vs_5,200,5,12,0,0,1,TNEG,2200
1,2_vs_5,201,5,18,0,0,1,TNEG,6506
1,2_vs_5,202,5,3,1,0,1,HIT,782
1,2_vs_5,203,5,6,1,0,1,HIT,540
1,2_vs_5,204,5,12,1,0,1,HIT,1160
1,2_vs_5,205,5,3,1,0,1,HIT,471
1,2_vs_5,206,5,12,0,0,1,TNEG,1384
1,2_vs_5,207,5,12,0,0,1,TNEG,1695
1,2_vs_5,208,5,12,0,0,1,TNEG,1552
1,2_vs_5,209,5,12,1,0,1,HIT,455
1,2_vs_5,210,5,18,0,0,1,TNEG,1499
1,2_vs_5,211,5,3,1,0,1,HIT,495
1,2_vs_5,212,5,6,1,0,1,HIT,468
1,2_vs_5,213,5,18,0,0,1,TNEG,1050
1,2_vs_5,214,5,6,0,0,1,TNEG,988
1,2_vs_5,215,5,3,1,0,1,HIT,815
1,2_vs_5,216,5,18,0,0,1,TNEG,1378
1,2_vs_5,217,5,3,0,0,1,TNEG,728
1,2_vs_5,218,5,18,0,0,1,TNEG,1363
1,2_vs_5,219,5,6,0,0,1,TNEG,1060
1,2_vs_5,220,5,3,1,0,1,HIT,703
1,2_vs_5,221,5,18,0,0,1,TNEG,1115
1,2_vs_5,222,5,18,0,0,1,TNEG,1563
1,2_vs_5,223,5,18,1,0,1,HIT,1018
1,2_vs_5,224,5,3,0,0,1,TNEG,823
1,2_vs_5,225,5,18,0,0,1,TNEG,1226
1,2_vs_5,226,5,12,1,0,1,HIT,1359
1,2_vs_5,227,5,12,0,0,1,TNEG,1544
1,2_vs_5,228,5,18,0,0,1,TNEG,1387
1,2_vs_5,229,5,12,1,0,1,HIT,519
1,2_vs_5,230,5,6,1,0,1,HIT,460
1,2_vs_5,231,5,12,1,1,0,MISS,1103
1,2_vs_5,232,5,12,0,0,1,TNEG,1736
1,2_vs_5,233,5,3,1,0,1,HIT,407
1,2_vs_5,234,5,12,0,0,1,TNEG,1552
1,2_vs_5,235,5,18,1,0,1,HIT,562
1,2_vs_5,236,5,18,0,0,1,TNEG,1434
1,2_vs_5,237,5,6,0,1,0,FA,740
1,2_vs_5,238,5,18,0,0,1,TNEG,1946
1,2_vs_5,239,5,6,1,0,1,HIT,1197
1,2_vs_5,240,5,12,0,0,1,TNEG,2200
1,2_vs_5,241,5,12,0,0,1,TNEG,1607
1,2_vs_5,242,5,12,0,0,1,TNEG,1591
1,2_vs_5,243,5,6,1,0,1,HIT,1059
1,2_vs_5,244,5,6,1,0,1,HIT,540
1,2_vs_5,245,5,18,1,0,1,HIT,1562
1,2_vs_5,246,5,3,0,0,1,TNEG,863
1,2_vs_5,247,5,3,0,0,1,TNEG,727
1,2_vs_5,248,5,3,1,0,1,HIT,519
1,2_vs_5,249,5,12,0,0,1,TNEG,2048
1,2_vs_5,250,5,3,0,0,1,TNEG,879
1,2_vs_5,251,5,6,0,0,1,TNEG,893
1,2_vs_5,252,5,6,1,0,1,HIT,1205
1,2_vs_5,253,5,6,0,0,1,TNEG,1389
1,2_vs_5,254,5,6,1,0,1,HIT,780
1,2_vs_5,255,5,12,0,0,1,TNEG,2511
1,2_vs_5,256,5,6,0,0,1,TNEG,1924
1,2_vs_5,257,5,12,0,0,1,TNEG,2000
1,2_vs_5,258,5,6,1,0,1,HIT,661
1,2_vs_5,259,5,6,1,0,1,HIT,941
1,2_vs_5,260,5,6,1,0,1,HIT,693
1,2_vs_5,261,5,6,0,0,1,TNEG,813
1,2_vs_5,262,5,12,1,0,1,HIT,999
1,2_vs_5,263,5,18,0,0,1,TNEG,2450
1,2_vs_5,264,5,6,1,0,1,HIT,1117
1,2_vs_5,265,5,12,0,0,1,TNEG,1415
1,2_vs_5,266,5,3,1,0,1,HIT,383
1,2_vs_5,267,5,12,0,0,1,TNEG,1407
1,2_vs_5,268,5,3,1,0,1,HIT,383
1,2_vs_5,269,5,18,0,0,1,TNEG,2634
1,2_vs_5,270,5,6,1,0,1,HIT,1060
1,2_vs_5,271,5,3,1,0,1,HIT,735
1,2_vs_5,272,5,18,1,0,1,HIT,1226
1,2_vs_5,273,5,12,0,0,1,TNEG,1352
1,2_vs_5,274,5,12,1,0,1,HIT,559
1,2_vs_5,275,5,3,1,0,1,HIT,471
1,2_vs_5,276,5,6,1,0,1,HIT,717
1,2_vs_5,277,5,18,0,0,1,TNEG,2019
1,2_vs_5,278,5,3,0,1,0,FA,664
1,2_vs_5,279,5,18,1,0,1,HIT,1994
1,2_vs_5,280,5,18,0,0,1,TNEG,2138
1,2_vs_5,281,5,6,0,0,1,TNEG,908
1,2_vs_5,282,5,3,1,0,1,HIT,888
1,2_vs_5,283,5,3,1,0,1,HIT,487
1,2_vs_5,284,5,12,1,0,1,HIT,527
1,2_vs_5,285,5,12,1,0,1,HIT,615
1,2_vs_5,286,5,12,0,0,1,TNEG,1632
1,2_vs_5,287,5,18,1,1,0,MISS,1586
1,2_vs_5,288,5,18,0,0,1,TNEG,2274
1,2_vs_5,289,5,18,1,0,1,HIT,834
1,2_vs_5,290,5,3,0,0,1,TNEG,927
1,2_vs_5,291,5,6,1,0,1,HIT,1037
1,2_vs_5,292,5,3,0,0,1,TNEG,936
1,2_vs_5,293,5,6,0,0,1,TNEG,1773
1,2_vs_5,294,5,18,1,1,0,MISS,1746
1,2_vs_5,295,5,6,1,0,1,HIT,597
1,2_vs_5,296,5,6,1,0,1,HIT,597
1,2_vs_5,297,5,18,1,0,1,HIT,1650
1,2_vs_5,298,5,18,0,0,1,TNEG,2522
1,2_vs_5,299,5,12,0,0,1,TNEG,1672
1,2_vs_5,300,5,12,0,0,1,TNEG,2231
1,2_vs_5,1,6,18,0,0,1,TNEG,2097
1,2_vs_5,2,6,3,1,1,0,MISS,511
1,2_vs_5,3,6,12,1,0,1,HIT,1611
1,2_vs_5,4,6,18,1,0,1,HIT,1048
1,2_vs_5,5,6,3,0,0,1,TNEG,658
1,2_vs_5,6,6,12,1,0,1,HIT,771
1,2_vs_5,7,6,12,1,0,1,HIT,475
1,2_vs_5,8,6,6,0,0,1,TNEG,863
1,2_vs_5,9,6,6,0,0,1,TNEG,996
1,2_vs_5,10,6,12,0,0,1,TNEG,1450
1,2_vs_5,11,6,3,0,0,1,TNEG,554
1,2_vs_5,12,6,3,1,0,1,HIT,425
1,2_vs_5,13,6,18,1,0,1,HIT,1270
1,2_vs_5,14,6,12,0,0,1,TNEG,1523
1,2_vs_5,15,6,3,1,0,1,HIT,465
1,2_vs_5,16,6,6,0,0,1,TNEG,911
1,2_vs_5,17,6,12,1,0,1,HIT,1122
1,2_vs_5,18,6,6,1,0,1,HIT,599
1,2_vs_5,19,6,12,1,0,1,HIT,1426
1,2_vs_5,20,6,12,1,0,1,HIT,466
1,2_vs_5,21,6,12,0,0,1,TNEG,1207
1,2_vs_5,22,6,18,0,0,1,TNEG,1702
1,2_vs_5,23,6,6,1,0,1,HIT,982
1,2_vs_5,24,6,6,1,0,1,HIT,407
1,2_vs_5,25,6,3,0,0,1,TNEG,593
1,2_vs_5,26,6,3,1,0,1,HIT,735
1,2_vs_5,27,6,18,1,0,1,HIT,589
1,2_vs_5,28,6,18,0,0,1,TNEG,1829
1,2_vs_5,29,6,12,0,0,1,TNEG,2097
1,2_vs_5,30,6,3,1,0,1,HIT,472
1,2_vs_5,31,6,3,1,0,1,HIT,457
1,2_vs_5,32,6,3,1,0,1,HIT,409
1,2_vs_5,33,6,18,1,0,1,HIT,852
1,2_vs_5,34,6,18,1,0,1,HIT,413
1,2_vs_5,35,6,18,1,0,1,HIT,1932
1,2_vs_5,36,6,3,0,0,1,TNEG,552
1,2_vs_5,37,6,6,1,0,1,HIT,781
1,2_vs_5,38,6,3,0,0,1,TNEG,553
1,2_vs_5,39,6,18,1,0,1,HIT,780
1,2_vs_5,40,6,6,0,0,1,TNEG,910
1,2_vs_5,41,6,18,0,0,1,TNEG,1780
1,2_vs_5,42,6,6,0,0,1,TNEG,894
1,2_vs_5,43,6,12,0,0,1,TNEG,2097
1,2_vs_5,44,6,6,1,0,1,HIT,502
1,2_vs_5,45,6,3,0,0,1,TNEG,584
1,2_vs_5,46,6,6,0,0,1,TNEG,1294
1,2_vs_5,47,6,6,0,0,1,TNEG,613
1,2_vs_5,48,6,12,1,0,1,HIT,928
1,2_vs_5,49,6,18,1,0,1,HIT,691
1,2_vs_5,50,6,3,0,0,1,TNEG,768
1,2_vs_5,51,6,3,1,0,1,HIT,520
1,2_vs_5,52,6,18,0,0,1,TNEG,1842
1,2_vs_5,53,6,6,0,0,1,TNEG,901
1,2_vs_5,54,6,6,1,0,1,HIT,686
1,2_vs_5,55,6,3,0,0,1,TNEG,784
1,2_vs_5,56,6,3,1,0,1,HIT,504
1,2_vs_5,57,6,6,1,0,1,HIT,429
1,2_vs_5,58,6,12,0,0,1,TNEG,1785
1,2_vs_5,59,6,6,0,0,1,TNEG,837
1,2_vs_5,60,6,6,0,0,1,TNEG,958
1,2_vs_5,61,6,3,1,0,1,HIT,624
1,2_vs_5,62,6,6,0,0,1,TNEG,1118
1,2_vs_5,63,6,6,1,0,1,HIT,981
1,2_vs_5,64,6,18,0,0,1,TNEG,2155
1,2_vs_5,65,6,6,1,0,1,HIT,645
1,2_vs_5,66,6,3,0,0,1,TNEG,608
1,2_vs_5,67,6,3,0,0,1,TNEG,584
1,2_vs_5,68,6,6,0,0,1,TNEG,933
1,2_vs_5,69,6,3,0,0,1,TNEG,823
1,2_vs_5,70,6,6,0,0,1,TNEG,1069
1,2_vs_5,71,6,6,1,0,1,HIT,630
1,2_vs_5,72,6,6,1,0,1,HIT,669
1,2_vs_5,73,6,3,1,0,1,HIT,448
1,2_vs_5,74,6,12,1,0,1,HIT,808
1,2_vs_5,75,6,6,0,0,1,TNEG,1206
1,2_vs_5,76,6,18,0,0,1,TNEG,1842
1,2_vs_5,77,6,18,1,0,1,HIT,1434
1,2_vs_5,78,6,6,0,0,1,TNEG,870
1,2_vs_5,79,6,18,0,0,1,TNEG,2434
1,2_vs_5,80,6,6,0,0,1,TNEG,1069
1,2_vs_5,81,6,18,1,0,1,HIT,1515
1,2_vs_5,82,6,6,1,0,1,HIT,462
1,2_vs_5,83,6,12,0,0,1,TNEG,1504
1,2_vs_5,84,6,3,1,0,1,HIT,487
1,2_vs_5,85,6,3,1,0,1,HIT,440
1,2_vs_5,86,6,12,0,0,1,TNEG,1808
1,2_vs_5,87,6,3,0,0,1,TNEG,1672
1,2_vs_5,88,6,12,1,0,1,HIT,632
1,2_vs_5,89,6,12,0,0,1,TNEG,2056
1,2_vs_5,90,6,3,0,0,1,TNEG,521
1,2_vs_5,91,6,3,0,0,1,TNEG,654
1,2_vs_5,92,6,3,1,0,1,HIT,711
1,2_vs_5,93,6,12,1,0,1,HIT,1080
1,2_vs_5,94,6,18,0,0,1,TNEG,1923
1,2_vs_5,95,6,18,0,0,1,TNEG,2298
1,2_vs_5,96,6,3,1,0,1,HIT,744
1,2_vs_5,97,6,12,0,0,1,TNEG,1472
1,2_vs_5,98,6,18,0,0,1,TNEG,2139
1,2_vs_5,99,6,6,1,0,1,HIT,1365
1,2_vs_5,100,6,6,1,0,1,HIT,430
1,2_vs_5,101,6,3,0,0,1,TNEG,536
1,2_vs_5,102,6,12,1,0,1,HIT,832
1,2_vs_5,103,6,12,1,0,1,HIT,1272
1,2_vs_5,104,6,3,0,0,1,TNEG,512
1,2_vs_5,105,6,18,0,0,1,TNEG,2315
1,2_vs_5,106,6,6,0,0,1,TNEG,830
1,2_vs_5,107,6,3,0,0,1,TNEG,544
1,2_vs_5,108,6,18,0,0,1,TNEG,2497
1,2_vs_5,109,6,3,0,0,1,TNEG,888
1,2_vs_5,110,6,3,0,0,1,TNEG,528
1,2_vs_5,111,6,18,1,0,1,HIT,1259
1,2_vs_5,112,6,12,1,0,1,HIT,504
1,2_vs_5,113,6,12,0,0,1,TNEG,2024
1,2_vs_5,114,6,12,0,0,1,TNEG,2232
1,2_vs_5,115,6,12,0,0,1,TNEG,896
1,2_vs_5,116,6,18,1,0,1,HIT,594
1,2_vs_5,117,6,12,0,0,1,TNEG,1953
1,2_vs_5,118,6,18,1,0,1,HIT,1235
1,2_vs_5,119,6,18,1,0,1,HIT,1987
1,2_vs_5,120,6,6,0,0,1,TNEG,1853
1,2_vs_5,121,6,6,0,0,1,TNEG,1069
1,2_vs_5,122,6,18,0,0,1,TNEG,2243
1,2_vs_5,123,6,6,1,0,1,HIT,613
1,2_vs_5,124,6,12,0,0,1,TNEG,1727
1,2_vs_5,125,6,3,1,0,1,HIT,552
1,2_vs_5,126,6,18,0,0,1,TNEG,1555
1,2_vs_5,127,6,18,1,0,1,HIT,539
1,2_vs_5,128,6,3,1,0,1,HIT,456
1,2_vs_5,129,6,12,1,0,1,HIT,1072
1,2_vs_5,130,6,18,0,0,1,TNEG,1579
1,2_vs_5,131,6,18,1,0,1,HIT,539
1,2_vs_5,132,6,3,0,0,1,TNEG,584
1,2_vs_5,133,6,6,1,0,1,HIT,525
1,2_vs_5,134,6,18,0,0,1,TNEG,1771
1,2_vs_5,135,6,3,0,0,1,TNEG,560
1,2_vs_5,136,6,18,1,0,1,HIT,1323
1,2_vs_5,137,6,6,0,0,1,TNEG,853
1,2_vs_5,138,6,12,1,0,1,HIT,456
1,2_vs_5,139,6,18,1,0,1,HIT,651
1,2_vs_5,140,6,3,1,0,1,HIT,536
1,2_vs_5,141,6,12,0,1,0,FA,921
1,2_vs_5,142,6,3,1,0,1,HIT,438
1,2_vs_5,143,6,18,0,0,1,TNEG,1322
1,2_vs_5,144,6,6,0,0,1,TNEG,965
1,2_vs_5,145,6,6,1,0,1,HIT,1102
1,2_vs_5,146,6,6,1,0,1,HIT,701
1,2_vs_5,147,6,12,1,0,1,HIT,1320
1,2_vs_5,148,6,3,1,0,1,HIT,456
1,2_vs_5,149,6,18,0,0,1,TNEG,1763
1,2_vs_5,150,6,6,1,0,1,HIT,620
1,2_vs_5,151,6,3,0,0,1,TNEG,496
1,2_vs_5,152,6,6,1,0,1,HIT,453
1,2_vs_5,153,6,18,1,0,1,HIT,1371
1,2_vs_5,154,6,12,0,0,1,TNEG,1960
1,2_vs_5,155,6,3,1,0,1,HIT,391
1,2_vs_5,156,6,3,0,0,1,TNEG,608
1,2_vs_5,157,6,12,0,0,1,TNEG,1169
1,2_vs_5,158,6,12,0,0,1,TNEG,1760
1,2_vs_5,159,6,18,0,0,1,TNEG,1651
1,2_vs_5,160,6,3,0,0,1,TNEG,616
1,2_vs_5,161,6,18,1,0,1,HIT,587
1,2_vs_5,162,6,6,0,0,1,TNEG,910
1,2_vs_5,163,6,3,1,0,1,HIT,776
1,2_vs_5,164,6,3,0,0,1,TNEG,552
1,2_vs_5,165,6,6,0,0,1,TNEG,638
1,2_vs_5,166,6,12,0,0,1,TNEG,720
1,2_vs_5,167,6,3,1,0,1,HIT,488
1,2_vs_5,168,6,6,0,0,1,TNEG,781
1,2_vs_5,169,6,3,1,0,1,HIT,839
1,2_vs_5,170,6,3,0,0,1,TNEG,544
1,2_vs_5,171,6,6,0,0,1,TNEG,766
1,2_vs_5,172,6,3,1,0,1,HIT,488
1,2_vs_5,173,6,12,0,0,1,TNEG,1761
1,2_vs_5,174,6,6,0,0,1,TNEG,629
1,2_vs_5,175,6,12,0,0,1,TNEG,872
1,2_vs_5,176,6,6,0,0,1,TNEG,749
1,2_vs_5,177,6,18,0,0,1,TNEG,1723
1,2_vs_5,178,6,6,1,0,1,HIT,541
1,2_vs_5,179,6,3,1,0,1,HIT,560
1,2_vs_5,180,6,18,1,0,1,HIT,579
1,2_vs_5,181,6,3,0,0,1,TNEG,583
1,2_vs_5,182,6,12,1,0,1,HIT,1696
1,2_vs_5,183,6,18,1,0,1,HIT,1075
1,2_vs_5,184,6,18,0,0,1,TNEG,1875
1,2_vs_5,185,6,18,1,0,1,HIT,1163
1,2_vs_5,186,6,12,1,0,1,HIT,1768
1,2_vs_5,187,6,12,0,0,1,TNEG,1496
1,2_vs_5,188,6,18,0,0,1,TNEG,2035
1,2_vs_5,189,6,12,0,0,1,TNEG,1720
1,2_vs_5,190,6,6,0,0,1,TNEG,1542
1,2_vs_5,191,6,18,1,0,1,HIT,659
1,2_vs_5,192,6,12,1,0,1,HIT,520
1,2_vs_5,193,6,6,0,0,1,TNEG,1229
1,2_vs_5,194,6,6,1,0,1,HIT,516
1,2_vs_5,195,6,3,0,0,1,TNEG,704
1,2_vs_5,196,6,12,1,0,1,HIT,536
1,2_vs_5,197,6,18,1,0,1,HIT,1275
1,2_vs_5,198,6,18,1,0,1,HIT,947
1,2_vs_5,199,6,18,1,0,1,HIT,867
1,2_vs_5,200,6,6,1,0,1,HIT,445
1,2_vs_5,201,6,18,0,0,1,TNEG,1034
1,2_vs_5,202,6,18,1,0,1,HIT,579
1,2_vs_5,203,6,12,1,0,1,HIT,1376
1,2_vs_5,204,6,3,1,1,0,MISS,656
1,2_vs_5,205,6,6,0,0,1,TNEG,878
1,2_vs_5,206,6,12,0,0,1,TNEG,1672
1,2_vs_5,207,6,6,0,0,1,TNEG,981
1,2_vs_5,208,6,18,0,0,1,TNEG,1835
1,2_vs_5,209,6,6,1,0,1,HIT,741
1,2_vs_5,210,6,18,1,0,1,HIT,843
1,2_vs_5,211,6,18,0,0,1,TNEG,1971
1,2_vs_5,212,6,3,0,0,1,TNEG,592
1,2_vs_5,213,6,3,0,1,0,FA,696
1,2_vs_5,214,6,12,1,0,1,HIT,2136
1,2_vs_5,215,6,18,0,0,1,TNEG,1651
1,2_vs_5,216,6,3,0,0,1,TNEG,527
1,2_vs_5,217,6,6,1,0,1,HIT,622
1,2_vs_5,218,6,6,1,0,1,HIT,974
1,2_vs_5,219,6,3,0,0,1,TNEG,656
1,2_vs_5,220,6,18,0,0,1,TNEG,2451
1,2_vs_5,221,6,12,0,0,1,TNEG,1408
1,2_vs_5,222,6,3,1,0,1,HIT,648
1,2_vs_5,223,6,18,1,0,1,HIT,1538
1,2_vs_5,224,6,6,0,0,1,TNEG,1302
1,2_vs_5,225,6,3,0,0,1,TNEG,736
1,2_vs_5,226,6,6,0,0,1,TNEG,989
1,2_vs_5,227,6,12,1,0,1,HIT,808
1,2_vs_5,228,6,6,1,0,1,HIT,685
1,2_vs_5,229,6,6,0,0,1,TNEG,965
1,2_vs_5,230,6,6,0,0,1,TNEG,965
1,2_vs_5,231,6,18,0,0,1,TNEG,1739
1,2_vs_5,232,6,3,0,0,1,TNEG,887
1,2_vs_5,233,6,18,0,0,1,TNEG,1859
1,2_vs_5,234,6,3,0,0,1,TNEG,784
1,2_vs_5,235,6,3,0,0,1,TNEG,720
1,2_vs_5,236,6,18,1,0,1,HIT,1099
1,2_vs_5,237,6,3,1,0,1,HIT,520
1,2_vs_5,238,6,18,1,0,1,HIT,963
1,2_vs_5,239,6,18,1,0,1,HIT,1682
1,2_vs_5,240,6,12,0,0,1,TNEG,1936
1,2_vs_5,241,6,18,1,0,1,HIT,2643
1,2_vs_5,242,6,3,0,0,1,TNEG,1096
1,2_vs_5,243,6,12,1,0,1,HIT,1456
1,2_vs_5,244,6,12,1,0,1,HIT,752
1,2_vs_5,245,6,18,1,0,1,HIT,2507
1,2_vs_5,246,6,12,1,0,1,HIT,1392
1,2_vs_5,247,6,12,1,0,1,HIT,1616
1,2_vs_5,248,6,18,0,0,1,TNEG,2172
1,2_vs_5,249,6,12,1,0,1,HIT,608
1,2_vs_5,250,6,3,0,0,1,TNEG,808
1,2_vs_5,251,6,6,1,0,1,HIT,486
1,2_vs_5,252,6,12,1,0,1,HIT,1536
1,2_vs_5,253,6,18,0,1,0,FA,787
1,2_vs_5,254,6,3,1,0,1,HIT,488
1,2_vs_5,255,6,6,0,0,1,TNEG,781
1,2_vs_5,256,6,12,0,0,1,TNEG,1632
1,2_vs_5,257,6,18,0,0,1,TNEG,2515
1,2_vs_5,258,6,3,1,0,1,HIT,608
1,2_vs_5,259,6,18,1,0,1,HIT,1019
1,2_vs_5,260,6,3,0,0,1,TNEG,688
1,2_vs_5,261,6,3,0,0,1,TNEG,760
1,2_vs_5,262,6,12,1,0,1,HIT,600
1,2_vs_5,263,6,3,1,0,1,HIT,520
1,2_vs_5,264,6,3,1,0,1,HIT,518
1,2_vs_5,265,6,18,1,0,1,HIT,491
1,2_vs_5,266,6,6,0,0,1,TNEG,773
1,2_vs_5,267,6,3,0,0,1,TNEG,671
1,2_vs_5,268,6,6,0,0,1,TNEG,821
1,2_vs_5,269,6,3,0,0,1,TNEG,720
1,2_vs_5,270,6,6,1,0,1,HIT,813
1,2_vs_5,271,6,18,0,0,1,TNEG,2547
1,2_vs_5,272,6,3,0,0,1,TNEG,712
1,2_vs_5,273,6,18,1,0,1,HIT,1419
1,2_vs_5,274,6,6,0,0,1,TNEG,1230
1,2_vs_5,275,6,12,1,0,1,HIT,1496
1,2_vs_5,276,6,18,1,0,1,HIT,2027
1,2_vs_5,277,6,18,1,0,1,HIT,724
1,2_vs_5,278,6,12,0,0,1,TNEG,1225
1,2_vs_5,279,6,6,0,0,1,TNEG,766
1,2_vs_5,280,6,18,1,0,1,HIT,1058
1,2_vs_5,281,6,3,1,0,1,HIT,528
1,2_vs_5,282,6,18,0,0,1,TNEG,1571
1,2_vs_5,283,6,18,0,0,1,TNEG,2251
1,2_vs_5,284,6,12,0,0,1,TNEG,1104
1,2_vs_5,285,6,3,0,0,1,TNEG,920
1,2_vs_5,286,6,3,0,0,1,TNEG,591
1,2_vs_5,287,6,12,1,0,1,HIT,736
1,2_vs_5,288,6,18,1,0,1,HIT,1379
1,2_vs_5,289,6,6,1,0,1,HIT,507
1,2_vs_5,290,6,6,1,1,0,MISS,854
1,2_vs_5,291,6,12,0,0,1,TNEG,1880
1,2_vs_5,292,6,18,1,0,1,HIT,1251
1,2_vs_5,293,6,6,1,0,1,HIT,1061
1,2_vs_5,294,6,6,1,0,1,HIT,750
1,2_vs_5,295,6,3,0,0,1,TNEG,680
1,2_vs_5,296,6,12,0,0,1,TNEG,1776
1,2_vs_5,297,6,18,1,0,1,HIT,1075
1,2_vs_5,298,6,12,0,0,1,TNEG,1776
1,2_vs_5,299,6,12,0,0,1,TNEG,2896
1,2_vs_5,300,6,3,1,0,1,HIT,456
1,2_vs_5,1,7,6,0,0,1,TNEG,1305
1,2_vs_5,2,7,18,0,0,1,TNEG,2567
1,2_vs_5,3,7,18,1,0,1,HIT,2000
1,2_vs_5,4,7,12,1,0,1,HIT,1091
1,2_vs_5,5,7,18,0,0,1,TNEG,3471
1,2_vs_5,6,7,12,0,0,1,TNEG,1962
1,2_vs_5,7,7,18,1,0,1,HIT,1631
1,2_vs_5,8,7,12,0,0,1,TNEG,3331
1,2_vs_5,9,7,12,0,0,1,TNEG,2276
1,2_vs_5,10,7,6,1,0,1,HIT,591
1,2_vs_5,11,7,12,0,0,1,TNEG,1667
1,2_vs_5,12,7,12,1,0,1,HIT,955
1,2_vs_5,13,7,18,0,0,1,TNEG,2670
1,2_vs_5,14,7,3,0,0,1,TNEG,825
1,2_vs_5,15,7,3,0,0,1,TNEG,753
1,2_vs_5,16,7,12,0,0,1,TNEG,2034
1,2_vs_5,17,7,3,1,0,1,HIT,657
1,2_vs_5,18,7,12,1,0,1,HIT,995
1,2_vs_5,19,7,3,0,0,1,TNEG,577
1,2_vs_5,20,7,3,1,0,1,HIT,521
1,2_vs_5,21,7,6,0,0,1,TNEG,1207
1,2_vs_5,22,7,3,0,0,1,TNEG,529
1,2_vs_5,23,7,3,1,0,1,HIT,433
1,2_vs_5,24,7,6,1,0,1,HIT,935
1,2_vs_5,25,7,3,0,0,1,TNEG,537
1,2_vs_5,26,7,3,1,0,1,HIT,448
1,2_vs_5,27,7,3,0,0,1,TNEG,649
1,2_vs_5,28,7,12,0,0,1,TNEG,1826
1,2_vs_5,29,7,3,1,0,1,HIT,880
1,2_vs_5,30,7,18,1,0,1,HIT,917
1,2_vs_5,31,7,3,0,0,1,TNEG,777
1,2_vs_5,32,7,12,0,0,1,TNEG,2082
1,2_vs_5,33,7,18,1,0,1,HIT,812
1,2_vs_5,34,7,18,0,0,1,TNEG,3004
1,2_vs_5,35,7,18,0,0,1,TNEG,1459
1,2_vs_5,36,7,6,1,0,1,HIT,590
1,2_vs_5,37,7,18,1,1,0,MISS,1700
1,2_vs_5,38,7,6,0,0,1,TNEG,980
1,2_vs_5,39,7,18,0,0,1,TNEG,2068
1,2_vs_5,40,7,18,0,0,1,TNEG,2156
1,2_vs_5,41,7,6,0,0,1,TNEG,1133
1,2_vs_5,42,7,12,1,0,1,HIT,713
1,2_vs_5,43,7,18,1,0,1,HIT,1611
1,2_vs_5,44,7,12,0,0,1,TNEG,2024
1,2_vs_5,45,7,12,0,0,1,TNEG,2696
1,2_vs_5,46,7,6,1,0,1,HIT,734
1,2_vs_5,47,7,12,1,0,1,HIT,1568
1,2_vs_5,48,7,18,0,0,1,TNEG,2539
1,2_vs_5,49,7,6,1,0,1,HIT,766
1,2_vs_5,50,7,3,0,0,1,TNEG,943
1,2_vs_5,51,7,6,0,0,1,TNEG,1254
1,2_vs_5,52,7,6,0,0,1,TNEG,869
1,2_vs_5,53,7,18,0,0,1,TNEG,2555
1,2_vs_5,54,7,18,0,0,1,TNEG,3099
1,2_vs_5,55,7,3,1,0,1,HIT,504
1,2_vs_5,56,7,18,0,0,1,TNEG,2044
1,2_vs_5,57,7,3,0,0,1,TNEG,544
1,2_vs_5,58,7,3,0,0,1,TNEG,774
1,2_vs_5,59,7,18,0,0,1,TNEG,2003
1,2_vs_5,60,7,3,1,0,1,HIT,575
1,2_vs_5,61,7,3,0,0,1,TNEG,944
1,2_vs_5,62,7,6,1,0,1,HIT,557
1,2_vs_5,63,7,3,1,0,1,HIT,584
1,2_vs_5,64,7,6,0,0,1,TNEG,1109
1,2_vs_5,65,7,6,1,0,1,HIT,765
1,2_vs_5,66,7,3,0,0,1,TNEG,576
1,2_vs_5,67,7,12,1,0,1,HIT,1048
1,2_vs_5,68,7,6,1,0,1,HIT,861
1,2_vs_5,69,7,6,1,0,1,HIT,653
1,2_vs_5,70,7,18,1,0,1,HIT,1171
1,2_vs_5,71,7,6,1,0,1,HIT,1086
1,2_vs_5,72,7,18,0,0,1,TNEG,2620
1,2_vs_5,73,7,6,1,0,1,HIT,1174
1,2_vs_5,74,7,3,0,0,1,TNEG,848
1,2_vs_5,75,7,3,1,0,1,HIT,560
1,2_vs_5,76,7,3,1,0,1,HIT,480
1,2_vs_5,77,7,18,1,0,1,HIT,1220
1,2_vs_5,78,7,12,0,0,1,TNEG,2096
1,2_vs_5,79,7,12,1,0,1,HIT,760
1,2_vs_5,80,7,6,0,0,1,TNEG,1278
1,2_vs_5,81,7,12,1,0,1,HIT,456
1,2_vs_5,82,7,12,0,0,1,TNEG,1856
1,2_vs_5,83,7,12,0,0,1,TNEG,1848
1,2_vs_5,84,7,12,0,0,1,TNEG,1744
1,2_vs_5,85,7,12,1,0,1,HIT,768
1,2_vs_5,86,7,6,0,0,1,TNEG,1069
1,2_vs_5,87,7,12,1,0,1,HIT,776
1,2_vs_5,88,7,12,0,0,1,TNEG,1312
1,2_vs_5,89,7,3,1,0,1,HIT,592
1,2_vs_5,90,7,18,0,0,1,TNEG,2795
1,2_vs_5,91,7,18,0,0,1,TNEG,1274
1,2_vs_5,92,7,12,0,0,1,TNEG,1879
1,2_vs_5,93,7,6,1,0,1,HIT,724
1,2_vs_5,94,7,6,0,0,1,TNEG,950
1,2_vs_5,95,7,6,1,0,1,HIT,885
1,2_vs_5,96,7,6,1,0,1,HIT,1142
1,2_vs_5,97,7,12,1,0,1,HIT,624
1,2_vs_5,98,7,12,0,0,1,TNEG,1640
1,2_vs_5,99,7,12,1,0,1,HIT,664
1,2_vs_5,100,7,18,0,0,1,TNEG,3195
1,2_vs_5,101,7,3,1,0,1,HIT,752
1,2_vs_5,102,7,3,0,0,1,TNEG,896
1,2_vs_5,103,7,18,1,0,1,HIT,635
1,2_vs_5,104,7,18,1,0,1,HIT,1107
1,2_vs_5,105,7,3,0,0,1,TNEG,904
1,2_vs_5,106,7,3,0,0,1,TNEG,784
1,2_vs_5,107,7,6,0,0,1,TNEG,1301
1,2_vs_5,108,7,3,1,0,1,HIT,783
1,2_vs_5,109,7,18,1,0,1,HIT,1011
1,2_vs_5,110,7,6,0,0,1,TNEG,1309
1,2_vs_5,111,7,18,0,0,1,TNEG,2931
1,2_vs_5,112,7,12,1,0,1,HIT,544
1,2_vs_5,113,7,3,1,0,1,HIT,679
1,2_vs_5,114,7,6,1,1,0,MISS,957
1,2_vs_5,115,7,18,1,0,1,HIT,1587
1,2_vs_5,116,7,6,1,0,1,HIT,1261
1,2_vs_5,117,7,18,0,0,1,TNEG,3923
1,2_vs_5,118,7,3,1,0,1,HIT,792
1,2_vs_5,119,7,3,1,0,1,HIT,512
1,2_vs_5,120,7,12,0,0,1,TNEG,1392
1,2_vs_5,121,7,6,0,0,1,TNEG,1397
1,2_vs_5,122,7,6,1,0,1,HIT,510
1,2_vs_5,123,7,18,1,0,1,HIT,1435
1,2_vs_5,124,7,6,1,0,1,HIT,885
1,2_vs_5,125,7,3,1,0,1,HIT,504
1,2_vs_5,126,7,6,0,0,1,TNEG,1006
1,2_vs_5,127,7,18,1,0,1,HIT,1699
1,2_vs_5,128,7,12,1,0,1,HIT,960
1,2_vs_5,129,7,18,0,0,1,TNEG,1538
1,2_vs_5,130,7,6,0,0,1,TNEG,1196
1,2_vs_5,131,7,18,0,0,1,TNEG,1787
1,2_vs_5,132,7,3,1,0,1,HIT,542
1,2_vs_5,133,7,6,0,0,1,TNEG,1029
1,2_vs_5,134,7,3,0,0,1,TNEG,528
1,2_vs_5,135,7,18,1,0,1,HIT,554
1,2_vs_5,136,7,6,1,0,1,HIT,486
1,2_vs_5,137,7,3,1,0,1,HIT,808
1,2_vs_5,138,7,3,0,0,1,TNEG,840
1,2_vs_5,139,7,6,0,0,1,TNEG,1006
1,2_vs_5,140,7,18,1,0,1,HIT,2459
1,2_vs_5,141,7,18,1,0,1,HIT,1419
1,2_vs_5,142,7,6,1,0,1,HIT,533
1,2_vs_5,143,7,12,1,0,1,HIT,1904
1,2_vs_5,144,7,18,0,1,0,FA,2610
1,2_vs_5,145,7,6,0,0,1,TNEG,733
1,2_vs_5,146,7,6,0,0,1,TNEG,997
1,2_vs_5,147,7,12,0,0,1,TNEG,2088
1,2_vs_5,148,7,18,1,0,1,HIT,611
1,2_vs_5,149,7,3,0,0,1,TNEG,1095
1,2_vs_5,150,7,18,1,0,1,HIT,914
1,2_vs_5,151,7,18,0,0,1,TNEG,1514
1,2_vs_5,152,7,3,0,0,1,TNEG,719
1,2_vs_5,153,7,18,0,0,1,TNEG,2434
1,2_vs_5,154,7,3,0,0,1,TNEG,760
1,2_vs_5,155,7,12,1,0,1,HIT,832
1,2_vs_5,156,7,18,1,0,1,HIT,1131
1,2_vs_5,157,7,12,0,0,1,TNEG,1912
1,2_vs_5,158,7,18,0,0,1,TNEG,1867
1,2_vs_5,159,7,6,0,0,1,TNEG,1405
1,2_vs_5,160,7,18,1,0,1,HIT,850
1,2_vs_5,161,7,12,0,0,1,TNEG,2536
1,2_vs_5,162,7,6,0,0,1,TNEG,1053
1,2_vs_5,163,7,3,0,0,1,TNEG,920
1,2_vs_5,164,7,6,0,0,1,TNEG,997
1,2_vs_5,165,7,6,1,0,1,HIT,845
1,2_vs_5,166,7,12,1,0,1,HIT,1417
1,2_vs_5,167,7,6,0,0,1,TNEG,1117
1,2_vs_5,168,7,12,0,1,0,FA,1968
1,2_vs_5,169,7,3,1,0,1,HIT,648
1,2_vs_5,170,7,3,1,0,1,HIT,472
1,2_vs_5,171,7,3,1,0,1,HIT,704
1,2_vs_5,172,7,3,1,0,1,HIT,880
1,2_vs_5,173,7,6,0,0,1,TNEG,942
1,2_vs_5,174,7,6,0,0,1,TNEG,1053
1,2_vs_5,175,7,18,0,0,1,TNEG,2339
1,2_vs_5,176,7,18,1,0,1,HIT,1363
1,2_vs_5,177,7,3,0,0,1,TNEG,784
1,2_vs_5,178,7,6,1,0,1,HIT,708
1,2_vs_5,179,7,3,1,0,1,HIT,472
1,2_vs_5,180,7,18,0,0,1,TNEG,2179
1,2_vs_5,181,7,3,0,0,1,TNEG,696
1,2_vs_5,182,7,6,0,0,1,TNEG,845
1,2_vs_5,183,7,18,1,0,1,HIT,1298
1,2_vs_5,184,7,18,1,0,1,HIT,730
1,2_vs_5,185,7,18,0,0,1,TNEG,1979
1,2_vs_5,186,7,6,1,0,1,HIT,861
1,2_vs_5,187,7,6,1,0,1,HIT,1045
1,2_vs_5,188,7,12,0,0,1,TNEG,2200
1,2_vs_5,189,7,6,1,0,1,HIT,1069
1,2_vs_5,190,7,3,0,0,1,TNEG,736
1,2_vs_5,191,7,12,1,0,1,HIT,720
1,2_vs_5,192,7,12,1,0,1,HIT,1800
1,2_vs_5,193,7,18,1,0,1,HIT,539
1,2_vs_5,194,7,3,0,0,1,TNEG,928
1,2_vs_5,195,7,12,0,0,1,TNEG,2184
1,2_vs_5,196,7,18,1,0,1,HIT,587
1,2_vs_5,197,7,3,0,0,1,TNEG,785
1,2_vs_5,198,7,3,0,0,1,TNEG,568
1,2_vs_5,199,7,6,0,0,1,TNEG,1174
1,2_vs_5,200,7,3,1,0,1,HIT,568
1,2_vs_5,201,7,18,1,0,1,HIT,779
1,2_vs_5,202,7,18,0,0,1,TNEG,1387
1,2_vs_5,203,7,18,0,0,1,TNEG,3274
1,2_vs_5,204,7,12,0,0,1,TNEG,1808
1,2_vs_5,205,7,3,0,0,1,TNEG,919
1,2_vs_5,206,7,3,0,0,1,TNEG,1024
1,2_vs_5,207,7,18,1,0,1,HIT,2330
1,2_vs_5,208,7,12,1,0,1,HIT,528
1,2_vs_5,209,7,6,0,0,1,TNEG,1116
1,2_vs_5,210,7,12,0,0,1,TNEG,1447
1,2_vs_5,211,7,12,1,0,1,HIT,1025
1,2_vs_5,212,7,12,1,0,1,HIT,1719
1,2_vs_5,213,7,18,1,0,1,HIT,1051
1,2_vs_5,214,7,3,1,0,1,HIT,848
1,2_vs_5,215,7,12,0,0,1,TNEG,1144
1,2_vs_5,216,7,12,1,0,1,HIT,1912
1,2_vs_5,217,7,6,0,0,1,TNEG,1189
1,2_vs_5,218,7,3,1,0,1,HIT,480
1,2_vs_5,219,7,18,0,0,1,TNEG,1651
1,2_vs_5,220,7,18,0,0,1,TNEG,1379
1,2_vs_5,221,7,6,0,0,1,TNEG,661
1,2_vs_5,222,7,12,0,0,1,TNEG,1200
1,2_vs_5,223,7,12,0,0,1,TNEG,2152
1,2_vs_5,224,7,6,1,0,1,HIT,581
1,2_vs_5,225,7,18,1,0,1,HIT,2243
1,2_vs_5,226,7,6,1,1,0,MISS,1006
1,2_vs_5,227,7,18,1,0,1,HIT,627
1,2_vs_5,228,7,18,0,0,1,TNEG,3459
1,2_vs_5,229,7,18,0,0,1,TNEG,1931
1,2_vs_5,230,7,12,1,0,1,HIT,672
1,2_vs_5,231,7,12,1,0,1,HIT,616
1,2_vs_5,232,7,12,0,0,1,TNEG,2088
1,2_vs_5,233,7,12,0,0,1,TNEG,1824
1,2_vs_5,234,7,6,0,0,1,TNEG,1237
1,2_vs_5,235,7,12,1,0,1,HIT,1103
1,2_vs_5,236,7,18,0,0,1,TNEG,2315
1,2_vs_5,237,7,3,0,0,1,TNEG,952
1,2_vs_5,238,7,6,1,0,1,HIT,862
1,2_vs_5,239,7,6,0,0,1,TNEG,941
1,2_vs_5,240,7,12,1,0,1,HIT,696
1,2_vs_5,241,7,12,1,1,0,MISS,1832
1,2_vs_5,242,7,3,0,0,1,TNEG,519
1,2_vs_5,243,7,18,1,0,1,HIT,1586
1,2_vs_5,244,7,18,1,0,1,HIT,1131
1,2_vs_5,245,7,18,1,0,1,HIT,827
1,2_vs_5,246,7,6,1,0,1,HIT,517
1,2_vs_5,247,7,3,0,0,1,TNEG,816
1,2_vs_5,248,7,18,0,0,1,TNEG,2131
1,2_vs_5,249,7,18,0,0,1,TNEG,1507
1,2_vs_5,250,7,12,1,0,1,HIT,696
1,2_vs_5,251,7,12,0,1,0,FA,952
1,2_vs_5,252,7,6,0,0,1,TNEG,893
1,2_vs_5,253,7,18,1,1,0,MISS,2251
1,2_vs_5,254,7,6,1,0,1,HIT,765
1,2_vs_5,255,7,3,1,0,1,HIT,592
1,2_vs_5,256,7,6,0,0,1,TNEG,1821
1,2_vs_5,257,7,18,1,0,1,HIT,763
1,2_vs_5,258,7,6,1,0,1,HIT,973
1,2_vs_5,259,7,6,1,0,1,HIT,1102
1,2_vs_5,260,7,18,1,0,1,HIT,1043
1,2_vs_5,261,7,3,1,0,1,HIT,496
1,2_vs_5,262,7,12,1,0,1,HIT,512
1,2_vs_5,263,7,3,0,0,1,TNEG,760
1,2_vs_5,264,7,6,0,0,1,TNEG,1309
1,2_vs_5,265,7,18,1,0,1,HIT,763
1,2_vs_5,266,7,18,0,0,1,TNEG,2539
1,2_vs_5,267,7,18,0,0,1,TNEG,2057
1,2_vs_5,268,7,18,1,0,1,HIT,699
1,2_vs_5,269,7,6,0,0,1,TNEG,1142
1,2_vs_5,270,7,6,1,0,1,HIT,669
1,2_vs_5,271,7,12,0,0,1,TNEG,2112
1,2_vs_5,272,7,12,0,0,1,TNEG,1592
1,2_vs_5,273,7,3,1,0,1,HIT,1023
1,2_vs_5,274,7,12,1,0,1,HIT,1457
1,2_vs_5,275,7,12,1,0,1,HIT,1312
1,2_vs_5,276,7,6,0,0,1,TNEG,694
1,2_vs_5,277,7,6,0,0,1,TNEG,1413
1,2_vs_5,278,7,3,0,0,1,TNEG,1032
1,2_vs_5,279,7,6,0,0,1,TNEG,805
1,2_vs_5,280,7,12,0,0,1,TNEG,1327
1,2_vs_5,281,7,3,0,0,1,TNEG,648
1,2_vs_5,282,7,6,0,0,1,TNEG,924
1,2_vs_5,283,7,12,1,0,1,HIT,1256
1,2_vs_5,284,7,18,0,0,1,TNEG,1227
1,2_vs_5,285,7,18,0,0,1,TNEG,851
1,2_vs_5,286,7,3,0,0,1,TNEG,504
1,2_vs_5,287,7,3,0,0,1,TNEG,568
1,2_vs_5,288,7,12,0,0,1,TNEG,1160
1,2_vs_5,289,7,6,1,0,1,HIT,573
1,2_vs_5,290,7,3,1,0,1,HIT,552
1,2_vs_5,291,7,18,0,0,1,TNEG,1043
1,2_vs_5,292,7,12,0,0,1,TNEG,928
1,2_vs_5,293,7,6,1,0,1,HIT,565
1,2_vs_5,294,7,6,0,0,1,TNEG,747
1,2_vs_5,295,7,12,1,0,1,HIT,824
1,2_vs_5,296,7,3,1,0,1,HIT,544
1,2_vs_5,297,7,6,1,0,1,HIT,685
1,2_vs_5,298,7,6,1,0,1,HIT,525
1,2_vs_5,299,7,12,0,0,1,TNEG,1128
1,2_vs_5,300,7,18,1,0,1,HIT,2147
1,2_vs_5,1,8,18,1,0,1,HIT,1353
1,2_vs_5,2,8,18,1,0,1,HIT,1062
1,2_vs_5,3,8,18,0,0,1,TNEG,2848
1,2_vs_5,4,8,12,1,0,1,HIT,1068
1,2_vs_5,5,8,3,1,0,1,HIT,657
1,2_vs_5,6,8,6,1,0,1,HIT,1056
1,2_vs_5,7,8,12,1,0,1,HIT,988
1,2_vs_5,8,8,12,1,0,1,HIT,875
1,2_vs_5,9,8,12,1,0,1,HIT,2178
1,2_vs_5,10,8,6,0,0,1,TNEG,934
1,2_vs_5,11,8,3,1,0,1,HIT,552
1,2_vs_5,12,8,3,0,0,1,TNEG,754
1,2_vs_5,13,8,6,1,0,1,HIT,1559
1,2_vs_5,14,8,6,0,0,1,TNEG,1829
1,2_vs_5,15,8,6,1,0,1,HIT,743
1,2_vs_5,16,8,6,0,0,1,TNEG,935
1,2_vs_5,17,8,3,1,1,0,MISS,761
1,2_vs_5,18,8,12,1,0,1,HIT,498
1,2_vs_5,19,8,3,0,0,1,TNEG,817
1,2_vs_5,20,8,6,1,0,1,HIT,479
1,2_vs_5,21,8,3,1,0,1,HIT,801
1,2_vs_5,22,8,6,1,0,1,HIT,959
1,2_vs_5,23,8,3,0,0,1,TNEG,753
1,2_vs_5,24,8,6,1,0,1,HIT,766
1,2_vs_5,25,8,18,0,0,1,TNEG,2958
1,2_vs_5,26,8,3,1,0,1,HIT,761
1,2_vs_5,27,8,3,0,0,1,TNEG,1105
1,2_vs_5,28,8,18,0,0,1,TNEG,2365
1,2_vs_5,29,8,6,0,0,1,TNEG,1134
1,2_vs_5,30,8,3,0,0,1,TNEG,745
1,2_vs_5,31,8,3,0,0,1,TNEG,745
1,2_vs_5,32,8,12,1,0,1,HIT,818
1,2_vs_5,33,8,3,1,0,1,HIT,432
1,2_vs_5,34,8,18,1,0,1,HIT,548
1,2_vs_5,35,8,18,1,0,1,HIT,1709
1,2_vs_5,36,8,3,0,0,1,TNEG,568
1,2_vs_5,37,8,3,1,0,1,HIT,456
1,2_vs_5,38,8,6,1,0,1,HIT,670
1,2_vs_5,39,8,3,1,0,1,HIT,729
1,2_vs_5,40,8,3,1,0,1,HIT,495
1,2_vs_5,41,8,6,0,0,1,TNEG,1782
1,2_vs_5,42,8,6,1,0,1,HIT,774
1,2_vs_5,43,8,3,0,0,1,TNEG,688
1,2_vs_5,44,8,18,1,0,1,HIT,564
1,2_vs_5,45,8,12,1,0,1,HIT,1577
1,2_vs_5,46,8,6,0,0,1,TNEG,1086
1,2_vs_5,47,8,12,1,0,1,HIT,912
1,2_vs_5,48,8,6,1,0,1,HIT,566
1,2_vs_5,49,8,18,0,0,1,TNEG,2907
1,2_vs_5,50,8,3,1,0,1,HIT,528
1,2_vs_5,51,8,6,1,0,1,HIT,861
1,2_vs_5,52,8,12,0,0,1,TNEG,1744
1,2_vs_5,53,8,6,1,0,1,HIT,997
1,2_vs_5,54,8,3,0,0,1,TNEG,752
1,2_vs_5,55,8,12,0,0,1,TNEG,1560
1,2_vs_5,56,8,12,1,0,1,HIT,1832
1,2_vs_5,57,8,6,1,0,1,HIT,934
1,2_vs_5,58,8,6,1,0,1,HIT,1606
1,2_vs_5,59,8,12,1,0,1,HIT,633
1,2_vs_5,60,8,12,0,0,1,TNEG,1584
1,2_vs_5,61,8,12,1,0,1,HIT,1960
1,2_vs_5,62,8,3,1,0,1,HIT,496
1,2_vs_5,63,8,18,1,0,1,HIT,859
1,2_vs_5,64,8,12,1,0,1,HIT,655
1,2_vs_5,65,8,6,1,0,1,HIT,596
1,2_vs_5,66,8,3,0,0,1,TNEG,1040
1,2_vs_5,67,8,3,1,0,1,HIT,528
1,2_vs_5,68,8,3,0,0,1,TNEG,576
1,2_vs_5,69,8,3,1,0,1,HIT,528
1,2_vs_5,70,8,12,1,0,1,HIT,712
1,2_vs_5,71,8,12,1,0,1,HIT,1441
1,2_vs_5,72,8,12,1,0,1,HIT,736
1,2_vs_5,73,8,6,0,0,1,TNEG,1149
1,2_vs_5,74,8,3,0,0,1,TNEG,640
1,2_vs_5,75,8,18,1,0,1,HIT,1875
1,2_vs_5,76,8,3,1,0,1,HIT,584
1,2_vs_5,77,8,3,0,0,1,TNEG,592
1,2_vs_5,78,8,12,0,0,1,TNEG,2240
1,2_vs_5,79,8,12,0,0,1,TNEG,1896
1,2_vs_5,80,8,18,1,0,1,HIT,1251
1,2_vs_5,81,8,12,0,0,1,TNEG,1464
1,2_vs_5,82,8,12,0,0,1,TNEG,1512
1,2_vs_5,83,8,3,0,0,1,TNEG,649
1,2_vs_5,84,8,12,0,0,1,TNEG,1704
1,2_vs_5,85,8,18,1,0,1,HIT,659
1,2_vs_5,86,8,6,1,0,1,HIT,685
1,2_vs_5,87,8,6,0,0,1,TNEG,877
1,2_vs_5,88,8,18,0,0,1,TNEG,1539
1,2_vs_5,89,8,3,0,0,1,TNEG,680
1,2_vs_5,90,8,6,0,0,1,TNEG,933
1,2_vs_5,91,8,6,1,0,1,HIT,622
1,2_vs_5,92,8,6,1,0,1,HIT,974
1,2_vs_5,93,8,6,1,0,1,HIT,525
1,2_vs_5,94,8,12,0,0,1,TNEG,1232
1,2_vs_5,95,8,18,1,0,1,HIT,867
1,2_vs_5,96,8,3,0,0,1,TNEG,640
1,2_vs_5,97,8,18,0,0,1,TNEG,4091
1,2_vs_5,98,8,18,1,0,1,HIT,1098
1,2_vs_5,99,8,18,1,0,1,HIT,1010
1,2_vs_5,100,8,6,1,0,1,HIT,1029
1,2_vs_5,101,8,12,0,0,1,TNEG,2104
1,2_vs_5,102,8,3,0,0,1,TNEG,872
1,2_vs_5,103,8,12,1,0,1,HIT,2024
1,2_vs_5,104,8,18,1,0,1,HIT,835
1,2_vs_5,105,8,12,0,0,1,TNEG,1433
1,2_vs_5,106,8,18,0,0,1,TNEG,2427
1,2_vs_5,107,8,3,0,0,1,TNEG,600
1,2_vs_5,108,8,12,1,0,1,HIT,544
1,2_vs_5,109,8,18,0,0,1,TNEG,2690
1,2_vs_5,110,8,6,1,0,1,HIT,749
1,2_vs_5,111,8,3,1,0,1,HIT,648
1,2_vs_5,112,8,3,0,0,1,TNEG,560
1,2_vs_5,113,8,3,1,0,1,HIT,680
1,2_vs_5,114,8,6,0,0,1,TNEG,798
1,2_vs_5,115,8,6,1,0,1,HIT,541
1,2_vs_5,116,8,18,0,0,1,TNEG,1787
1,2_vs_5,117,8,18,1,0,1,HIT,931
1,2_vs_5,118,8,6,0,0,1,TNEG,990
1,2_vs_5,119,8,3,1,0,1,HIT,496
1,2_vs_5,120,8,18,1,0,1,HIT,2283
1,2_vs_5,121,8,18,0,0,1,TNEG,2787
1,2_vs_5,122,8,12,1,0,1,HIT,1135
1,2_vs_5,123,8,12,1,0,1,HIT,640
1,2_vs_5,124,8,6,0,0,1,TNEG,838
1,2_vs_5,125,8,18,0,0,1,TNEG,2403
1,2_vs_5,126,8,18,1,0,1,HIT,1227
1,2_vs_5,127,8,6,1,0,1,HIT,502
1,2_vs_5,128,8,18,1,0,1,HIT,715
1,2_vs_5,129,8,3,0,0,1,TNEG,768
1,2_vs_5,130,8,12,0,0,1,TNEG,1840
1,2_vs_5,131,8,6,0,0,1,TNEG,1837
1,2_vs_5,132,8,12,1,0,1,HIT,1144
1,2_vs_5,133,8,18,0,0,1,TNEG,2571
1,2_vs_5,134,8,6,1,0,1,HIT,1166
1,2_vs_5,135,8,6,1,0,1,HIT,693
1,2_vs_5,136,8,3,0,0,1,TNEG,736
1,2_vs_5,137,8,18,1,0,1,HIT,1243
1,2_vs_5,138,8,18,1,0,1,HIT,747
1,2_vs_5,139,8,3,1,0,1,HIT,583
1,2_vs_5,140,8,18,1,0,1,HIT,987
1,2_vs_5,141,8,12,1,0,1,HIT,1864
1,2_vs_5,142,8,12,1,0,1,HIT,1008
1,2_vs_5,143,8,3,1,0,1,HIT,535
1,2_vs_5,144,8,3,1,0,1,HIT,768
1,2_vs_5,145,8,18,0,0,1,TNEG,2716
1,2_vs_5,146,8,18,0,0,1,TNEG,2714
1,2_vs_5,147,8,12,0,0,1,TNEG,1856
1,2_vs_5,148,8,6,1,0,1,HIT,933
1,2_vs_5,149,8,18,0,0,1,TNEG,1523
1,2_vs_5,150,8,18,1,0,1,HIT,611
1,2_vs_5,151,8,3,0,0,1,TNEG,584
1,2_vs_5,152,8,18,1,0,1,HIT,1131
1,2_vs_5,153,8,12,0,0,1,TNEG,1592
1,2_vs_5,154,8,12,1,0,1,HIT,1344
1,2_vs_5,155,8,6,0,0,1,TNEG,1206
1,2_vs_5,156,8,3,0,0,1,TNEG,864
1,2_vs_5,157,8,12,0,0,1,TNEG,2823
1,2_vs_5,158,8,6,0,0,1,TNEG,1405
1,2_vs_5,159,8,18,1,0,1,HIT,683
1,2_vs_5,160,8,6,1,0,1,HIT,581
1,2_vs_5,161,8,12,0,0,1,TNEG,1465
1,2_vs_5,162,8,18,1,0,1,HIT,1691
1,2_vs_5,163,8,18,0,0,1,TNEG,1843
1,2_vs_5,164,8,18,1,0,1,HIT,1122
1,2_vs_5,165,8,3,1,0,1,HIT,520
1,2_vs_5,166,8,18,0,0,1,TNEG,1627
1,2_vs_5,167,8,12,0,0,1,TNEG,1328
1,2_vs_5,168,8,12,0,0,1,TNEG,2176
1,2_vs_5,169,8,6,1,0,1,HIT,5645
1,2_vs_5,170,8,18,1,0,1,HIT,1571
1,2_vs_5,171,8,3,1,0,1,HIT,695
1,2_vs_5,172,8,18,1,0,1,HIT,1131
1,2_vs_5,173,8,6,1,0,1,HIT,982
1,2_vs_5,174,8,18,0,0,1,TNEG,2403
1,2_vs_5,175,8,18,0,0,1,TNEG,1483
1,2_vs_5,176,8,6,0,0,1,TNEG,1158
1,2_vs_5,177,8,12,1,0,1,HIT,1161
1,2_vs_5,178,8,18,1,0,1,HIT,675
1,2_vs_5,179,8,6,0,0,1,TNEG,1229
1,2_vs_5,180,8,3,0,0,1,TNEG,856
1,2_vs_5,181,8,3,0,0,1,TNEG,672
1,2_vs_5,182,8,12,1,0,1,HIT,992
1,2_vs_5,183,8,12,0,0,1,TNEG,1025
1,2_vs_5,184,8,6,0,0,1,TNEG,750
1,2_vs_5,185,8,6,0,0,1,TNEG,662
1,2_vs_5,186,8,3,1,0,1,HIT,568
1,2_vs_5,187,8,6,0,0,1,TNEG,886
1,2_vs_5,188,8,12,0,1,0,FA,632
1,2_vs_5,189,8,3,1,0,1,HIT,536
1,2_vs_5,190,8,6,0,0,1,TNEG,1166
1,2_vs_5,191,8,3,0,0,1,TNEG,640
1,2_vs_5,192,8,12,0,0,1,TNEG,2039
1,2_vs_5,193,8,6,1,0,1,HIT,550
1,2_vs_5,194,8,12,1,0,1,HIT,1536
1,2_vs_5,195,8,3,1,0,1,HIT,504
1,2_vs_5,196,8,3,1,0,1,HIT,680
1,2_vs_5,197,8,18,0,0,1,TNEG,2235
1,2_vs_5,198,8,3,0,0,1,TNEG,880
1,2_vs_5,199,8,6,1,0,1,HIT,574
1,2_vs_5,200,8,6,0,0,1,TNEG,1117
1,2_vs_5,201,8,12,1,0,1,HIT,1377
1,2_vs_5,202,8,6,1,0,1,HIT,621
1,2_vs_5,203,8,6,0,0,1,TNEG,1389
1,2_vs_5,204,8,18,1,0,1,HIT,771
1,2_vs_5,205,8,3,1,0,1,HIT,704
1,2_vs_5,206,8,6,0,0,1,TNEG,1045
1,2_vs_5,207,8,6,1,0,1,HIT,501
1,2_vs_5,208,8,12,0,0,1,TNEG,984
1,2_vs_5,209,8,18,0,0,1,TNEG,1755
1,2_vs_5,210,8,12,0,0,1,TNEG,1320
1,2_vs_5,211,8,12,1,1,0,MISS,1935
1,2_vs_5,212,8,12,0,0,1,TNEG,1920
1,2_vs_5,213,8,3,0,0,1,TNEG,584
1,2_vs_5,214,8,3,0,0,1,TNEG,1031
1,2_vs_5,215,8,12,0,0,1,TNEG,1736
1,2_vs_5,216,8,12,0,0,1,TNEG,2080
1,2_vs_5,217,8,3,1,0,1,HIT,1047
1,2_vs_5,218,8,12,0,0,1,TNEG,4448
1,2_vs_5,219,8,12,0,0,1,TNEG,1680
1,2_vs_5,220,8,3,1,0,1,HIT,576
1,2_vs_5,221,8,6,1,0,1,HIT,516
1,2_vs_5,222,8,6,0,0,1,TNEG,973
1,2_vs_5,223,8,3,0,0,1,TNEG,760
1,2_vs_5,224,8,18,1,0,1,HIT,1715
1,2_vs_5,225,8,12,1,0,1,HIT,1113
1,2_vs_5,226,8,12,1,0,1,HIT,1224
1,2_vs_5,227,8,18,1,0,1,HIT,955
1,2_vs_5,228,8,12,0,0,1,TNEG,1369
1,2_vs_5,229,8,18,0,0,1,TNEG,1978
1,2_vs_5,230,8,3,0,0,1,TNEG,695
1,2_vs_5,231,8,12,1,0,1,HIT,1968
1,2_vs_5,232,8,3,0,0,1,TNEG,1160
1,2_vs_5,233,8,18,1,0,1,HIT,619
1,2_vs_5,234,8,18,0,0,1,TNEG,1315
1,2_vs_5,235,8,6,1,0,1,HIT,1725
1,2_vs_5,236,8,3,1,0,1,HIT,664
1,2_vs_5,237,8,3,1,0,1,HIT,1032
1,2_vs_5,238,8,6,1,0,1,HIT,445
1,2_vs_5,239,8,18,0,0,1,TNEG,1738
1,2_vs_5,240,8,6,0,0,1,TNEG,1029
1,2_vs_5,241,8,3,0,0,1,TNEG,488
1,2_vs_5,242,8,6,1,0,1,HIT,445
1,2_vs_5,243,8,12,1,0,1,HIT,1128
1,2_vs_5,244,8,18,1,0,1,HIT,475
1,2_vs_5,245,8,18,0,0,1,TNEG,2675
1,2_vs_5,246,8,12,1,0,1,HIT,568
1,2_vs_5,247,8,6,1,0,1,HIT,893
1,2_vs_5,248,8,6,0,0,1,TNEG,710
1,2_vs_5,249,8,6,0,0,1,TNEG,1397
1,2_vs_5,250,8,18,1,0,1,HIT,995
1,2_vs_5,251,8,18,1,0,1,HIT,683
1,2_vs_5,252,8,6,1,1,0,MISS,1149
1,2_vs_5,253,8,12,1,0,1,HIT,624
1,2_vs_5,254,8,6,0,0,1,TNEG,790
1,2_vs_5,255,8,6,1,0,1,HIT,1637
1,2_vs_5,256,8,12,0,0,1,TNEG,1343
1,2_vs_5,257,8,12,0,0,1,TNEG,1376
1,2_vs_5,258,8,18,1,1,0,MISS,1683
1,2_vs_5,259,8,12,1,0,1,HIT,1016
1,2_vs_5,260,8,6,0,0,1,TNEG,1310
1,2_vs_5,261,8,12,0,0,1,TNEG,1680
1,2_vs_5,262,8,6,1,0,1,HIT,525
1,2_vs_5,263,8,18,1,0,1,HIT,939
1,2_vs_5,264,8,3,0,1,0,FA,792
1,2_vs_5,265,8,6,0,0,1,TNEG,877
1,2_vs_5,266,8,12,1,0,1,HIT,567
1,2_vs_5,267,8,18,1,0,1,HIT,1075
1,2_vs_5,268,8,6,1,0,1,HIT,725
1,2_vs_5,269,8,12,1,0,1,HIT,552
1,2_vs_5,270,8,6,1,0,1,HIT,709
1,2_vs_5,271,8,18,0,0,1,TNEG,2867
1,2_vs_5,272,8,3,1,0,1,HIT,456
1,2_vs_5,273,8,12,1,0,1,HIT,872
1,2_vs_5,274,8,3,0,0,1,TNEG,856
1,2_vs_5,275,8,6,1,0,1,HIT,518
1,2_vs_5,276,8,18,0,0,1,TNEG,2699
1,2_vs_5,277,8,6,1,0,1,HIT,550
1,2_vs_5,278,8,3,0,0,1,TNEG,816
1,2_vs_5,279,8,6,0,0,1,TNEG,1157
1,2_vs_5,280,8,12,0,0,1,TNEG,1944
1,2_vs_5,281,8,3,1,0,1,HIT,582
1,2_vs_5,282,8,3,0,0,1,TNEG,791
1,2_vs_5,283,8,12,0,0,1,TNEG,1656
1,2_vs_5,284,8,3,0,0,1,TNEG,544
1,2_vs_5,285,8,3,1,0,1,HIT,704
1,2_vs_5,286,8,12,0,0,1,TNEG,1688
1,2_vs_5,287,8,18,0,0,1,TNEG,1483
1,2_vs_5,288,8,6,0,0,1,TNEG,1069
1,2_vs_5,289,8,12,0,0,1,TNEG,1544
1,2_vs_5,290,8,6,0,0,1,TNEG,637
1,2_vs_5,291,8,3,1,0,1,HIT,552
1,2_vs_5,292,8,6,1,0,1,HIT,518
1,2_vs_5,293,8,6,1,0,1,HIT,1293
1,2_vs_5,294,8,12,1,0,1,HIT,1472
1,2_vs_5,295,8,18,1,0,1,HIT,1235
1,2_vs_5,296,8,6,0,0,1,TNEG,2013
1,2_vs_5,297,8,3,0,0,1,TNEG,888
1,2_vs_5,298,8,18,0,0,1,TNEG,1635
1,2_vs_5,299,8,6,1,0,1,HIT,1397
1,2_vs_5,300,8,6,1,0,1,HIT,605
1,2_vs_5,1,9,18,0,0,1,TNEG,4097
1,2_vs_5,2,9,12,1,0,1,HIT,675
1,2_vs_5,3,9,12,1,0,1,HIT,547
1,2_vs_5,4,9,3,1,0,1,HIT,442
1,2_vs_5,5,9,3,1,0,1,HIT,401
1,2_vs_5,6,9,6,1,0,1,HIT,391
1,2_vs_5,7,9,3,0,0,1,TNEG,529
1,2_vs_5,8,9,12,0,0,1,TNEG,1642
1,2_vs_5,9,9,12,1,0,1,HIT,1467
1,2_vs_5,10,9,6,1,0,1,HIT,543
1,2_vs_5,11,9,18,1,0,1,HIT,1119
1,2_vs_5,12,9,3,0,0,1,TNEG,506
1,2_vs_5,13,9,12,1,0,1,HIT,418
1,2_vs_5,14,9,18,0,0,1,TNEG,2590
1,2_vs_5,15,9,3,0,0,1,TNEG,545
1,2_vs_5,16,9,3,1,1,0,MISS,807
1,2_vs_5,17,9,3,1,0,1,HIT,368
1,2_vs_5,18,9,12,0,0,1,TNEG,2531
1,2_vs_5,19,9,6,0,0,1,TNEG,1071
1,2_vs_5,20,9,12,0,0,1,TNEG,2130
1,2_vs_5,21,9,18,1,0,1,HIT,2261
1,2_vs_5,22,9,12,1,0,1,HIT,1755
1,2_vs_5,23,9,3,0,0,1,TNEG,656
1,2_vs_5,24,9,3,0,0,1,TNEG,608
1,2_vs_5,25,9,12,1,0,1,HIT,698
1,2_vs_5,26,9,18,1,0,1,HIT,1093
1,2_vs_5,27,9,3,0,0,1,TNEG,753
1,2_vs_5,28,9,6,1,0,1,HIT,1950
1,2_vs_5,29,9,12,1,0,1,HIT,1594
1,2_vs_5,30,9,18,1,0,1,HIT,1012
1,2_vs_5,31,9,18,0,0,1,TNEG,2877
1,2_vs_5,32,9,3,1,0,1,HIT,488
1,2_vs_5,33,9,6,0,0,1,TNEG,1062
1,2_vs_5,34,9,3,0,0,1,TNEG,672
1,2_vs_5,35,9,6,1,0,1,HIT,861
1,2_vs_5,36,9,12,1,0,1,HIT,1296
1,2_vs_5,37,9,6,1,0,1,HIT,517
1,2_vs_5,38,9,12,1,0,1,HIT,1593
1,2_vs_5,39,9,12,1,0,1,HIT,848
1,2_vs_5,40,9,18,1,0,1,HIT,2204
1,2_vs_5,41,9,12,0,0,1,TNEG,2025
1,2_vs_5,42,9,3,1,0,1,HIT,864
1,2_vs_5,43,9,12,1,0,1,HIT,784
1,2_vs_5,44,9,3,1,0,1,HIT,520
1,2_vs_5,45,9,6,0,0,1,TNEG,1878
1,2_vs_5,46,9,12,1,0,1,HIT,944
1,2_vs_5,47,9,18,0,0,1,TNEG,1860
1,2_vs_5,48,9,6,0,0,1,TNEG,2278
1,2_vs_5,49,9,18,0,0,1,TNEG,2091
1,2_vs_5,50,9,6,1,0,1,HIT,1254
1,2_vs_5,51,9,18,1,0,1,HIT,1428
1,2_vs_5,52,9,3,0,0,1,TNEG,1808
1,2_vs_5,53,9,18,0,0,1,TNEG,2467
1,2_vs_5,54,9,6,1,0,1,HIT,757
1,2_vs_5,55,9,12,0,0,1,TNEG,1936
1,2_vs_5,56,9,6,1,0,1,HIT,549
1,2_vs_5,57,9,6,1,0,1,HIT,502
1,2_vs_5,58,9,3,1,0,1,HIT,583
1,2_vs_5,59,9,18,1,0,1,HIT,714
1,2_vs_5,60,9,6,1,0,1,HIT,1102
1,2_vs_5,61,9,18,1,0,1,HIT,483
1,2_vs_5,62,9,3,1,0,1,HIT,560
1,2_vs_5,63,9,6,0,0,1,TNEG,1366
1,2_vs_5,64,9,18,0,0,1,TNEG,2307
1,2_vs_5,65,9,3,1,0,1,HIT,423
1,2_vs_5,66,9,6,1,0,1,HIT,670
1,2_vs_5,67,9,12,1,0,1,HIT,833
1,2_vs_5,68,9,12,1,0,1,HIT,1504
1,2_vs_5,69,9,6,0,0,1,TNEG,1029
1,2_vs_5,70,9,18,0,0,1,TNEG,1979
1,2_vs_5,71,9,3,0,1,0,FA,888
1,2_vs_5,72,9,18,0,0,1,TNEG,2187
1,2_vs_5,73,9,12,1,0,1,HIT,1337
1,2_vs_5,74,9,6,0,0,1,TNEG,942
1,2_vs_5,75,9,12,0,0,1,TNEG,1768
1,2_vs_5,76,9,6,0,0,1,TNEG,1246
1,2_vs_5,77,9,6,1,0,1,HIT,974
1,2_vs_5,78,9,12,1,0,1,HIT,1768
1,2_vs_5,79,9,6,1,0,1,HIT,510
1,2_vs_5,80,9,3,0,0,1,TNEG,1424
1,2_vs_5,82,9,3,1,0,1,HIT,576
1,2_vs_5,83,9,3,0,0,1,TNEG,664
1,2_vs_5,84,9,6,0,0,1,TNEG,1030
1,2_vs_5,85,9,3,0,0,1,TNEG,784
1,2_vs_5,86,9,18,0,0,1,TNEG,1995
1,2_vs_5,87,9,6,0,0,1,TNEG,885
1,2_vs_5,88,9,6,1,0,1,HIT,902
1,2_vs_5,89,9,3,0,0,1,TNEG,648
1,2_vs_5,90,9,3,0,0,1,TNEG,504
1,2_vs_5,91,9,12,0,0,1,TNEG,1558
1,2_vs_5,92,9,3,0,0,1,TNEG,488
1,2_vs_5,93,9,3,1,0,1,HIT,433
1,2_vs_5,94,9,3,0,0,1,TNEG,439
1,2_vs_5,95,9,6,0,0,1,TNEG,1118
1,2_vs_5,96,9,6,0,0,1,TNEG,813
1,2_vs_5,97,9,3,0,0,1,TNEG,671
1,2_vs_5,98,9,6,1,0,1,HIT,525
1,2_vs_5,99,9,3,0,0,1,TNEG,448
1,2_vs_5,100,9,6,1,0,1,HIT,901
1,2_vs_5,101,9,18,0,0,1,TNEG,1515
1,2_vs_5,102,9,3,1,0,1,HIT,448
1,2_vs_5,103,9,12,0,0,1,TNEG,1272
1,2_vs_5,104,9,3,0,0,1,TNEG,712
1,2_vs_5,105,9,3,1,0,1,HIT,448
1,2_vs_5,106,9,6,0,0,1,TNEG,998
1,2_vs_5,107,9,18,1,0,1,HIT,1179
1,2_vs_5,108,9,3,0,0,1,TNEG,560
1,2_vs_5,109,9,18,0,0,1,TNEG,2131
1,2_vs_5,110,9,12,0,0,1,TNEG,1184
1,2_vs_5,111,9,12,0,0,1,TNEG,1920
1,2_vs_5,112,9,12,0,0,1,TNEG,1504
1,2_vs_5,113,9,3,1,0,1,HIT,568
1,2_vs_5,114,9,6,0,0,1,TNEG,838
1,2_vs_5,115,9,12,0,0,1,TNEG,1232
1,2_vs_5,116,9,18,1,0,1,HIT,1003
1,2_vs_5,117,9,18,0,0,1,TNEG,1979
1,2_vs_5,118,9,3,1,0,1,HIT,479
1,2_vs_5,119,9,6,0,0,1,TNEG,933
1,2_vs_5,120,9,3,0,0,1,TNEG,536
1,2_vs_5,121,9,18,0,0,1,TNEG,1171
1,2_vs_5,122,9,18,0,0,1,TNEG,1443
1,2_vs_5,123,9,12,1,0,1,HIT,1328
1,2_vs_5,124,9,12,1,0,1,HIT,672
1,2_vs_5,125,9,3,1,0,1,HIT,888
1,2_vs_5,126,9,18,0,0,1,TNEG,1419
1,2_vs_5,127,9,6,1,0,1,HIT,638
1,2_vs_5,128,9,18,1,0,1,HIT,1059
1,2_vs_5,129,9,6,0,1,0,FA,918
1,2_vs_5,130,9,6,1,0,1,HIT,693
1,2_vs_5,131,9,12,0,0,1,TNEG,2824
1,2_vs_5,132,9,12,0,0,1,TNEG,1904
1,2_vs_5,133,9,18,1,0,1,HIT,1298
1,2_vs_5,134,9,3,0,0,1,TNEG,504
1,2_vs_5,135,9,6,0,0,1,TNEG,1333
1,2_vs_5,136,9,3,1,0,1,HIT,536
1,2_vs_5,137,9,3,0,0,1,TNEG,504
1,2_vs_5,138,9,18,0,0,1,TNEG,1859
1,2_vs_5,139,9,6,0,0,1,TNEG,885
1,2_vs_5,140,9,12,0,0,1,TNEG,1920
1,2_vs_5,141,9,3,1,0,1,HIT,784
1,2_vs_5,142,9,12,0,0,1,TNEG,1633
1,2_vs_5,143,9,6,1,0,1,HIT,757
1,2_vs_5,144,9,12,0,0,1,TNEG,1656
1,2_vs_5,145,9,6,1,0,1,HIT,598
1,2_vs_5,146,9,6,0,0,1,TNEG,710
1,2_vs_5,147,9,18,1,0,1,HIT,555
1,2_vs_5,148,9,12,1,0,1,HIT,1176
1,2_vs_5,149,9,18,1,0,1,HIT,876
1,2_vs_5,150,9,6,1,0,1,HIT,933
1,2_vs_5,151,9,6,1,0,1,HIT,436
1,2_vs_5,152,9,12,1,0,1,HIT,480
1,2_vs_5,153,9,18,1,0,1,HIT,1307
1,2_vs_5,154,9,6,1,0,1,HIT,565
1,2_vs_5,155,9,18,0,0,1,TNEG,3514
1,2_vs_5,156,9,6,0,0,1,TNEG,1397
1,2_vs_5,157,9,6,1,0,1,HIT,845
1,2_vs_5,158,9,3,0,0,1,TNEG,744
1,2_vs_5,159,9,3,0,0,1,TNEG,568
1,2_vs_5,160,9,6,1,0,1,HIT,501
1,2_vs_5,161,9,6,0,0,1,TNEG,1206
1,2_vs_5,162,9,18,0,0,1,TNEG,1971
1,2_vs_5,163,9,6,0,0,1,TNEG,1189
1,2_vs_5,164,9,18,0,0,1,TNEG,1267
1,2_vs_5,165,9,12,0,0,1,TNEG,1376
1,2_vs_5,166,9,12,0,0,1,TNEG,1096
1,2_vs_5,167,9,18,0,0,1,TNEG,1515
1,2_vs_5,168,9,18,1,0,1,HIT,1675
1,2_vs_5,169,9,18,0,0,1,TNEG,1755
1,2_vs_5,170,9,18,0,0,1,TNEG,1402
1,2_vs_5,171,9,12,1,0,1,HIT,1816
1,2_vs_5,172,9,6,1,0,1,HIT,694
1,2_vs_5,173,9,12,0,0,1,TNEG,1641
1,2_vs_5,174,9,3,0,0,1,TNEG,591
1,2_vs_5,175,9,18,0,0,1,TNEG,1691
1,2_vs_5,176,9,18,0,0,1,TNEG,1331
1,2_vs_5,177,9,12,0,0,1,TNEG,1575
1,2_vs_5,178,9,6,0,0,1,TNEG,837
1,2_vs_5,179,9,6,1,0,1,HIT,589
1,2_vs_5,180,9,18,0,0,1,TNEG,1755
1,2_vs_5,181,9,12,1,0,1,HIT,543
1,2_vs_5,182,9,6,0,0,1,TNEG,685
1,2_vs_5,183,9,6,1,0,1,HIT,582
1,2_vs_5,184,9,6,1,0,1,HIT,582
1,2_vs_5,185,9,6,1,0,1,HIT,718
1,2_vs_5,186,9,6,1,0,1,HIT,589
1,2_vs_5,187,9,18,1,0,1,HIT,2139
1,2_vs_5,188,9,18,1,0,1,HIT,571
1,2_vs_5,189,9,3,0,0,1,TNEG,576
1,2_vs_5,190,9,6,0,0,1,TNEG,1318
1,2_vs_5,191,9,12,1,0,1,HIT,1008
1,2_vs_5,192,9,6,1,0,1,HIT,838
1,2_vs_5,193,9,6,1,0,1,HIT,1365
1,2_vs_5,194,9,12,1,0,1,HIT,472
1,2_vs_5,195,9,3,1,0,1,HIT,432
1,2_vs_5,196,9,12,0,0,1,TNEG,928
1,2_vs_5,197,9,18,0,0,1,TNEG,1339
1,2_vs_5,198,9,3,1,0,1,HIT,407
1,2_vs_5,199,9,12,0,0,1,TNEG,1544
1,2_vs_5,200,9,6,0,0,1,TNEG,813
1,2_vs_5,201,9,3,0,0,1,TNEG,488
1,2_vs_5,202,9,6,1,0,1,HIT,438
1,2_vs_5,203,9,12,0,0,1,TNEG,1096
1,2_vs_5,204,9,18,0,1,0,FA,1283
1,2_vs_5,205,9,12,0,0,1,TNEG,984
1,2_vs_5,206,9,6,0,0,1,TNEG,925
1,2_vs_5,207,9,3,0,0,1,TNEG,775
1,2_vs_5,208,9,12,1,0,1,HIT,488
1,2_vs_5,209,9,6,0,0,1,TNEG,1077
1,2_vs_5,210,9,18,0,0,1,TNEG,1890
1,2_vs_5,211,9,18,0,0,1,TNEG,1987
1,2_vs_5,212,9,12,1,0,1,HIT,495
1,2_vs_5,213,9,12,1,0,1,HIT,889
1,2_vs_5,214,9,12,1,0,1,HIT,928
1,2_vs_5,215,9,12,0,0,1,TNEG,1735
1,2_vs_5,216,9,6,1,0,1,HIT,661
1,2_vs_5,217,9,6,0,0,1,TNEG,1013
1,2_vs_5,218,9,12,0,0,1,TNEG,1504
1,2_vs_5,219,9,12,0,0,1,TNEG,928
1,2_vs_5,220,9,12,1,0,1,HIT,1008
1,2_vs_5,221,9,6,1,1,0,MISS,677
1,2_vs_5,222,9,18,0,0,1,TNEG,883
1,2_vs_5,223,9,18,1,0,1,HIT,931
1,2_vs_5,224,9,6,0,0,1,TNEG,1061
1,2_vs_5,225,9,12,1,1,0,MISS,880
1,2_vs_5,226,9,6,1,0,1,HIT,813
1,2_vs_5,227,9,18,1,0,1,HIT,859
1,2_vs_5,228,9,18,0,0,1,TNEG,1195
1,2_vs_5,229,9,3,0,0,1,TNEG,663
1,2_vs_5,230,9,12,0,0,1,TNEG,1152
1,2_vs_5,231,9,12,1,0,1,HIT,1280
1,2_vs_5,232,9,18,1,0,1,HIT,1579
1,2_vs_5,233,9,6,0,0,1,TNEG,813
1,2_vs_5,234,9,3,1,0,1,HIT,624
1,2_vs_5,235,9,12,1,0,1,HIT,1496
1,2_vs_5,236,9,6,0,0,1,TNEG,774
1,2_vs_5,237,9,18,1,0,1,HIT,1379
1,2_vs_5,238,9,18,1,0,1,HIT,1443
1,2_vs_5,239,9,3,0,0,1,TNEG,695
1,2_vs_5,240,9,6,1,0,1,HIT,813
1,2_vs_5,241,9,6,0,0,1,TNEG,1141
1,2_vs_5,242,9,3,0,0,1,TNEG,656
1,2_vs_5,243,9,3,0,0,1,TNEG,760
1,2_vs_5,244,9,18,1,0,1,HIT,787
1,2_vs_5,245,9,6,0,0,1,TNEG,1102
1,2_vs_5,246,9,6,1,0,1,HIT,940
1,2_vs_5,247,9,18,1,0,1,HIT,1091
1,2_vs_5,248,9,12,0,0,1,TNEG,1296
1,2_vs_5,249,9,3,0,0,1,TNEG,880
1,2_vs_5,250,9,3,0,0,1,TNEG,704
1,2_vs_5,251,9,6,1,0,1,HIT,645
1,2_vs_5,252,9,6,0,0,1,TNEG,862
1,2_vs_5,253,9,3,1,0,1,HIT,654
1,2_vs_5,254,9,3,1,0,1,HIT,495
1,2_vs_5,255,9,3,0,0,1,TNEG,593
1,2_vs_5,256,9,12,0,0,1,TNEG,1240
1,2_vs_5,257,9,18,0,0,1,TNEG,4155
1,2_vs_5,258,9,12,1,0,1,HIT,608
1,2_vs_5,259,9,6,1,1,0,MISS,542
1,2_vs_5,260,9,12,1,0,1,HIT,808
1,2_vs_5,261,9,18,1,0,1,HIT,1347
1,2_vs_5,262,9,12,1,0,1,HIT,2208
1,2_vs_5,263,9,12,1,0,1,HIT,1016
1,2_vs_5,264,9,18,0,0,1,TNEG,1659
1,2_vs_5,265,9,3,1,0,1,HIT,504
1,2_vs_5,266,9,12,0,0,1,TNEG,1688
1,2_vs_5,267,9,6,1,0,1,HIT,469
1,2_vs_5,268,9,12,0,0,1,TNEG,1424
1,2_vs_5,269,9,18,0,0,1,TNEG,1363
1,2_vs_5,270,9,12,0,0,1,TNEG,1087
1,2_vs_5,271,9,3,0,0,1,TNEG,464
1,2_vs_5,272,9,18,0,0,1,TNEG,1563
1,2_vs_5,273,9,6,1,0,1,HIT,693
1,2_vs_5,274,9,3,1,0,1,HIT,392
1,2_vs_5,275,9,12,1,0,1,HIT,1544
1,2_vs_5,276,9,12,0,0,1,TNEG,1184
1,2_vs_5,277,9,6,1,0,1,HIT,469
1,2_vs_5,278,9,18,0,0,1,TNEG,2931
1,2_vs_5,279,9,6,1,0,1,HIT,604
1,2_vs_5,280,9,3,1,0,1,HIT,496
1,2_vs_5,281,9,3,0,0,1,TNEG,552
1,2_vs_5,282,9,12,0,0,1,TNEG,1168
1,2_vs_5,283,9,6,0,0,1,TNEG,990
1,2_vs_5,284,9,18,1,0,1,HIT,1298
1,2_vs_5,285,9,6,0,0,1,TNEG,1070
1,2_vs_5,286,9,12,0,0,1,TNEG,1440
1,2_vs_5,287,9,18,1,0,1,HIT,1115
1,2_vs_5,288,9,18,1,0,1,HIT,811
1,2_vs_5,289,9,3,1,0,1,HIT,760
1,2_vs_5,290,9,3,0,0,1,TNEG,624
1,2_vs_5,291,9,18,1,0,1,HIT,1427
1,2_vs_5,292,9,12,0,0,1,TNEG,1376
1,2_vs_5,293,9,12,1,0,1,HIT,1280
1,2_vs_5,294,9,6,0,0,1,TNEG,1158
1,2_vs_5,295,9,12,1,0,1,HIT,1047
1,2_vs_5,296,9,6,0,0,1,TNEG,1294
1,2_vs_5,297,9,6,1,0,1,HIT,589
1,2_vs_5,298,9,3,0,0,1,TNEG,704
1,2_vs_5,299,9,12,0,0,1,TNEG,1520
1,2_vs_5,300,9,3,0,0,1,TNEG,808
1,2_vs_5,1,10,12,0,1,0,FA,2376
1,2_vs_5,2,10,6,1,0,1,HIT,663
1,2_vs_5,3,10,6,1,0,1,HIT,431
1,2_vs_5,4,10,18,1,0,1,HIT,1190
1,2_vs_5,5,10,12,0,0,1,TNEG,1835
1,2_vs_5,6,10,12,1,0,1,HIT,1883
1,2_vs_5,7,10,3,0,0,1,TNEG,897
1,2_vs_5,8,10,18,0,0,1,TNEG,2694
1,2_vs_5,9,10,6,1,0,1,HIT,455
1,2_vs_5,10,10,6,0,0,1,TNEG,1151
1,2_vs_5,11,10,3,1,0,1,HIT,433
1,2_vs_5,12,10,6,0,0,1,TNEG,918
1,2_vs_5,13,10,18,0,0,1,TNEG,2270
1,2_vs_5,14,10,12,0,0,1,TNEG,1194
1,2_vs_5,15,10,6,1,0,1,HIT,583
1,2_vs_5,16,10,12,0,0,1,TNEG,1578
1,2_vs_5,17,10,6,0,0,1,TNEG,983
1,2_vs_5,18,10,3,0,0,1,TNEG,633
1,2_vs_5,19,10,12,0,0,1,TNEG,1641
1,2_vs_5,20,10,6,0,0,1,TNEG,943
1,2_vs_5,21,10,18,0,0,1,TNEG,2021
1,2_vs_5,22,10,6,1,0,1,HIT,453
1,2_vs_5,23,10,3,1,0,1,HIT,553
1,2_vs_5,24,10,18,0,0,1,TNEG,3061
1,2_vs_5,25,10,6,1,0,1,HIT,798
1,2_vs_5,26,10,3,1,0,1,HIT,872
1,2_vs_5,27,10,12,1,0,1,HIT,585
1,2_vs_5,28,10,3,1,0,1,HIT,432
1,2_vs_5,29,10,12,0,0,1,TNEG,1729
1,2_vs_5,30,10,6,1,0,1,HIT,1294
1,2_vs_5,31,10,18,0,0,1,TNEG,1581
1,2_vs_5,32,10,12,0,0,1,TNEG,1433
1,2_vs_5,33,10,18,1,0,1,HIT,892
1,2_vs_5,34,10,6,1,0,1,HIT,526
1,2_vs_5,35,10,6,0,0,1,TNEG,1205
1,2_vs_5,36,10,6,1,0,1,HIT,470
1,2_vs_5,37,10,3,0,0,1,TNEG,568
1,2_vs_5,38,10,3,1,0,1,HIT,865
1,2_vs_5,39,10,6,0,0,1,TNEG,910
1,2_vs_5,40,10,3,0,0,1,TNEG,544
1,2_vs_5,41,10,12,0,0,1,TNEG,1592
1,2_vs_5,42,10,6,0,0,1,TNEG,878
1,2_vs_5,43,10,3,0,0,1,TNEG,696
1,2_vs_5,44,10,18,1,0,1,HIT,971
1,2_vs_5,45,10,3,1,0,1,HIT,512
1,2_vs_5,46,10,18,1,0,1,HIT,2483
1,2_vs_5,47,10,12,0,0,1,TNEG,1903
1,2_vs_5,48,10,3,1,0,1,HIT,487
1,2_vs_5,49,10,3,1,0,1,HIT,424
1,2_vs_5,50,10,6,0,0,1,TNEG,2046
1,2_vs_5,51,10,12,0,0,1,TNEG,1479
1,2_vs_5,52,10,12,1,0,1,HIT,840
1,2_vs_5,53,10,3,0,0,1,TNEG,776
1,2_vs_5,54,10,12,0,0,1,TNEG,2224
1,2_vs_5,55,10,3,0,0,1,TNEG,784
1,2_vs_5,56,10,6,1,0,1,HIT,941
1,2_vs_5,57,10,18,0,0,1,TNEG,1914
1,2_vs_5,58,10,12,1,0,1,HIT,744
1,2_vs_5,59,10,6,1,0,1,HIT,596
1,2_vs_5,60,10,6,1,0,1,HIT,997
1,2_vs_5,61,10,12,1,0,1,HIT,616
1,2_vs_5,62,10,3,0,0,1,TNEG,792
1,2_vs_5,63,10,3,0,0,1,TNEG,584
1,2_vs_5,64,10,12,0,0,1,TNEG,1584
1,2_vs_5,65,10,18,0,0,1,TNEG,1619
1,2_vs_5,66,10,12,0,0,1,TNEG,2080
1,2_vs_5,67,10,6,1,0,1,HIT,493
1,2_vs_5,68,10,18,1,0,1,HIT,995
1,2_vs_5,69,10,3,1,0,1,HIT,599
1,2_vs_5,70,10,12,0,0,1,TNEG,1144
1,2_vs_5,71,10,12,1,0,1,HIT,536
1,2_vs_5,72,10,3,0,0,1,TNEG,904
1,2_vs_5,73,10,3,1,0,1,HIT,816
1,2_vs_5,74,10,12,0,0,1,TNEG,1360
1,2_vs_5,75,10,6,0,0,1,TNEG,797
1,2_vs_5,76,10,12,1,0,1,HIT,648
1,2_vs_5,77,10,6,1,0,1,HIT,717
1,2_vs_5,78,10,12,0,0,1,TNEG,1856
1,2_vs_5,79,10,6,0,0,1,TNEG,1357
1,2_vs_5,80,10,3,1,0,1,HIT,487
1,2_vs_5,81,10,6,1,0,1,HIT,669
1,2_vs_5,82,10,3,1,0,1,HIT,719
1,2_vs_5,83,10,6,1,0,1,HIT,557
1,2_vs_5,84,10,18,1,0,1,HIT,1571
1,2_vs_5,85,10,18,0,0,1,TNEG,2003
1,2_vs_5,86,10,3,0,0,1,TNEG,647
1,2_vs_5,87,10,18,1,0,1,HIT,522
1,2_vs_5,88,10,3,0,0,1,TNEG,631
1,2_vs_5,89,10,18,1,1,0,MISS,1705
1,2_vs_5,90,10,12,1,0,1,HIT,1295
1,2_vs_5,91,10,6,1,0,1,HIT,1165
1,2_vs_5,92,10,12,1,0,1,HIT,1624
1,2_vs_5,93,10,12,0,0,1,TNEG,1231
1,2_vs_5,94,10,12,0,0,1,TNEG,1776
1,2_vs_5,95,10,6,1,1,0,MISS,877
1,2_vs_5,96,10,18,0,0,1,TNEG,1475
1,2_vs_5,97,10,18,0,0,1,TNEG,2442
1,2_vs_5,98,10,12,0,0,1,TNEG,1632
1,2_vs_5,99,10,3,0,0,1,TNEG,704
1,2_vs_5,100,10,12,1,0,1,HIT,1368
1,2_vs_5,101,10,6,0,0,1,TNEG,1109
1,2_vs_5,102,10,18,1,0,1,HIT,1083
1,2_vs_5,103,10,6,1,0,1,HIT,965
1,2_vs_5,104,10,6,1,0,1,HIT,1149
1,2_vs_5,105,10,6,1,0,1,HIT,765
1,2_vs_5,106,10,3,0,0,1,TNEG,720
1,2_vs_5,107,10,18,1,0,1,HIT,2490
1,2_vs_5,108,10,6,1,0,1,HIT,484
1,2_vs_5,109,10,3,1,0,1,HIT,623
1,2_vs_5,110,10,6,1,0,1,HIT,838
1,2_vs_5,111,10,12,0,0,1,TNEG,1624
1,2_vs_5,112,10,18,0,0,1,TNEG,2459
1,2_vs_5,113,10,6,1,0,1,HIT,949
1,2_vs_5,114,10,3,1,0,1,HIT,504
1,2_vs_5,115,10,18,0,0,1,TNEG,1705
1,2_vs_5,117,10,18,1,0,1,HIT,563
1,2_vs_5,118,10,6,0,0,1,TNEG,933
1,2_vs_5,119,10,3,1,0,1,HIT,663
1,2_vs_5,120,10,12,1,0,1,HIT,600
1,2_vs_5,121,10,12,1,0,1,HIT,800
1,2_vs_5,122,10,6,0,0,1,TNEG,862
1,2_vs_5,123,10,12,1,0,1,HIT,1542
1,2_vs_5,124,10,3,0,0,1,TNEG,856
1,2_vs_5,125,10,18,0,0,1,TNEG,1914
1,2_vs_5,126,10,12,0,0,1,TNEG,1623
1,2_vs_5,127,10,6,0,0,1,TNEG,1117
1,2_vs_5,128,10,18,0,0,1,TNEG,1699
1,2_vs_5,129,10,12,0,0,1,TNEG,1359
1,2_vs_5,130,10,18,1,0,1,HIT,850
1,2_vs_5,131,10,3,0,0,1,TNEG,680
1,2_vs_5,132,10,18,1,0,1,HIT,803
1,2_vs_5,133,10,18,0,0,1,TNEG,1475
1,2_vs_5,134,10,6,1,0,1,HIT,709
1,2_vs_5,135,10,3,1,0,1,HIT,840
1,2_vs_5,136,10,18,1,0,1,HIT,683
1,2_vs_5,137,10,18,0,0,1,TNEG,1547
1,2_vs_5,138,10,3,0,0,1,TNEG,559
1,2_vs_5,139,10,12,1,0,1,HIT,1239
1,2_vs_5,140,10,6,0,0,1,TNEG,1030
1,2_vs_5,141,10,6,0,0,1,TNEG,1133
1,2_vs_5,142,10,3,0,0,1,TNEG,703
1,2_vs_5,143,10,18,1,0,1,HIT,1443
1,2_vs_5,144,10,18,1,0,1,HIT,1699
1,2_vs_5,145,10,12,0,0,1,TNEG,1327
1,2_vs_5,146,10,12,1,0,1,HIT,631
1,2_vs_5,147,10,6,0,0,1,TNEG,1045
1,2_vs_5,148,10,18,0,0,1,TNEG,2931
1,2_vs_5,149,10,6,0,0,1,TNEG,1093
1,2_vs_5,150,10,6,0,0,1,TNEG,965
1,2_vs_5,151,10,6,1,0,1,HIT,1028
1,2_vs_5,152,10,18,0,0,1,TNEG,3779
1,2_vs_5,153,10,6,0,0,1,TNEG,1005
1,2_vs_5,154,10,12,1,0,1,HIT,495
1,2_vs_5,155,10,3,0,0,1,TNEG,760
1,2_vs_5,156,10,18,0,0,1,TNEG,1787
1,2_vs_5,157,10,12,0,0,1,TNEG,1655
1,2_vs_5,158,10,12,0,0,1,TNEG,2000
1,2_vs_5,159,10,3,0,0,1,TNEG,711
1,2_vs_5,160,10,3,0,0,1,TNEG,584
1,2_vs_5,161,10,12,1,0,1,HIT,1080
1,2_vs_5,162,10,6,1,0,1,HIT,813
1,2_vs_5,163,10,6,1,0,1,HIT,781
1,2_vs_5,164,10,12,1,0,1,HIT,1216
1,2_vs_5,165,10,6,0,0,1,TNEG,901
1,2_vs_5,166,10,6,1,0,1,HIT,541
1,2_vs_5,167,10,3,1,0,1,HIT,696
1,2_vs_5,168,10,3,1,0,1,HIT,480
1,2_vs_5,169,10,6,1,0,1,HIT,469
1,2_vs_5,170,10,3,0,0,1,TNEG,639
1,2_vs_5,171,10,6,0,0,1,TNEG,1029
1,2_vs_5,172,10,18,1,0,1,HIT,1467
1,2_vs_5,173,10,18,1,0,1,HIT,1443
1,2_vs_5,174,10,6,0,0,1,TNEG,981
1,2_vs_5,175,10,6,0,0,1,TNEG,1005
1,2_vs_5,176,10,18,1,1,0,MISS,1858
1,2_vs_5,177,10,6,1,0,1,HIT,541
1,2_vs_5,178,10,18,1,0,1,HIT,459
1,2_vs_5,179,10,3,1,0,1,HIT,535
1,2_vs_5,180,10,3,1,0,1,HIT,672
1,2_vs_5,181,10,12,0,0,1,TNEG,2560
1,2_vs_5,182,10,6,0,0,1,TNEG,1013
1,2_vs_5,183,10,12,0,0,1,TNEG,1280
1,2_vs_5,184,10,18,0,0,1,TNEG,1507
1,2_vs_5,185,10,12,0,0,1,TNEG,1695
1,2_vs_5,186,10,18,0,0,1,TNEG,2147
1,2_vs_5,187,10,18,1,0,1,HIT,802
1,2_vs_5,188,10,12,0,0,1,TNEG,936
1,2_vs_5,189,10,12,0,0,1,TNEG,1552
1,2_vs_5,190,10,18,0,0,1,TNEG,1571
1,2_vs_5,191,10,12,0,0,1,TNEG,840
1,2_vs_5,192,10,18,0,0,1,TNEG,1442
1,2_vs_5,193,10,3,1,0,1,HIT,815
1,2_vs_5,194,10,3,0,0,1,TNEG,800
1,2_vs_5,195,10,6,1,0,1,HIT,1197
1,2_vs_5,196,10,3,1,0,1,HIT,616
1,2_vs_5,197,10,3,1,0,1,HIT,975
1,2_vs_5,198,10,6,0,0,1,TNEG,1612
1,2_vs_5,199,10,12,0,0,1,TNEG,2727
1,2_vs_5,200,10,6,1,0,1,HIT,1093
1,2_vs_5,201,10,3,1,0,1,HIT,607
1,2_vs_5,202,10,12,0,0,1,TNEG,2128
1,2_vs_5,203,10,18,1,0,1,HIT,1283
1,2_vs_5,204,10,18,1,0,1,HIT,1531
1,2_vs_5,205,10,12,1,0,1,HIT,736
1,2_vs_5,206,10,3,0,0,1,TNEG,814
1,2_vs_5,207,10,18,1,0,1,HIT,1146
1,2_vs_5,208,10,18,1,0,1,HIT,1331
1,2_vs_5,209,10,6,0,0,1,TNEG,1053
1,2_vs_5,210,10,3,0,0,1,TNEG,751
1,2_vs_5,211,10,3,1,1,0,MISS,736
1,2_vs_5,212,10,12,1,0,1,HIT,696
1,2_vs_5,213,10,3,1,0,1,HIT,816
1,2_vs_5,214,10,3,1,0,1,HIT,744
1,2_vs_5,215,10,3,0,0,1,TNEG,727
1,2_vs_5,216,10,18,0,0,1,TNEG,3035
1,2_vs_5,217,10,18,0,0,1,TNEG,2074
1,2_vs_5,218,10,12,1,0,1,HIT,1016
1,2_vs_5,219,10,3,1,0,1,HIT,615
1,2_vs_5,220,10,6,0,1,0,FA,797
1,2_vs_5,221,10,3,0,0,1,TNEG,743
1,2_vs_5,222,10,18,1,0,1,HIT,2186
1,2_vs_5,223,10,18,1,0,1,HIT,794
1,2_vs_5,224,10,6,1,0,1,HIT,909
1,2_vs_5,225,10,3,1,0,1,HIT,567
1,2_vs_5,226,10,18,0,0,1,TNEG,2859
1,2_vs_5,227,10,18,1,1,0,MISS,1579
1,2_vs_5,228,10,18,0,0,1,TNEG,1571
1,2_vs_5,229,10,6,1,0,1,HIT,1221
1,2_vs_5,230,10,18,1,0,1,HIT,770
1,2_vs_5,231,10,12,1,0,1,HIT,543
1,2_vs_5,232,10,12,0,0,1,TNEG,1231
1,2_vs_5,233,10,3,1,0,1,HIT,832
1,2_vs_5,234,10,6,0,1,0,FA,885
1,2_vs_5,235,10,18,1,0,1,HIT,1178
1,2_vs_5,236,10,6,0,0,1,TNEG,1221
1,2_vs_5,237,10,6,0,0,1,TNEG,5733
1,2_vs_5,238,10,3,1,0,1,HIT,879
1,2_vs_5,239,10,6,1,0,1,HIT,732
1,2_vs_5,240,10,12,1,0,1,HIT,496
1,2_vs_5,241,10,6,1,0,1,HIT,837
1,2_vs_5,242,10,12,0,0,1,TNEG,1576
1,2_vs_5,243,10,6,0,0,1,TNEG,829
1,2_vs_5,244,10,18,1,0,1,HIT,1515
1,2_vs_5,245,10,18,1,0,1,HIT,930
1,2_vs_5,246,10,6,1,0,1,HIT,893
1,2_vs_5,247,10,12,0,0,1,TNEG,1264
1,2_vs_5,248,10,18,0,0,1,TNEG,1627
1,2_vs_5,249,10,12,1,0,1,HIT,784
1,2_vs_5,250,10,18,1,0,1,HIT,627
1,2_vs_5,251,10,18,0,0,1,TNEG,1395
1,2_vs_5,252,10,18,0,0,1,TNEG,1146
1,2_vs_5,253,10,12,1,0,1,HIT,463
1,2_vs_5,254,10,3,1,0,1,HIT,566
1,2_vs_5,255,10,3,1,1,0,MISS,736
1,2_vs_5,256,10,3,0,0,1,TNEG,864
1,2_vs_5,257,10,12,0,0,1,TNEG,1087
1,2_vs_5,258,10,3,0,0,1,TNEG,615
1,2_vs_5,259,10,12,1,0,1,HIT,720
1,2_vs_5,260,10,18,0,0,1,TNEG,2547
1,2_vs_5,261,10,6,0,0,1,TNEG,845
1,2_vs_5,262,10,3,0,0,1,TNEG,552
1,2_vs_5,263,10,6,0,0,1,TNEG,677
1,2_vs_5,264,10,3,0,0,1,TNEG,607
1,2_vs_5,265,10,12,0,0,1,TNEG,1056
1,2_vs_5,266,10,6,0,0,1,TNEG,725
1,2_vs_5,267,10,18,1,0,1,HIT,1482
1,2_vs_5,268,10,12,1,0,1,HIT,992
1,2_vs_5,269,10,6,1,0,1,HIT,901
1,2_vs_5,270,10,18,0,0,1,TNEG,1187
1,2_vs_5,271,10,3,0,0,1,TNEG,576
1,2_vs_5,272,10,18,1,0,1,HIT,1491
1,2_vs_5,273,10,6,1,0,1,HIT,749
1,2_vs_5,274,10,6,0,0,1,TNEG,1141
1,2_vs_5,275,10,6,1,0,1,HIT,1125
1,2_vs_5,276,10,12,1,0,1,HIT,1784
1,2_vs_5,277,10,3,1,0,1,HIT,695
1,2_vs_5,278,10,18,0,0,1,TNEG,3051
1,2_vs_5,279,10,18,1,0,1,HIT,1569
1,2_vs_5,280,10,12,1,0,1,HIT,1392
1,2_vs_5,281,10,12,0,0,1,TNEG,1791
1,2_vs_5,282,10,12,0,0,1,TNEG,2240
1,2_vs_5,283,10,12,0,0,1,TNEG,1744
1,2_vs_5,284,10,18,0,0,1,TNEG,2811
1,2_vs_5,285,10,6,0,0,1,TNEG,1197
1,2_vs_5,286,10,3,0,0,1,TNEG,855
1,2_vs_5,287,10,12,0,0,1,TNEG,1304
1,2_vs_5,288,10,12,0,0,1,TNEG,1448
1,2_vs_5,289,10,18,0,0,1,TNEG,1723
1,2_vs_5,290,10,6,0,0,1,TNEG,1437
1,2_vs_5,291,10,3,1,0,1,HIT,719
1,2_vs_5,292,10,12,0,0,1,TNEG,2272
1,2_vs_5,293,10,12,0,0,1,TNEG,2456
1,2_vs_5,294,10,18,1,0,1,HIT,817
1,2_vs_5,295,10,3,1,0,1,HIT,496
1,2_vs_5,296,10,3,1,0,1,HIT,528
1,2_vs_5,297,10,18,1,0,1,HIT,1107
1,2_vs_5,298,10,12,1,0,1,HIT,488
1,2_vs_5,299,10,6,0,0,1,TNEG,781
1,2_vs_5,300,10,18,1,0,1,HIT,579
1,2_vs_5,1,11,12,1,0,1,HIT,1138
1,2_vs_5,2,11,3,0,0,1,TNEG,530
1,2_vs_5,3,11,6,1,0,1,HIT,597
1,2_vs_5,4,11,18,1,1,0,MISS,2270
1,2_vs_5,5,11,18,0,0,1,TNEG,1954
1,2_vs_5,6,11,6,0,0,1,TNEG,957
1,2_vs_5,7,11,18,1,0,1,HIT,1459
1,2_vs_5,8,11,18,0,0,1,TNEG,1182
1,2_vs_5,9,11,3,0,0,1,TNEG,541
1,2_vs_5,10,11,3,1,0,1,HIT,517
1,2_vs_5,11,11,12,0,0,1,TNEG,924
1,2_vs_5,12,11,3,1,0,1,HIT,809
1,2_vs_5,13,11,6,0,0,1,TNEG,662
1,2_vs_5,14,11,3,0,0,1,TNEG,519
1,2_vs_5,15,11,3,0,0,1,TNEG,519
