SubjID,BlockNr,Sequence,Trial,Stability,MeanSize,MeanSizeDeg,SetSize,BuildOrTest,TargetOri,Response,ACC,RT
1,1,1,1,1,111,3,20,0,45,45,1,10641.84
1,1,1,2,1,111,3,20,0,45,45,1,6068.72
1,1,1,3,1,111,3,20,0,45,45,1,5583.64
1,1,1,4,1,111,3,20,1,45,45,1,3812.56
1,1,1,5,1,111,3,20,1,45,45,1,3829.67
1,1,1,6,1,111,3,20,1,-45,-45,1,6195.28
1,1,2,1,1,55.5,1.5,20,0,-45,-45,1,12191.2
1,1,2,2,1,55.5,1.5,20,0,-45,-45,1,3686.84
1,1,2,3,1,55.5,1.5,20,0,45,45,1,6995.99
1,1,2,4,1,55.5,1.5,20,1,-45,-45,1,5451.87
1,1,2,5,1,55.5,1.5,20,1,-45,-45,1,7956.42
1,1,2,6,1,55.5,1.5,20,1,-45,-45,1,5156.62
1,1,3,1,1,74,2,10,0,-45,-45,1,3304.93
1,1,3,2,1,74,2,10,0,45,45,1,5584.33
1,1,3,3,1,74,2,10,0,-45,-45,1,2302.98
1,1,3,4,1,74,2,10,1,-45,-45,1,4876.88
1,1,3,5,1,74,2,10,1,-45,-45,1,2974.57
1,1,3,6,1,74,2,10,1,-45,-45,1,3861.12
1,1,4,1,1,55.5,1.5,10,0,-45,-45,1,2489.67
1,1,4,2,1,55.5,1.5,10,0,-45,-45,1,3931.29
1,1,4,3,1,55.5,1.5,10,0,45,45,1,2528.88
1,1,4,4,1,55.5,1.5,10,1,45,45,1,1547.4
1,1,4,5,1,55.5,1.5,10,1,45,45,1,1220.07
1,1,4,6,1,55.5,1.5,10,1,45,45,1,987.01
1,1,5,1,1,74,2,30,0,-45,-45,1,4489.11
1,1,5,2,1,74,2,30,0,-45,-45,1,8446.31
1,1,5,3,1,74,2,30,0,45,45,1,9008.58
1,1,5,4,1,74,2,30,1,-45,-45,1,3844.03
1,1,5,5,1,74,2,30,1,45,45,1,6209.16
1,1,5,6,1,74,2,30,1,-45,-45,1,3183.18
1,1,6,1,1,92.5,2.5,10,0,-45,-45,1,3367.01
1,1,6,2,1,92.5,2.5,10,0,45,45,0,16192.71
1,1,6,3,1,92.5,2.5,10,0,45,45,1,8068.51
1,1,6,4,1,92.5,2.5,10,1,-45,-45,1,3693.59
1,1,6,5,1,92.5,2.5,10,1,-45,-45,1,8667.34
1,1,6,6,1,92.5,2.5,10,1,-45,-45,1,2150.71
1,1,7,1,1,92.5,2.5,30,0,45,45,1,7597.5
1,1,7,2,1,92.5,2.5,30,0,-45,45,0,10343.96
1,1,7,3,1,92.5,2.5,30,0,45,45,1,2142.42
1,1,7,4,1,92.5,2.5,30,1,45,45,1,3665.16
1,1,7,5,1,92.5,2.5,30,1,45,45,1,7810.61
1,1,7,6,1,92.5,2.5,30,1,45,45,1,11635.24
1,1,8,1,1,74,2,20,0,45,45,1,4947.99
1,1,8,2,1,74,2,20,0,45,45,1,2487.21
1,1,8,3,1,74,2,20,0,45,45,1,2216.13
1,1,8,4,1,74,2,20,1,-45,-45,1,1398.48
1,1,8,5,1,74,2,20,1,-45,-45,1,3166
1,1,8,6,1,74,2,20,1,-45,-45,1,3006.39
1,1,9,1,1,55.5,1.5,30,0,-45,-45,1,4164.14
1,1,9,2,1,55.5,1.5,30,0,-45,-45,1,3517.83
1,1,9,3,1,55.5,1.5,30,0,-45,-45,1,1429.84
1,1,9,4,1,55.5,1.5,30,1,-45,-45,1,2082.47
1,1,9,5,1,55.5,1.5,30,1,45,45,1,4073.04
1,1,9,6,1,55.5,1.5,30,1,-45,-45,1,957.78
1,1,10,1,1,111,3,10,0,-45,45,0,5515.59
1,1,10,2,1,111,3,10,0,45,45,1,5719.7
1,1,10,3,1,111,3,10,0,-45,-45,1,9879.2
1,1,10,4,1,111,3,10,1,-45,-45,1,2549.49
1,1,10,5,1,111,3,10,1,45,45,1,1724.09
1,1,10,6,1,111,3,10,1,-45,45,0,7433.26
1,1,11,1,1,111,3,30,0,-45,-45,1,8282.82
1,1,11,2,1,111,3,30,0,-45,45,0,10026.27
1,1,11,3,1,111,3,30,0,-45,-45,1,6316.53
1,1,11,4,1,111,3,30,1,-45,45,0,7255.45
1,1,11,5,1,111,3,30,1,45,45,1,13823.57
1,1,11,6,1,111,3,30,1,-45,-45,1,8175.01
1,1,12,1,1,92.5,2.5,20,0,-45,-45,1,3232.29
1,1,12,2,1,92.5,2.5,20,0,-45,-45,1,2445.13
1,1,12,3,1,92.5,2.5,20,0,-45,-45,1,3858.85
1,1,12,4,1,92.5,2.5,20,1,45,45,1,3049.69
1,1,12,5,1,92.5,2.5,20,1,-45,-45,1,1612.67
1,1,12,6,1,92.5,2.5,20,1,45,45,1,1876.67
1,2,13,1,1,111,3,30,0,45,45,1,5656.97
1,2,13,2,1,111,3,30,0,-45,-45,1,3481.26
1,2,13,3,1,111,3,30,0,45,45,1,4279.97
1,2,13,4,1,111,3,30,1,-45,-45,1,4608.69
1,2,13,5,1,111,3,30,1,-45,-45,1,4791.6
1,2,13,6,1,111,3,30,1,45,45,1,1917.82
1,2,14,1,2,74,2,30,0,-45,-45,1,2793.37
1,2,14,2,2,74,2,30,0,45,45,1,2210.78
1,2,14,3,2,74,2,30,0,45,45,1,2377.18
1,2,14,4,2,111,3,30,1,45,45,1,1338.11
1,2,14,5,2,55.5,1.5,30,1,45,45,1,4082.26
1,2,14,6,2,92.5,2.5,30,1,45,45,1,6845
1,2,15,1,2,74,2,10,0,45,45,1,1086.78
1,2,15,2,2,74,2,10,0,-45,-45,1,1722.47
1,2,15,3,2,74,2,10,0,45,45,1,1139.7
1,2,15,4,2,92.5,2.5,10,1,-45,-45,1,2139.71
1,2,15,5,2,55.5,1.5,10,1,-45,-45,1,1610.92
1,2,15,6,2,74,2,10,1,45,45,1,1898.75
1,2,16,1,2,92.5,2.5,30,0,-45,45,0,10903.98
1,2,16,2,2,92.5,2.5,30,0,-45,-45,1,8912.09
1,2,16,3,2,92.5,2.5,30,0,-45,-45,1,1184.12
1,2,16,4,2,74,2,30,1,-45,-45,1,1705.23
1,2,16,5,2,55.5,1.5,30,1,-45,-45,1,1498.21
1,2,16,6,2,92.5,2.5,30,1,45,45,1,3728.46
1,2,17,1,1,74,2,30,0,45,45,1,1701.94
1,2,17,2,1,74,2,30,0,-45,-45,1,2906.82
1,2,17,3,1,74,2,30,0,-45,-45,1,6676.14
1,2,17,4,1,74,2,30,1,-45,-45,1,2033.31
1,2,17,5,1,74,2,30,1,45,45,1,1638.47
1,2,17,6,1,74,2,30,1,-45,-45,1,1673.59
1,2,18,1,1,74,2,30,0,45,45,1,1868.08
1,2,18,2,1,74,2,30,0,45,45,1,3735.1
1,2,18,3,1,74,2,30,0,-45,-45,1,1436.76
1,2,18,4,1,74,2,30,1,45,45,1,1597.96
1,2,18,5,1,74,2,30,1,45,45,1,1212.4
1,2,18,6,1,74,2,30,1,-45,-45,1,1906.15
1,2,19,1,2,111,3,30,0,45,45,1,7038.19
1,2,19,2,2,111,3,30,0,45,45,1,11245.56
1,2,19,3,2,111,3,30,0,-45,-45,1,3537.4
1,2,19,4,2,55.5,1.5,30,1,-45,-45,1,4217.76
1,2,19,5,2,92.5,2.5,30,1,-45,-45,1,4085.34
1,2,19,6,2,111,3,30,1,45,-45,0,12075.79
1,2,20,1,1,111,3,10,0,-45,-45,1,2712.52
1,2,20,2,1,111,3,10,0,-45,-45,1,2511.41
1,2,20,3,1,111,3,10,0,45,45,1,2420.53
1,2,20,4,1,111,3,10,1,-45,-45,1,3606.51
1,2,20,5,1,111,3,10,1,45,45,1,1688.66
1,2,20,6,1,111,3,10,1,45,45,1,1140.24
1,2,21,1,1,55.5,1.5,20,0,-45,-45,1,3262.38
1,2,21,2,1,55.5,1.5,20,0,45,45,1,1699.69
1,2,21,3,1,55.5,1.5,20,0,-45,-45,1,4468.38
1,2,21,4,1,55.5,1.5,20,1,-45,-45,1,1287.61
1,2,21,5,1,55.5,1.5,20,1,-45,-45,1,1523.29
1,2,21,6,1,55.5,1.5,20,1,45,45,1,2798.47
1,2,22,1,2,74,2,10,0,45,45,1,2157.9
1,2,22,2,2,74,2,10,0,45,45,1,2747.45
1,2,22,3,2,74,2,10,0,-45,-45,1,3584.74
1,2,22,4,2,111,3,10,1,-45,-45,1,6888.39
1,2,22,5,2,55.5,1.5,10,1,45,45,1,3579.61
1,2,22,6,2,74,2,10,1,45,45,1,2035.64
1,2,23,1,1,111,3,30,0,45,45,1,9310.71
1,2,23,2,1,111,3,30,0,-45,-45,1,3259.29
1,2,23,3,1,111,3,30,0,-45,-45,1,3494.87
1,2,23,4,1,111,3,30,1,45,45,1,4185.84
1,2,23,5,1,111,3,30,1,-45,-45,1,5623.5
1,2,23,6,1,111,3,30,1,45,45,1,1691.7
1,2,24,1,1,55.5,1.5,30,0,45,45,1,2871.8
1,2,24,2,1,55.5,1.5,30,0,45,45,1,4144.75
1,2,24,3,1,55.5,1.5,30,0,-45,-45,1,2197.02
1,2,24,4,1,55.5,1.5,30,1,45,45,1,1409.11
1,2,24,5,1,55.5,1.5,30,1,-45,-45,1,2262.95
1,2,24,6,1,55.5,1.5,30,1,-45,-45,1,1053.45
1,3,25,1,2,92.5,2.5,20,0,-45,-45,1,6819.04
1,3,25,2,2,92.5,2.5,20,0,-45,-45,1,2567.57
1,3,25,3,2,92.5,2.5,20,0,-45,-45,1,8154
1,3,25,4,2,55.5,1.5,20,1,45,45,1,4331.47
1,3,25,5,2,92.5,2.5,20,1,-45,-45,1,4794.1
1,3,25,6,2,74,2,20,1,-45,-45,1,4514.36
1,3,26,1,1,74,2,10,0,45,45,1,1709.17
1,3,26,2,1,74,2,10,0,45,45,1,1646.18
1,3,26,3,1,74,2,10,0,45,45,1,3923.23
1,3,26,4,1,74,2,10,1,45,45,1,917.47
1,3,26,5,1,74,2,10,1,-45,-45,1,1167.16
1,3,26,6,1,74,2,10,1,-45,-45,1,1337.49
1,3,27,1,2,74,2,10,0,45,45,1,1739.61
1,3,27,2,2,74,2,10,0,-45,-45,1,850.6
1,3,27,3,2,74,2,10,0,45,45,1,2416.71
1,3,27,4,2,55.5,1.5,10,1,45,45,1,1719.39
1,3,27,5,2,74,2,10,1,45,45,1,700.25
1,3,27,6,2,92.5,2.5,10,1,45,45,1,931.69
1,3,28,1,1,92.5,2.5,20,0,-45,-45,1,1877.39
1,3,28,2,1,92.5,2.5,20,0,-45,-45,1,4810.39
1,3,28,3,1,92.5,2.5,20,0,45,45,1,2659.76
1,3,28,4,1,92.5,2.5,20,1,-45,-45,1,1500.98
1,3,28,5,1,92.5,2.5,20,1,-45,-45,1,2654.45
1,3,28,6,1,92.5,2.5,20,1,-45,-45,1,7020.68
1,3,29,1,1,92.5,2.5,10,0,-45,-45,1,2524.5
1,3,29,2,1,92.5,2.5,10,0,45,45,1,1118.25
1,3,29,3,1,92.5,2.5,10,0,-45,-45,1,3681.23
1,3,29,4,1,92.5,2.5,10,1,-45,-45,1,2417.85
1,3,29,5,1,92.5,2.5,10,1,-45,-45,1,2736.88
1,3,29,6,1,92.5,2.5,10,1,-45,-45,1,2574.36
1,3,30,1,2,55.5,1.5,10,0,-45,-45,1,5196.43
1,3,30,2,2,55.5,1.5,10,0,45,45,1,1205.27
1,3,30,3,2,55.5,1.5,10,0,45,45,1,1551.14
1,3,30,4,2,74,2,10,1,-45,-45,1,4827.42
1,3,30,5,2,92.5,2.5,10,1,-45,-45,1,12195.15
1,3,30,6,2,111,3,10,1,-45,-45,1,3047.18
1,3,31,1,2,111,3,10,0,45,45,1,2223.22
1,3,31,2,2,111,3,10,0,45,45,1,5818.51
1,3,31,3,2,111,3,10,0,45,45,1,4329.51
1,3,31,4,2,55.5,1.5,10,1,-45,-45,1,2033.45
1,3,31,5,2,74,2,10,1,45,45,1,2618.5
1,3,31,6,2,92.5,2.5,10,1,45,45,1,1383.3
1,3,32,1,2,55.5,1.5,10,0,-45,-45,1,3421.74
1,3,32,2,2,55.5,1.5,10,0,-45,-45,1,2117.26
1,3,32,3,2,55.5,1.5,10,0,45,45,1,1522.93
1,3,32,4,2,111,3,10,1,-45,-45,1,2060.43
1,3,32,5,2,92.5,2.5,10,1,45,45,1,3914.44
1,3,32,6,2,55.5,1.5,10,1,45,45,1,3596.24
1,3,33,1,1,55.5,1.5,30,0,45,45,1,1984.46
1,3,33,2,1,55.5,1.5,30,0,-45,-45,1,821.44
1,3,33,3,1,55.5,1.5,30,0,-45,-45,1,2007.91
1,3,33,4,1,55.5,1.5,30,1,-45,-45,1,2514.06
1,3,33,5,1,55.5,1.5,30,1,-45,-45,1,3278
1,3,33,6,1,55.5,1.5,30,1,-45,-45,1,1055.2
1,3,34,1,2,74,2,30,0,45,45,1,5014.08
1,3,34,2,2,74,2,30,0,-45,-45,1,2627.63
1,3,34,3,2,74,2,30,0,45,45,1,1669.77
1,3,34,4,2,111,3,30,1,45,45,1,3880.07
1,3,34,5,2,55.5,1.5,30,1,45,45,1,1958.62
1,3,34,6,2,74,2,30,1,-45,-45,1,1032.67
1,3,35,1,2,111,3,20,0,-45,-45,1,1670.55
1,3,35,2,2,111,3,20,0,45,45,1,2983.2
1,3,35,3,2,111,3,20,0,-45,-45,1,2578.13
1,3,35,4,2,55.5,1.5,20,1,-45,-45,1,6750.8
1,3,35,5,2,92.5,2.5,20,1,45,45,1,3761.48
1,3,35,6,2,111,3,20,1,-45,-45,1,2615.67
1,3,36,1,2,74,2,30,0,-45,-45,1,5281.47
1,3,36,2,2,74,2,30,0,45,45,1,1128.88
1,3,36,3,2,74,2,30,0,45,45,1,5452.21
1,3,36,4,2,92.5,2.5,30,1,-45,-45,1,3387.34
1,3,36,5,2,55.5,1.5,30,1,-45,-45,1,2560.47
1,3,36,6,2,74,2,30,1,-45,-45,1,5733.67
1,4,37,1,1,92.5,2.5,30,0,-45,-45,1,4934.26
1,4,37,2,1,92.5,2.5,30,0,45,45,1,8493.82
1,4,37,3,1,92.5,2.5,30,0,-45,-45,1,2050.64
1,4,37,4,1,92.5,2.5,30,1,-45,-45,1,5943.3
1,4,37,5,1,92.5,2.5,30,1,45,45,1,3841.59
1,4,37,6,1,92.5,2.5,30,1,45,45,1,7133.14
1,4,38,1,1,111,3,30,0,45,-45,0,3502.76
1,4,38,2,1,111,3,30,0,-45,-45,1,7557.02
1,4,38,3,1,111,3,30,0,45,45,1,12569.23
1,4,38,4,1,111,3,30,1,-45,-45,1,3529.66
1,4,38,5,1,111,3,30,1,45,45,1,5081.31
1,4,38,6,1,111,3,30,1,-45,-45,1,1805.35
1,4,39,1,2,74,2,30,0,-45,-45,1,9546.42
1,4,39,2,2,74,2,30,0,45,45,1,2195.34
1,4,39,3,2,74,2,30,0,-45,-45,1,9231.12
1,4,39,4,2,92.5,2.5,30,1,45,45,1,1520.34
1,4,39,5,2,111,3,30,1,45,45,1,2870.97
1,4,39,6,2,74,2,30,1,-45,-45,1,1138.72
1,4,40,1,1,55.5,1.5,10,0,45,45,1,2662.24
1,4,40,2,1,55.5,1.5,10,0,45,45,1,1176.07
1,4,40,3,1,55.5,1.5,10,0,45,45,1,858.83
1,4,40,4,1,55.5,1.5,10,1,-45,-45,1,1079.7
1,4,40,5,1,55.5,1.5,10,1,-45,-45,1,761.9
1,4,40,6,1,55.5,1.5,10,1,-45,-45,1,1042.49
1,4,41,1,2,55.5,1.5,30,0,45,45,1,901.2
1,4,41,2,2,55.5,1.5,30,0,-45,-45,1,840.57
1,4,41,3,2,55.5,1.5,30,0,45,45,1,1358.92
1,4,41,4,2,74,2,30,1,45,45,1,1594.13
1,4,41,5,2,92.5,2.5,30,1,-45,-45,1,4556.2
1,4,41,6,2,111,3,30,1,45,45,1,1415.09
1,4,42,1,1,55.5,1.5,30,0,-45,-45,1,4403.52
1,4,42,2,1,55.5,1.5,30,0,-45,-45,1,1419.27
1,4,42,3,1,55.5,1.5,30,0,-45,-45,1,995.03
1,4,42,4,1,55.5,1.5,30,1,45,45,1,1068.52
1,4,42,5,1,55.5,1.5,30,1,45,45,1,1073.01
1,4,42,6,1,55.5,1.5,30,1,-45,-45,1,3845.63
1,4,43,1,1,92.5,2.5,20,0,45,45,1,1096.96
1,4,43,2,1,92.5,2.5,20,0,45,45,1,7266.98
1,4,43,3,1,92.5,2.5,20,0,-45,-45,1,5233.3
1,4,43,4,1,92.5,2.5,20,1,45,45,1,1150.35
1,4,43,5,1,92.5,2.5,20,1,45,45,1,1509.04
1,4,43,6,1,92.5,2.5,20,1,-45,-45,1,1063.25
1,4,44,1,1,92.5,2.5,20,0,45,45,1,3943.42
1,4,44,2,1,92.5,2.5,20,0,45,45,1,2385.06
1,4,44,3,1,92.5,2.5,20,0,45,45,1,2974.95
1,4,44,4,1,92.5,2.5,20,1,-45,-45,1,4926.9
1,4,44,5,1,92.5,2.5,20,1,-45,-45,1,3022.52
1,4,44,6,1,92.5,2.5,20,1,-45,-45,1,2199.06
1,4,45,1,2,55.5,1.5,30,0,-45,-45,1,2876.08
1,4,45,2,2,55.5,1.5,30,0,45,45,1,749.66
1,4,45,3,2,55.5,1.5,30,0,45,45,1,912.64
1,4,45,4,2,92.5,2.5,30,1,45,45,1,2090.87
1,4,45,5,2,111,3,30,1,-45,-45,1,10211.44
1,4,45,6,2,74,2,30,1,-45,-45,1,1488.86
1,4,46,1,2,55.5,1.5,20,0,-45,-45,1,1444.64
1,4,46,2,2,55.5,1.5,20,0,-45,-45,1,900.2
1,4,46,3,2,55.5,1.5,20,0,-45,-45,1,1523.73
1,4,46,4,2,111,3,20,1,45,45,1,8367.54
1,4,46,5,2,55.5,1.5,20,1,-45,-45,1,3455.81
1,4,46,6,2,74,2,20,1,45,45,1,1890.3
1,4,47,1,1,55.5,1.5,30,0,45,45,1,1917.07
1,4,47,2,1,55.5,1.5,30,0,-45,-45,1,1216.2
1,4,47,3,1,55.5,1.5,30,0,-45,-45,1,1389.12
1,4,47,4,1,55.5,1.5,30,1,45,45,1,2309.46
1,4,47,5,1,55.5,1.5,30,1,-45,-45,1,1673.73
1,4,47,6,1,55.5,1.5,30,1,-45,-45,1,2153.28
1,4,48,1,1,92.5,2.5,10,0,-45,-45,1,1669.72
1,4,48,2,1,92.5,2.5,10,0,45,45,1,3962.22
1,4,48,3,1,92.5,2.5,10,0,-45,-45,1,1231.17
1,4,48,4,1,92.5,2.5,10,1,45,45,1,998.81
1,4,48,5,1,92.5,2.5,10,1,-45,-45,1,889.03
1,4,48,6,1,92.5,2.5,10,1,-45,-45,1,824.85
1,5,49,1,2,92.5,2.5,30,0,45,45,1,6279.36
1,5,49,2,2,92.5,2.5,30,0,-45,-45,1,3193.68
1,5,49,3,2,92.5,2.5,30,0,-45,-45,1,11553.74
1,5,49,4,2,111,3,30,1,-45,-45,1,2656.99
1,5,49,5,2,74,2,30,1,45,45,1,1122
1,5,49,6,2,92.5,2.5,30,1,-45,-45,1,1397.61
1,5,50,1,1,74,2,20,0,-45,-45,1,825.78
1,5,50,2,1,74,2,20,0,45,45,1,784.26
1,5,50,3,1,74,2,20,0,-45,-45,1,1488.53
1,5,50,4,1,74,2,20,1,-45,-45,1,9917.99
1,5,50,5,1,74,2,20,1,-45,-45,1,1998.65
1,5,50,6,1,74,2,20,1,45,45,1,1186.35
1,5,51,1,2,55.5,1.5,30,0,45,45,1,840.08
1,5,51,2,2,55.5,1.5,30,0,-45,-45,1,1424.36
1,5,51,3,2,55.5,1.5,30,0,-45,-45,1,1084.13
1,5,51,4,2,92.5,2.5,30,1,45,45,1,2598.92
1,5,51,5,2,74,2,30,1,45,45,1,2401.73
1,5,51,6,2,111,3,30,1,-45,-45,1,1084.38
1,5,52,1,2,92.5,2.5,10,0,45,45,1,1867.07
1,5,52,2,2,92.5,2.5,10,0,45,45,1,1356.01
1,5,52,3,2,92.5,2.5,10,0,-45,-45,1,841.48
1,5,52,4,2,111,3,10,1,-45,-45,1,2123.54
1,5,52,5,2,92.5,2.5,10,1,45,45,1,1668.82
1,5,52,6,2,55.5,1.5,10,1,-45,-45,1,938.33
1,5,53,1,2,74,2,20,0,-45,-45,1,4023.52
1,5,53,2,2,74,2,20,0,45,45,1,2409.37
1,5,53,3,2,74,2,20,0,-45,-45,1,2851.66
1,5,53,4,2,111,3,20,1,45,45,1,7000.01
1,5,53,5,2,74,2,20,1,-45,-45,1,958.89
1,5,53,6,2,55.5,1.5,20,1,-45,-45,1,1747.56
1,5,54,1,2,111,3,20,0,-45,-45,1,4396.15
1,5,54,2,2,111,3,20,0,-45,-45,1,1597.6
1,5,54,3,2,111,3,20,0,-45,-45,1,2348.04
1,5,54,4,2,74,2,20,1,45,45,1,2964.67
1,5,54,5,2,55.5,1.5,20,1,-45,-45,1,3641.88
1,5,54,6,2,111,3,20,1,45,45,1,7511.97
1,5,55,1,2,92.5,2.5,30,0,-45,-45,1,1521.23
1,5,55,2,2,92.5,2.5,30,0,-45,-45,1,830.73
1,5,55,3,2,92.5,2.5,30,0,-45,-45,1,1448.02
1,5,55,4,2,55.5,1.5,30,1,45,45,1,1056.84
1,5,55,5,2,92.5,2.5,30,1,45,45,1,3890.47
1,5,55,6,2,74,2,30,1,45,45,1,2175.73
1,5,56,1,1,111,3,20,0,-45,-45,1,1550.88
1,5,56,2,1,111,3,20,0,-45,-45,1,1884.68
1,5,56,3,1,111,3,20,0,45,45,1,2212.36
1,5,56,4,1,111,3,20,1,-45,-45,1,2013.84
1,5,56,5,1,111,3,20,1,45,45,1,1036.05
1,5,56,6,1,111,3,20,1,45,45,1,3139.67
1,5,57,1,2,74,2,20,0,45,45,1,1161.79
1,5,57,2,2,74,2,20,0,45,45,1,3594.21
1,5,57,3,2,74,2,20,0,-45,-45,1,2995
1,5,57,4,2,92.5,2.5,20,1,45,45,1,5527.82
1,5,57,5,2,74,2,20,1,-45,-45,1,4082.28
1,5,57,6,2,111,3,20,1,45,45,1,7467.3
1,5,58,1,2,111,3,30,0,45,45,1,3564.57
1,5,58,2,2,111,3,30,0,-45,-45,1,3707.09
1,5,58,3,2,111,3,30,0,-45,-45,1,6863.15
1,5,58,4,2,92.5,2.5,30,1,45,45,1,2393.78
1,5,58,5,2,55.5,1.5,30,1,-45,-45,1,2215.25
1,5,58,6,2,74,2,30,1,-45,-45,1,2663.72
1,5,59,1,1,111,3,10,0,-45,-45,1,2663.9
1,5,59,2,1,111,3,10,0,-45,-45,1,1652.33
1,5,59,3,1,111,3,10,0,-45,-45,1,2393.82
1,5,59,4,1,111,3,10,1,45,45,1,4034
1,5,59,5,1,111,3,10,1,-45,-45,1,2775.01
1,5,59,6,1,111,3,10,1,-45,-45,1,2559.54
1,5,60,1,1,92.5,2.5,20,0,-45,-45,1,880.79
1,5,60,2,1,92.5,2.5,20,0,-45,-45,1,834.96
1,5,60,3,1,92.5,2.5,20,0,45,45,1,879.16
1,5,60,4,1,92.5,2.5,20,1,-45,-45,1,2605.53
1,5,60,5,1,92.5,2.5,20,1,-45,-45,1,832.65
1,5,60,6,1,92.5,2.5,20,1,-45,-45,1,3442.2
1,6,61,1,2,55.5,1.5,30,0,45,45,1,3547.87
1,6,61,2,2,55.5,1.5,30,0,45,45,1,2283.83
1,6,61,3,2,55.5,1.5,30,0,-45,-45,1,1137.45
1,6,61,4,2,92.5,2.5,30,1,-45,-45,1,794.51
1,6,61,5,2,111,3,30,1,-45,-45,1,6117.58
1,6,61,6,2,74,2,30,1,45,45,1,14009.26
1,6,62,1,1,74,2,30,0,-45,-45,1,3341.45
1,6,62,2,1,74,2,30,0,45,45,1,4390.64
1,6,62,3,1,74,2,30,0,45,45,1,1104.87
1,6,62,4,1,74,2,30,1,45,45,1,2139.34
1,6,62,5,1,74,2,30,1,45,45,1,2471.78
1,6,62,6,1,74,2,30,1,45,45,1,4295.33
1,6,63,1,1,111,3,10,0,45,45,1,2825.46
1,6,63,2,1,111,3,10,0,-45,-45,1,1040.24
1,6,63,3,1,111,3,10,0,-45,-45,1,851.77
1,6,63,4,1,111,3,10,1,45,45,1,825.16
1,6,63,5,1,111,3,10,1,45,45,1,2239.09
1,6,63,6,1,111,3,10,1,45,45,1,1374.76
1,6,64,1,2,74,2,20,0,-45,-45,1,2604.91
1,6,64,2,2,74,2,20,0,-45,-45,1,5041
1,6,64,3,2,74,2,20,0,-45,-45,1,8824.86
1,6,64,4,2,92.5,2.5,20,1,45,45,1,3717.36
1,6,64,5,2,55.5,1.5,20,1,-45,-45,1,2006.94
1,6,64,6,2,111,3,20,1,-45,-45,1,2509.54
1,6,65,1,1,92.5,2.5,10,0,-45,-45,1,1241.76
1,6,65,2,1,92.5,2.5,10,0,45,45,1,1396.59
1,6,65,3,1,92.5,2.5,10,0,-45,-45,1,1415.48
1,6,65,4,1,92.5,2.5,10,1,45,45,1,1386.74
1,6,65,5,1,92.5,2.5,10,1,45,45,1,1142.02
1,6,65,6,1,92.5,2.5,10,1,45,45,1,934.47
1,6,66,1,1,111,3,10,0,45,45,1,972.97
1,6,66,2,1,111,3,10,0,45,45,1,3464.5
1,6,66,3,1,111,3,10,0,45,45,1,924.15
1,6,66,4,1,111,3,10,1,45,45,1,1344.04
1,6,66,5,1,111,3,10,1,-45,-45,1,2037.28
1,6,66,6,1,111,3,10,1,-45,-45,1,1741.96
1,6,67,1,1,92.5,2.5,10,0,-45,-45,1,6635.63
1,6,67,2,1,92.5,2.5,10,0,-45,-45,1,980.24
1,6,67,3,1,92.5,2.5,10,0,-45,-45,1,910.65
1,6,67,4,1,92.5,2.5,10,1,45,45,1,2644.83
1,6,67,5,1,92.5,2.5,10,1,45,45,1,1916.19
1,6,67,6,1,92.5,2.5,10,1,45,45,1,2860.43
1,6,68,1,2,92.5,2.5,30,0,-45,-45,1,1259.5
1,6,68,2,2,92.5,2.5,30,0,-45,-45,1,6047.44
1,6,68,3,2,92.5,2.5,30,0,-45,-45,1,10050.62
1,6,68,4,2,55.5,1.5,30,1,45,45,1,3216.86
1,6,68,5,2,74,2,30,1,-45,-45,1,5018.92
1,6,68,6,2,92.5,2.5,30,1,-45,-45,1,5396.29
1,6,69,1,1,92.5,2.5,10,0,-45,-45,1,4724.08
1,6,69,2,1,92.5,2.5,10,0,-45,-45,1,1579.05
1,6,69,3,1,92.5,2.5,10,0,-45,-45,1,1237.24
1,6,69,4,1,92.5,2.5,10,1,45,45,1,1793.92
1,6,69,5,1,92.5,2.5,10,1,-45,-45,1,1880.11
1,6,69,6,1,92.5,2.5,10,1,-45,-45,1,934.74
1,6,70,1,1,74,2,10,0,45,45,1,990.47
1,6,70,2,1,74,2,10,0,45,45,1,956.95
1,6,70,3,1,74,2,10,0,45,45,1,1035.33
1,6,70,4,1,74,2,10,1,45,45,1,1068.63
1,6,70,5,1,74,2,10,1,-45,-45,1,2723.71
1,6,70,6,1,74,2,10,1,45,45,1,3099.5
1,6,71,1,2,55.5,1.5,10,0,45,45,1,855.21
1,6,71,2,2,55.5,1.5,10,0,-45,-45,1,1393.94
1,6,71,3,2,55.5,1.5,10,0,45,45,1,3325.75
1,6,71,4,2,74,2,10,1,45,45,1,1095.13
1,6,71,5,2,55.5,1.5,10,1,-45,-45,1,832.19
1,6,71,6,2,111,3,10,1,45,45,1,2654.19
1,6,72,1,2,92.5,2.5,10,0,45,45,1,997.79
1,6,72,2,2,92.5,2.5,10,0,-45,-45,1,2128.86
1,6,72,3,2,92.5,2.5,10,0,45,45,1,1189.63
1,6,72,4,2,74,2,10,1,-45,-45,1,1209.71
1,6,72,5,2,55.5,1.5,10,1,45,45,1,772.82
1,6,72,6,2,111,3,10,1,-45,-45,1,3243.14
1,7,73,1,1,111,3,20,0,45,45,1,4115.19
1,7,73,2,1,111,3,20,0,-45,-45,1,9189.72
1,7,73,3,1,111,3,20,0,45,45,1,1233.91
1,7,73,4,1,111,3,20,1,-45,-45,1,1742.6
1,7,73,5,1,111,3,20,1,45,45,1,754.45
1,7,73,6,1,111,3,20,1,-45,-45,1,2276.79
1,7,74,1,2,92.5,2.5,10,0,45,45,1,1296.7
1,7,74,2,2,92.5,2.5,10,0,-45,-45,1,5847.61
1,7,74,3,2,92.5,2.5,10,0,-45,-45,1,1342.8
1,7,74,4,2,74,2,10,1,-45,-45,1,1178.37
1,7,74,5,2,55.5,1.5,10,1,-45,-45,1,1746.1
1,7,74,6,2,92.5,2.5,10,1,45,45,1,921.71
1,7,75,1,2,74,2,20,0,-45,-45,1,1715.41
1,7,75,2,2,74,2,20,0,45,45,1,874.86
1,7,75,3,2,74,2,20,0,45,45,1,3474.18
1,7,75,4,2,111,3,20,1,45,45,1,724.95
1,7,75,5,2,92.5,2.5,20,1,-45,-45,1,1038.87
1,7,75,6,2,55.5,1.5,20,1,45,45,1,1755.7
1,7,76,1,2,92.5,2.5,10,0,45,45,1,3715.19
1,7,76,2,2,92.5,2.5,10,0,-45,-45,1,1087.14
1,7,76,3,2,92.5,2.5,10,0,45,45,1,1848.66
1,7,76,4,2,74,2,10,1,-45,-45,1,2549.71
1,7,76,5,2,92.5,2.5,10,1,45,45,1,2255.95
1,7,76,6,2,111,3,10,1,-45,-45,1,2304.79
1,7,77,1,2,111,3,10,0,45,45,1,1278.61
1,7,77,2,2,111,3,10,0,45,45,1,3460.23
1,7,77,3,2,111,3,10,0,45,45,1,2487.46
1,7,77,4,2,92.5,2.5,10,1,45,45,1,1923.11
1,7,77,5,2,74,2,10,1,-45,-45,1,3729.05
1,7,77,6,2,111,3,10,1,-45,-45,1,848.61
1,7,78,1,2,92.5,2.5,30,0,-45,-45,1,1918.03
1,7,78,2,2,92.5,2.5,30,0,45,45,1,2353.38
1,7,78,3,2,92.5,2.5,30,0,45,45,1,3425.85
1,7,78,4,2,111,3,30,1,45,45,1,8535.53
1,7,78,5,2,74,2,30,1,-45,-45,1,4604.28
1,7,78,6,2,92.5,2.5,30,1,45,45,1,3443.63
1,7,79,1,1,92.5,2.5,10,0,-45,-45,1,1335.62
1,7,79,2,1,92.5,2.5,10,0,-45,-45,1,1430.18
1,7,79,3,1,92.5,2.5,10,0,45,45,1,1059.79
1,7,79,4,1,92.5,2.5,10,1,-45,-45,1,878.84
1,7,79,5,1,92.5,2.5,10,1,-45,-45,1,1083.81
1,7,79,6,1,92.5,2.5,10,1,45,45,1,1772.54
1,7,80,1,1,74,2,20,0,45,45,1,1368.37
1,7,80,2,1,74,2,20,0,-45,-45,1,1517.09
1,7,80,3,1,74,2,20,0,-45,-45,1,776.14
1,7,80,4,1,74,2,20,1,-45,-45,1,912.22
1,7,80,5,1,74,2,20,1,-45,-45,1,788.9
1,7,80,6,1,74,2,20,1,-45,-45,1,2049.49
1,7,81,1,2,55.5,1.5,20,0,45,45,1,1848.06
1,7,81,2,2,55.5,1.5,20,0,-45,-45,1,1271.33
1,7,81,3,2,55.5,1.5,20,0,45,45,1,1133.49
1,7,81,4,2,74,2,20,1,-45,-45,1,2582.24
1,7,81,5,2,55.5,1.5,20,1,-45,-45,1,2457.54
1,7,81,6,2,111,3,20,1,-45,-45,1,4846.84
1,7,82,1,2,92.5,2.5,20,0,45,45,1,3027.99
1,7,82,2,2,92.5,2.5,20,0,45,45,1,8399.25
1,7,82,3,2,92.5,2.5,20,0,-45,-45,1,16887.7
1,7,82,4,2,55.5,1.5,20,1,-45,-45,1,3345.94
1,7,82,5,2,74,2,20,1,-45,-45,1,1008.86
1,7,82,6,2,92.5,2.5,20,1,45,45,1,4554.23
1,7,83,1,2,111,3,30,0,45,45,1,7530.83
1,7,83,2,2,111,3,30,0,45,45,1,1529.21
1,7,83,3,2,111,3,30,0,-45,-45,1,4811.36
1,7,83,4,2,92.5,2.5,30,1,45,45,1,9979.73
1,7,83,5,2,55.5,1.5,30,1,45,45,1,1609.6
1,7,83,6,2,74,2,30,1,45,45,1,4909.99
1,7,84,1,1,92.5,2.5,30,0,45,45,1,5140.21
1,7,84,2,1,92.5,2.5,30,0,45,45,1,840.76
1,7,84,3,1,92.5,2.5,30,0,45,45,1,3348.99
1,7,84,4,1,92.5,2.5,30,1,-45,-45,1,5861.39
1,7,84,5,1,92.5,2.5,30,1,-45,-45,1,8018.74
1,7,84,6,1,92.5,2.5,30,1,-45,-45,1,4472.68
1,8,85,1,2,74,2,30,0,45,45,1,2622.74
1,8,85,2,2,74,2,30,0,-45,-45,1,8022.59
1,8,85,3,2,74,2,30,0,-45,-45,1,2495.23
1,8,85,4,2,111,3,30,1,-45,-45,1,882.63
1,8,85,5,2,74,2,30,1,45,45,1,1200.73
1,8,85,6,2,55.5,1.5,30,1,-45,-45,1,2014.75
1,8,86,1,1,55.5,1.5,10,0,-45,-45,1,1399.18
1,8,86,2,1,55.5,1.5,10,0,-45,-45,1,1164.52
1,8,86,3,1,55.5,1.5,10,0,45,45,1,1221.29
1,8,86,4,1,55.5,1.5,10,1,45,45,1,1090.19
1,8,86,5,1,55.5,1.5,10,1,45,45,1,1871.44
1,8,86,6,1,55.5,1.5,10,1,-45,-45,1,886.13
1,8,87,1,2,111,3,20,0,-45,-45,1,1703.6
1,8,87,2,2,111,3,20,0,-45,-45,1,1039.5
1,8,87,3,2,111,3,20,0,45,45,1,3588.05
1,8,87,4,2,92.5,2.5,20,1,-45,-45,1,2693.94
1,8,87,5,2,55.5,1.5,20,1,-45,-45,1,872.92
1,8,87,6,2,74,2,20,1,45,45,1,981.34
1,8,88,1,1,74,2,20,0,-45,-45,1,1227.78
1,8,88,2,1,74,2,20,0,-45,-45,1,1129.41
1,8,88,3,1,74,2,20,0,-45,-45,1,901.81
1,8,88,4,1,74,2,20,1,45,45,1,1653.78
1,8,88,5,1,74,2,20,1,45,45,1,4832.85
1,8,88,6,1,74,2,20,1,-45,-45,1,3585.83
1,8,89,1,2,92.5,2.5,20,0,45,45,1,2720.66
1,8,89,2,2,92.5,2.5,20,0,-45,-45,1,1718.76
1,8,89,3,2,92.5,2.5,20,0,45,45,1,4737.03
1,8,89,4,2,55.5,1.5,20,1,-45,-45,1,1950.72
1,8,89,5,2,111,3,20,1,-45,-45,1,3035.1
1,8,89,6,2,74,2,20,1,-45,-45,1,1489.32
1,8,90,1,1,74,2,20,0,-45,-45,1,3365.29
1,8,90,2,1,74,2,20,0,45,45,1,3452.64
1,8,90,3,1,74,2,20,0,45,45,1,6639.52
1,8,90,4,1,74,2,20,1,45,45,1,3945.44
1,8,90,5,1,74,2,20,1,-45,-45,1,4205.52
1,8,90,6,1,74,2,20,1,45,45,1,3526.06
1,8,91,1,2,74,2,10,0,-45,-45,1,2158.17
1,8,91,2,2,74,2,10,0,45,45,1,855.47
1,8,91,3,2,74,2,10,0,-45,-45,1,2127.75
1,8,91,4,2,55.5,1.5,10,1,45,45,1,1114.08
1,8,91,5,2,92.5,2.5,10,1,45,45,1,1370.6
1,8,91,6,2,111,3,10,1,-45,-45,1,2152.8
1,8,92,1,1,74,2,30,0,45,45,1,1764
1,8,92,2,1,74,2,30,0,-45,-45,1,1626.37
1,8,92,3,1,74,2,30,0,45,45,1,5799.29
1,8,92,4,1,74,2,30,1,45,45,1,9711.37
1,8,92,5,1,74,2,30,1,-45,-45,1,9809.03
1,8,92,6,1,74,2,30,1,-45,-45,1,1072.57
1,8,93,1,2,55.5,1.5,10,0,45,45,1,960.28
1,8,93,2,2,55.5,1.5,10,0,45,45,1,1043.61
1,8,93,3,2,55.5,1.5,10,0,-45,-45,1,1479.99
1,8,93,4,2,111,3,10,1,45,45,1,2573.83
1,8,93,5,2,92.5,2.5,10,1,-45,-45,1,866.88
1,8,93,6,2,74,2,10,1,-45,-45,1,983.25
1,8,94,1,2,55.5,1.5,20,0,45,45,1,1018.47
1,8,94,2,2,55.5,1.5,20,0,45,45,1,1965.62
1,8,94,3,2,55.5,1.5,20,0,-45,-45,1,1799.73
1,8,94,4,2,92.5,2.5,20,1,-45,-45,1,2074.61
1,8,94,5,2,111,3,20,1,45,45,1,1808.4
1,8,94,6,2,55.5,1.5,20,1,-45,-45,1,952.32
1,8,95,1,1,111,3,30,0,45,45,1,2751.74
1,8,95,2,1,111,3,30,0,-45,-45,1,1586.73
1,8,95,3,1,111,3,30,0,-45,-45,1,1073.09
1,8,95,4,1,111,3,30,1,-45,-45,1,4654.45
1,8,95,5,1,111,3,30,1,45,45,1,6614.53
1,8,95,6,1,111,3,30,1,-45,-45,1,4190.1
1,8,96,1,2,74,2,10,0,-45,-45,1,997.36
1,8,96,2,2,74,2,10,0,45,45,1,5914.63
1,8,96,3,2,74,2,10,0,45,45,1,2925.44
1,8,96,4,2,55.5,1.5,10,1,-45,-45,1,4321.74
1,8,96,5,2,92.5,2.5,10,1,45,45,1,2162.12
1,8,96,6,2,111,3,10,1,45,45,1,2669.81
1,9,97,1,2,55.5,1.5,20,0,-45,-45,1,1210.23
1,9,97,2,2,55.5,1.5,20,0,-45,-45,1,1280.54
1,9,97,3,2,55.5,1.5,20,0,45,45,1,1464.52
1,9,97,4,2,92.5,2.5,20,1,-45,-45,1,12266.27
1,9,97,5,2,111,3,20,1,45,45,1,2499.41
1,9,97,6,2,74,2,20,1,-45,-45,1,1896.57
1,9,98,1,2,55.5,1.5,20,0,45,45,1,1056.86
1,9,98,2,2,55.5,1.5,20,0,45,45,1,2942.21
1,9,98,3,2,55.5,1.5,20,0,-45,-45,1,6123.22
1,9,98,4,2,111,3,20,1,-45,-45,1,5841.21
1,9,98,5,2,55.5,1.5,20,1,45,45,1,2447.77
1,9,98,6,2,92.5,2.5,20,1,45,45,1,2164.7
1,9,99,1,1,55.5,1.5,10,0,45,45,1,1463.29
1,9,99,2,1,55.5,1.5,10,0,-45,-45,1,1215.6
1,9,99,3,1,55.5,1.5,10,0,-45,45,0,1414.35
1,9,99,4,1,55.5,1.5,10,1,-45,-45,1,6181
1,9,99,5,1,55.5,1.5,10,1,-45,-45,1,1920.78
1,9,99,6,1,55.5,1.5,10,1,45,45,1,1559.57
1,9,100,1,1,74,2,10,0,45,45,1,866.37
1,9,100,2,1,74,2,10,0,-45,-45,1,1046.2
1,9,100,3,1,74,2,10,0,45,45,1,2620.03
1,9,100,4,1,74,2,10,1,45,45,1,3962.09
1,9,100,5,1,74,2,10,1,-45,-45,1,2364.92
1,9,100,6,1,74,2,10,1,-45,-45,1,4595.78
1,9,101,1,2,111,3,30,0,45,45,1,2898.59
1,9,101,2,2,111,3,30,0,45,45,1,1157.44
1,9,101,3,2,111,3,30,0,-45,-45,1,4083.03
1,9,101,4,2,55.5,1.5,30,1,-45,-45,1,4521.58
1,9,101,5,2,74,2,30,1,-45,-45,1,2123.36
1,9,101,6,2,111,3,30,1,-45,-45,1,3266.88
1,9,102,1,1,111,3,30,0,-45,-45,1,2452.99
1,9,102,2,1,111,3,30,0,-45,-45,1,3318.41
1,9,102,3,1,111,3,30,0,-45,-45,1,4648.02
1,9,102,4,1,111,3,30,1,-45,-45,1,1581
1,9,102,5,1,111,3,30,1,45,45,1,2505.29
1,9,102,6,1,111,3,30,1,-45,-45,1,2425.86
1,9,103,1,1,111,3,20,0,45,45,1,1948.01
1,9,103,2,1,111,3,20,0,-45,-45,1,8326.43
1,9,103,3,1,111,3,20,0,-45,-45,1,11214
1,9,103,4,1,111,3,20,1,45,45,1,1401.72
1,9,103,5,1,111,3,20,1,-45,-45,1,6121.56
1,9,103,6,1,111,3,20,1,-45,-45,1,1626.95
1,9,104,1,1,55.5,1.5,10,0,-45,-45,1,2250.57
1,9,104,2,1,55.5,1.5,10,0,-45,-45,1,1014.04
1,9,104,3,1,55.5,1.5,10,0,45,45,1,938.48
1,9,104,4,1,55.5,1.5,10,1,-45,-45,1,1294.98
1,9,104,5,1,55.5,1.5,10,1,-45,-45,1,1345.35
1,9,104,6,1,55.5,1.5,10,1,45,45,1,1291.9
1,9,105,1,2,55.5,1.5,20,0,45,45,1,1277.34
1,9,105,2,2,55.5,1.5,20,0,-45,-45,1,1209.95
1,9,105,3,2,55.5,1.5,20,0,-45,-45,1,1238.46
1,9,105,4,2,74,2,20,1,-45,-45,1,1869.24
1,9,105,5,2,92.5,2.5,20,1,-45,-45,1,3186.97
1,9,105,6,2,111,3,20,1,45,45,1,2433.28
1,9,106,1,1,55.5,1.5,20,0,-45,-45,1,5037.84
1,9,106,2,1,55.5,1.5,20,0,45,45,1,5761.22
1,9,106,3,1,55.5,1.5,20,0,45,45,1,2587.93
1,9,106,4,1,55.5,1.5,20,1,-45,-45,1,1042.12
1,9,106,5,1,55.5,1.5,20,1,-45,-45,1,1403.18
1,9,106,6,1,55.5,1.5,20,1,-45,-45,1,942.63
1,9,107,1,2,74,2,20,0,-45,-45,1,1321.78
1,9,107,2,2,74,2,20,0,45,45,1,986.4
1,9,107,3,2,74,2,20,0,-45,-45,1,1047.5
1,9,107,4,2,55.5,1.5,20,1,-45,-45,1,1084.28
1,9,107,5,2,92.5,2.5,20,1,45,45,1,1351.08
1,9,107,6,2,74,2,20,1,45,45,1,5187.39
1,9,108,1,2,111,3,10,0,-45,-45,1,3151.14
1,9,108,2,2,111,3,10,0,45,45,1,1769.24
1,9,108,3,2,111,3,10,0,45,45,1,10683.39
1,9,108,4,2,74,2,10,1,45,45,1,1717.72
1,9,108,5,2,111,3,10,1,45,45,1,2879.11
1,9,108,6,2,92.5,2.5,10,1,45,45,1,1172.45
1,10,109,1,1,74,2,10,0,45,45,1,7805.11
1,10,109,2,1,74,2,10,0,45,45,1,1419.49
1,10,109,3,1,74,2,10,0,45,45,1,896.9
1,10,109,4,1,74,2,10,1,45,45,1,1280.04
1,10,109,5,1,74,2,10,1,-45,-45,1,772.78
1,10,109,6,1,74,2,10,1,45,45,1,3013.64
1,10,110,1,1,92.5,2.5,30,0,-45,-45,1,2862.23
1,10,110,2,1,92.5,2.5,30,0,-45,-45,1,4478.28
1,10,110,3,1,92.5,2.5,30,0,45,45,1,892.25
1,10,110,4,1,92.5,2.5,30,1,-45,-45,1,1575.73
1,10,110,5,1,92.5,2.5,30,1,45,45,1,719.33
1,10,110,6,1,92.5,2.5,30,1,-45,-45,1,6521.15
1,10,111,1,2,111,3,30,0,45,45,1,17481.03
1,10,111,2,2,111,3,30,0,-45,-45,1,1300.79
1,10,111,3,2,111,3,30,0,-45,-45,1,886.08
1,10,111,4,2,92.5,2.5,30,1,45,45,1,7687.85
1,10,111,5,2,55.5,1.5,30,1,45,45,1,1124.38
1,10,111,6,2,111,3,30,1,-45,-45,1,2630.33
1,10,112,1,2,74,2,30,0,45,45,1,1251.49
1,10,112,2,2,74,2,30,0,-45,-45,1,1289.23
1,10,112,3,2,74,2,30,0,45,45,1,1226.26
1,10,112,4,2,111,3,30,1,-45,-45,1,3671.56
1,10,112,5,2,92.5,2.5,30,1,45,45,1,4004.34
1,10,112,6,2,55.5,1.5,30,1,45,45,1,1088.04
1,10,113,1,2,111,3,10,0,-45,-45,1,1107.44
1,10,113,2,2,111,3,10,0,45,45,1,905.65
1,10,113,3,2,111,3,10,0,-45,-45,1,875.41
1,10,113,4,2,74,2,10,1,-45,-45,1,767.28
1,10,113,5,2,92.5,2.5,10,1,-45,-45,1,1715.26
1,10,113,6,2,55.5,1.5,10,1,-45,-45,1,956.53
1,10,114,1,2,55.5,1.5,10,0,-45,-45,1,968.75
1,10,114,2,2,55.5,1.5,10,0,-45,-45,1,812.9
1,10,114,3,2,55.5,1.5,10,0,45,45,1,911.58
1,10,114,4,2,111,3,10,1,-45,-45,1,1954.53
1,10,114,5,2,55.5,1.5,10,1,-45,-45,1,2695.47
1,10,114,6,2,74,2,10,1,45,45,1,878.79
1,10,115,1,1,74,2,20,0,-45,-45,1,881.97
1,10,115,2,1,74,2,20,0,45,45,1,5343.7
1,10,115,3,1,74,2,20,0,-45,-45,1,2929.64
1,10,115,4,1,74,2,20,1,-45,-45,1,825.72
1,10,115,5,1,74,2,20,1,-45,-45,1,1511.71
1,10,115,6,1,74,2,20,1,-45,-45,1,2254.17
1,10,116,1,1,92.5,2.5,30,0,-45,-45,1,3621.16
1,10,116,2,1,92.5,2.5,30,0,45,45,1,2076.36
1,10,116,3,1,92.5,2.5,30,0,-45,-45,1,3776.43
1,10,116,4,1,92.5,2.5,30,1,45,45,1,3519.62
1,10,116,5,1,92.5,2.5,30,1,45,45,1,3492.63
1,10,116,6,1,92.5,2.5,30,1,45,45,1,6124.05
1,10,117,1,1,92.5,2.5,20,0,45,45,1,1286.54
1,10,117,2,1,92.5,2.5,20,0,45,45,1,3831.81
1,10,117,3,1,92.5,2.5,20,0,45,45,1,1431.16
1,10,117,4,1,92.5,2.5,20,1,45,45,1,4019.72
1,10,117,5,1,92.5,2.5,20,1,45,45,1,2372.54
1,10,117,6,1,92.5,2.5,20,1,-45,-45,1,1064.61
1,10,118,1,2,111,3,20,0,45,45,1,1344.3
1,10,118,2,2,111,3,20,0,-45,-45,1,2606.98
1,10,118,3,2,111,3,20,0,-45,-45,1,6571.77
1,10,118,4,2,92.5,2.5,20,1,45,45,1,6957.14
1,10,118,5,2,111,3,20,1,-45,-45,1,1717.05
1,10,118,6,2,74,2,20,1,45,45,1,1649.71
1,10,119,1,1,55.5,1.5,30,0,-45,-45,1,1604.26
1,10,119,2,1,55.5,1.5,30,0,-45,-45,1,1061.39
1,10,119,3,1,55.5,1.5,30,0,45,45,1,998.2
1,10,119,4,1,55.5,1.5,30,1,-45,-45,1,2192.5
1,10,119,5,1,55.5,1.5,30,1,-45,-45,1,1301.67
1,10,119,6,1,55.5,1.5,30,1,-45,-45,1,928.81
1,10,120,1,1,111,3,30,0,-45,-45,1,1632.76
1,10,120,2,1,111,3,30,0,45,45,1,965.52
1,10,120,3,1,111,3,30,0,45,45,1,2936.06
1,10,120,4,1,111,3,30,1,-45,-45,1,6056.18
1,10,120,5,1,111,3,30,1,45,45,1,9139.82
1,10,120,6,1,111,3,30,1,-45,-45,1,1413.58
1,11,121,1,1,55.5,1.5,20,0,45,45,1,5848.5
1,11,121,2,1,55.5,1.5,20,0,-45,-45,1,1245.41
1,11,121,3,1,55.5,1.5,20,0,45,45,1,7510.63
1,11,121,4,1,55.5,1.5,20,1,-45,-45,1,1491.13
1,11,121,5,1,55.5,1.5,20,1,45,45,1,941.17
1,11,121,6,1,55.5,1.5,20,1,-45,-45,1,868.35
1,11,122,1,1,92.5,2.5,20,0,45,45,1,1433.95
1,11,122,2,1,92.5,2.5,20,0,-45,-45,1,1615.98
1,11,122,3,1,92.5,2.5,20,0,-45,-45,1,3483.6
1,11,122,4,1,92.5,2.5,20,1,-45,-45,1,1222.93
1,11,122,5,1,92.5,2.5,20,1,-45,-45,1,8917.18
1,11,122,6,1,92.5,2.5,20,1,-45,-45,1,2161.6
1,11,123,1,1,55.5,1.5,10,0,-45,-45,1,1433.74
1,11,123,2,1,55.5,1.5,10,0,-45,-45,1,935.68
1,11,123,3,1,55.5,1.5,10,0,-45,-45,1,767.51
1,11,123,4,1,55.5,1.5,10,1,45,45,1,892.25
1,11,123,5,1,55.5,1.5,10,1,45,45,1,947.49
1,11,123,6,1,55.5,1.5,10,1,45,45,1,972.62
1,11,124,1,2,92.5,2.5,10,0,-45,-45,1,4312.49
1,11,124,2,2,92.5,2.5,10,0,45,45,1,1191.62
1,11,124,3,2,92.5,2.5,10,0,45,45,1,3550.32
1,11,124,4,2,74,2,10,1,-45,-45,1,904.05
1,11,124,5,2,111,3,10,1,45,45,1,1067.39
1,11,124,6,2,92.5,2.5,10,1,45,45,1,1487.36
1,11,125,1,2,55.5,1.5,30,0,-45,-45,1,1089.9
1,11,125,2,2,55.5,1.5,30,0,-45,-45,1,2824.06
1,11,125,3,2,55.5,1.5,30,0,45,45,1,2300.13
1,11,125,4,2,111,3,30,1,45,45,1,11140.59
1,11,125,5,2,92.5,2.5,30,1,-45,-45,1,4390.58
1,11,125,6,2,55.5,1.5,30,1,45,45,1,5253.74
1,11,126,1,1,111,3,10,0,-45,-45,1,1185.14
1,11,126,2,1,111,3,10,0,-45,-45,1,4602.27
1,11,126,3,1,111,3,10,0,45,45,1,2208.35
1,11,126,4,1,111,3,10,1,45,45,1,5214.86
1,11,126,5,1,111,3,10,1,-45,-45,1,4134.58
1,11,126,6,1,111,3,10,1,45,45,1,2928.97
1,11,127,1,1,55.5,1.5,20,0,45,45,1,1722.62
1,11,127,2,1,55.5,1.5,20,0,45,45,1,1467.54
1,11,127,3,1,55.5,1.5,20,0,-45,-45,1,4237.78
1,11,127,4,1,55.5,1.5,20,1,45,45,1,3347.68
1,11,127,5,1,55.5,1.5,20,1,45,45,1,1068.38
1,11,127,6,1,55.5,1.5,20,1,45,45,1,2828.16
1,11,128,1,2,111,3,10,0,45,45,1,2170.48
1,11,128,2,2,111,3,10,0,45,45,1,1504.05
1,11,128,3,2,111,3,10,0,-45,-45,1,1640.78
1,11,128,4,2,74,2,10,1,-45,-45,1,1687.36
1,11,128,5,2,92.5,2.5,10,1,-45,-45,1,2176.96
1,11,128,6,2,55.5,1.5,10,1,-45,-45,1,1764.9
1,11,129,1,2,74,2,10,0,45,45,1,2629.39
1,11,129,2,2,74,2,10,0,-45,-45,1,3271.67
1,11,129,3,2,74,2,10,0,-45,-45,1,811.41
1,11,129,4,2,111,3,10,1,-45,-45,1,3930.86
1,11,129,5,2,74,2,10,1,45,45,1,5094.69
1,11,129,6,2,55.5,1.5,10,1,45,45,1,1203.64
1,11,130,1,1,74,2,10,0,45,45,1,2073.18
1,11,130,2,1,74,2,10,0,45,45,1,1740.34
1,11,130,3,1,74,2,10,0,-45,-45,1,3163.98
1,11,130,4,1,74,2,10,1,-45,-45,1,4523.78
1,11,130,5,1,74,2,10,1,45,45,1,832.67
1,11,130,6,1,74,2,10,1,45,45,1,750.51
1,11,131,1,2,55.5,1.5,30,0,45,45,1,785.26
1,11,131,2,2,55.5,1.5,30,0,-45,-45,1,1253.45
1,11,131,3,2,55.5,1.5,30,0,45,45,1,4467.81
1,11,131,4,2,74,2,30,1,-45,-45,1,3989.83
1,11,131,5,2,55.5,1.5,30,1,45,45,1,1838.94
1,11,131,6,2,92.5,2.5,30,1,45,45,1,7115.74
1,11,132,1,2,55.5,1.5,10,0,-45,-45,1,1353.91
1,11,132,2,2,55.5,1.5,10,0,-45,-45,1,969.95
1,11,132,3,2,55.5,1.5,10,0,45,45,1,917.67
1,11,132,4,2,111,3,10,1,-45,-45,1,2805.47
1,11,132,5,2,74,2,10,1,45,45,1,1286.6
1,11,132,6,2,55.5,1.5,10,1,45,45,1,1055.25
1,12,133,1,2,111,3,10,0,45,45,1,4198.1
1,12,133,2,2,111,3,10,0,-45,-45,1,2076.5
1,12,133,3,2,111,3,10,0,-45,-45,1,846.09
1,12,133,4,2,74,2,10,1,45,45,1,6365.36
1,12,133,5,2,111,3,10,1,-45,-45,1,1390.86
1,12,133,6,2,55.5,1.5,10,1,-45,-45,1,1119.55
1,12,134,1,1,74,2,30,0,45,45,1,9655.85
1,12,134,2,1,74,2,30,0,45,45,1,7593.76
1,12,134,3,1,74,2,30,0,45,45,1,5684.85
1,12,134,4,1,74,2,30,1,-45,-45,1,1600.71
1,12,134,5,1,74,2,30,1,-45,-45,1,4554.11
1,12,134,6,1,74,2,30,1,45,45,1,7171.27
1,12,135,1,2,111,3,20,0,-45,-45,1,1814.4
1,12,135,2,2,111,3,20,0,-45,-45,1,1758.97
1,12,135,3,2,111,3,20,0,-45,-45,1,4850.78
1,12,135,4,2,74,2,20,1,45,45,1,1288.19
1,12,135,5,2,111,3,20,1,-45,-45,1,8312.07
1,12,135,6,2,92.5,2.5,20,1,-45,-45,1,1281.67
1,12,136,1,1,92.5,2.5,30,0,45,45,1,1726.31
1,12,136,2,1,92.5,2.5,30,0,45,45,1,4713.52
1,12,136,3,1,92.5,2.5,30,0,-45,-45,1,2616.64
1,12,136,4,1,92.5,2.5,30,1,-45,-45,1,3113.44
1,12,136,5,1,92.5,2.5,30,1,-45,-45,1,2505.45
1,12,136,6,1,92.5,2.5,30,1,45,45,1,4067.41
1,12,137,1,1,55.5,1.5,10,0,45,45,1,2804.78
1,12,137,2,1,55.5,1.5,10,0,45,45,1,3104.98
1,12,137,3,1,55.5,1.5,10,0,-45,-45,1,3058.3
1,12,137,4,1,55.5,1.5,10,1,45,45,1,1662.1
1,12,137,5,1,55.5,1.5,10,1,45,45,1,809.11
1,12,137,6,1,55.5,1.5,10,1,-45,-45,1,883.55
1,12,138,1,2,111,3,20,0,-45,-45,1,7710.49
1,12,138,2,2,111,3,20,0,-45,-45,1,5040.75
1,12,138,3,2,111,3,20,0,45,45,1,4725.21
1,12,138,4,2,92.5,2.5,20,1,45,45,1,1289.52
1,12,138,5,2,74,2,20,1,-45,-45,1,7355.81
1,12,138,6,2,111,3,20,1,-45,-45,1,1746.06
1,12,139,1,1,55.5,1.5,20,0,45,45,1,5340.4
1,12,139,2,1,55.5,1.5,20,0,45,45,1,12517.87
1,12,139,3,1,55.5,1.5,20,0,45,45,1,2274.48
1,12,139,4,1,55.5,1.5,20,1,45,45,1,2544.39
1,12,139,5,1,55.5,1.5,20,1,45,45,1,2778.83
1,12,139,6,1,55.5,1.5,20,1,45,45,1,1363.6
1,12,140,1,1,55.5,1.5,30,0,-45,-45,1,1267.33
1,12,140,2,1,55.5,1.5,30,0,-45,-45,1,1156.31
1,12,140,3,1,55.5,1.5,30,0,45,45,1,767.78
1,12,140,4,1,55.5,1.5,30,1,45,45,1,885.28
1,12,140,5,1,55.5,1.5,30,1,-45,-45,1,1010.98
1,12,140,6,1,55.5,1.5,30,1,-45,-45,1,2193.3
1,12,141,1,2,92.5,2.5,20,0,-45,-45,1,3031.66
1,12,141,2,2,92.5,2.5,20,0,-45,-45,1,6763.05
1,12,141,3,2,92.5,2.5,20,0,45,45,1,2722.71
1,12,141,4,2,111,3,20,1,45,45,1,1764.74
1,12,141,5,2,92.5,2.5,20,1,-45,-45,1,12352.36
1,12,141,6,2,74,2,20,1,45,45,1,1893.87
1,12,142,1,2,111,3,30,0,45,45,1,3753.21
1,12,142,2,2,111,3,30,0,-45,-45,1,2696.52
1,12,142,3,2,111,3,30,0,-45,-45,1,5050.73
1,12,142,4,2,74,2,30,1,-45,-45,1,2372.11
1,12,142,5,2,111,3,30,1,-45,-45,1,2303.65
1,12,142,6,2,92.5,2.5,30,1,-45,-45,1,3241.3
1,12,143,1,1,111,3,10,0,45,45,1,2059.26
1,12,143,2,1,111,3,10,0,45,45,1,2669.41
1,12,143,3,1,111,3,10,0,45,45,1,2441.52
1,12,143,4,1,111,3,10,1,-45,-45,1,1382.99
1,12,143,5,1,111,3,10,1,45,45,1,1661.62
1,12,143,6,1,111,3,10,1,45,45,1,3213.06
1,12,144,1,2,92.5,2.5,30,0,45,45,1,6211.4
1,12,144,2,2,92.5,2.5,30,0,45,45,1,6914.56
1,12,144,3,2,92.5,2.5,30,0,-45,-45,1,3123.44
1,12,144,4,2,74,2,30,1,45,45,1,787.14
1,12,144,5,2,111,3,30,1,-45,-45,1,2139.15
1,12,144,6,2,92.5,2.5,30,1,45,45,1,1132.42
1,13,145,1,2,92.5,2.5,10,0,45,45,1,1811.95
1,13,145,2,2,92.5,2.5,10,0,45,45,1,1645.6
1,13,145,3,2,92.5,2.5,10,0,-45,-45,1,1202.42
1,13,145,4,2,111,3,10,1,-45,-45,1,1391.32
1,13,145,5,2,74,2,10,1,-45,-45,1,1089.66
1,13,145,6,2,92.5,2.5,10,1,-45,-45,1,900.46
1,13,146,1,1,111,3,20,0,45,45,1,1110.78
1,13,146,2,1,111,3,20,0,-45,-45,1,858.7
1,13,146,3,1,111,3,20,0,45,45,1,4303.45
1,13,146,4,1,111,3,20,1,-45,-45,1,3248.79
1,13,146,5,1,111,3,20,1,45,45,1,1415.14
1,13,146,6,1,111,3,20,1,45,45,1,852.48
1,13,147,1,1,74,2,10,0,-45,-45,1,3181.39
1,13,147,2,1,74,2,10,0,-45,-45,1,1229.56
1,13,147,3,1,74,2,10,0,45,45,1,1323.49
1,13,147,4,1,74,2,10,1,-45,-45,1,832.12
1,13,147,5,1,74,2,10,1,-45,-45,1,870.64
1,13,147,6,1,74,2,10,1,-45,-45,1,824.95
1,13,148,1,1,111,3,20,0,45,45,1,1935.17
1,13,148,2,1,111,3,20,0,45,45,1,1808
1,13,148,3,1,111,3,20,0,45,45,1,1783.08
1,13,148,4,1,111,3,20,1,45,45,1,1205.37
1,13,148,5,1,111,3,20,1,45,45,1,1288.55
1,13,148,6,1,111,3,20,1,45,45,1,2737.86
1,13,149,1,1,92.5,2.5,30,0,45,45,1,2128.42
1,13,149,2,1,92.5,2.5,30,0,45,45,1,1123.49
1,13,149,3,1,92.5,2.5,30,0,-45,-45,1,1556.95
1,13,149,4,1,92.5,2.5,30,1,-45,-45,1,818.56
1,13,149,5,1,92.5,2.5,30,1,45,45,1,1392.61
1,13,149,6,1,92.5,2.5,30,1,-45,-45,1,3586.35
1,13,150,1,1,111,3,20,0,45,45,1,2491.36
1,13,150,2,1,111,3,20,0,45,45,1,740.04
1,13,150,3,1,111,3,20,0,45,45,1,1795.52
1,13,150,4,1,111,3,20,1,-45,-45,1,3988.55
1,13,150,5,1,111,3,20,1,-45,-45,1,1009.79
1,13,150,6,1,111,3,20,1,45,45,1,1449.26
1,13,151,1,1,55.5,1.5,20,0,-45,-45,1,2280.83
1,13,151,2,1,55.5,1.5,20,0,-45,-45,1,821.2
1,13,151,3,1,55.5,1.5,20,0,-45,-45,1,712.07
1,13,151,4,1,55.5,1.5,20,1,45,45,1,819.62
1,13,151,5,1,55.5,1.5,20,1,-45,-45,1,1011.34
1,13,151,6,1,55.5,1.5,20,1,45,45,1,1224.29
1,13,152,1,1,74,2,20,0,45,45,1,974.21
1,13,152,2,1,74,2,20,0,-45,-45,1,1478.14
1,13,152,3,1,74,2,20,0,45,45,1,1332.48
1,13,152,4,1,74,2,20,1,45,45,1,1028.14
1,13,152,5,1,74,2,20,1,45,45,1,1090.74
1,13,152,6,1,74,2,20,1,-45,-45,1,1430.43
1,13,153,1,2,74,2,20,0,45,45,1,793.18
1,13,153,2,2,74,2,20,0,-45,-45,1,1944.09
1,13,153,3,2,74,2,20,0,45,45,1,882.17
1,13,153,4,2,55.5,1.5,20,1,45,45,1,796.13
1,13,153,5,2,74,2,20,1,45,45,1,1761.86
1,13,153,6,2,92.5,2.5,20,1,-45,-45,1,2269.69
1,13,154,1,2,92.5,2.5,20,0,-45,-45,1,3289.68
1,13,154,2,2,92.5,2.5,20,0,-45,-45,1,2522.81
1,13,154,3,2,92.5,2.5,20,0,-45,-45,1,3795.07
1,13,154,4,2,74,2,20,1,45,45,1,1821.94
1,13,154,5,2,92.5,2.5,20,1,-45,-45,1,1156.21
1,13,154,6,2,55.5,1.5,20,1,-45,-45,1,1802
1,13,155,1,1,74,2,30,0,-45,-45,1,2255.21
1,13,155,2,1,74,2,30,0,45,45,1,5127.66
1,13,155,3,1,74,2,30,0,-45,-45,1,846.03
1,13,155,4,1,74,2,30,1,45,45,1,1688.89
1,13,155,5,1,74,2,30,1,45,45,1,1771.54
1,13,155,6,1,74,2,30,1,-45,-45,1,3156.65
1,13,156,1,2,92.5,2.5,20,0,45,45,1,2671.87
1,13,156,2,2,92.5,2.5,20,0,-45,-45,1,1581.68
1,13,156,3,2,92.5,2.5,20,0,-45,-45,1,1313.89
1,13,156,4,2,74,2,20,1,-45,-45,1,844.12
1,13,156,5,2,55.5,1.5,20,1,-45,-45,1,2678.38
1,13,156,6,2,92.5,2.5,20,1,45,45,1,8341.17
2,1,1,1,1,74,2,10,0,45,45,1,10134.14
2,1,1,2,1,74,2,10,0,-45,-45,1,2851.76
2,1,1,3,1,74,2,10,0,-45,45,0,3249.26
2,1,1,4,1,74,2,10,1,45,45,1,2262.25
2,1,1,5,1,74,2,10,1,-45,-45,1,5472.29
2,1,1,6,1,74,2,10,1,-45,45,0,2123.21
2,1,2,1,1,111,3,30,0,45,45,1,4347.38
2,1,2,2,1,111,3,30,0,45,45,1,6291.93
2,1,2,3,1,111,3,30,0,45,45,1,9761.18
2,1,2,4,1,111,3,30,1,45,45,1,1201.14
2,1,2,5,1,111,3,30,1,45,45,1,4221.44
2,1,2,6,1,111,3,30,1,45,45,1,5069.62
2,1,3,1,1,74,2,30,0,-45,-45,1,6569.47
2,1,3,2,1,74,2,30,0,45,45,1,1172.81
2,1,3,3,1,74,2,30,0,-45,-45,1,7839.3
2,1,3,4,1,74,2,30,1,-45,-45,1,5440.7
2,1,3,5,1,74,2,30,1,45,45,1,3375.27
2,1,3,6,1,74,2,30,1,-45,-45,1,3989.83
2,1,4,1,1,74,2,20,0,-45,-45,1,1653.7
2,1,4,2,1,74,2,20,0,-45,-45,1,9708.18
2,1,4,3,1,74,2,20,0,-45,-45,1,5012.01
2,1,4,4,1,74,2,20,1,45,45,1,9667.46
2,1,4,5,1,74,2,20,1,-45,-45,1,3957.6
2,1,4,6,1,74,2,20,1,45,45,1,2814.28
2,1,5,1,1,92.5,2.5,20,0,45,45,1,12452.14
2,1,5,2,1,92.5,2.5,20,0,45,45,1,1112.56
2,1,5,3,1,92.5,2.5,20,0,45,45,1,1365.95
2,1,5,4,1,92.5,2.5,20,1,45,45,1,5273.05
2,1,5,5,1,92.5,2.5,20,1,45,45,1,4830.51
2,1,5,6,1,92.5,2.5,20,1,-45,-45,1,3190.62
2,1,6,1,1,55.5,1.5,20,0,45,45,1,3673.74
2,1,6,2,1,55.5,1.5,20,0,-45,-45,1,1712.43
2,1,6,3,1,55.5,1.5,20,0,-45,-45,1,4369.09
2,1,6,4,1,55.5,1.5,20,1,-45,-45,1,1780.23
2,1,6,5,1,55.5,1.5,20,1,45,45,1,2407.49
2,1,6,6,1,55.5,1.5,20,1,-45,-45,1,2088.58
2,1,7,1,1,55.5,1.5,30,0,-45,-45,1,6423.76
2,1,7,2,1,55.5,1.5,30,0,45,45,1,3709.06
2,1,7,3,1,55.5,1.5,30,0,-45,-45,1,3095.63
2,1,7,4,1,55.5,1.5,30,1,-45,-45,1,4781.95
2,1,7,5,1,55.5,1.5,30,1,-45,-45,1,2499.73
2,1,7,6,1,55.5,1.5,30,1,-45,-45,1,2166.37
2,1,8,1,1,92.5,2.5,30,0,-45,-45,1,14247.6
2,1,8,2,1,92.5,2.5,30,0,-45,-45,1,12650.89
2,1,8,3,1,92.5,2.5,30,0,45,45,1,4918.18
2,1,8,4,1,92.5,2.5,30,1,-45,-45,1,5110.07
2,1,8,5,1,92.5,2.5,30,1,45,45,1,4896.97
2,1,8,6,1,92.5,2.5,30,1,-45,-45,1,4227.8
2,1,9,1,1,111,3,20,0,45,45,1,4485.16
2,1,9,2,1,111,3,20,0,45,45,1,2032.14
2,1,9,3,1,111,3,20,0,45,45,1,3889.1
2,1,9,4,1,111,3,20,1,45,45,1,5877.7
2,1,9,5,1,111,3,20,1,45,45,1,4273.65
2,1,9,6,1,111,3,20,1,-45,-45,1,3839.48
2,1,10,1,1,55.5,1.5,10,0,-45,-45,1,6791.84
2,1,10,2,1,55.5,1.5,10,0,45,45,1,1497.74
2,1,10,3,1,55.5,1.5,10,0,-45,-45,1,2037.34
2,1,10,4,1,55.5,1.5,10,1,-45,-45,1,1774.29
2,1,10,5,1,55.5,1.5,10,1,45,45,1,1011.6
2,1,10,6,1,55.5,1.5,10,1,45,45,1,2575.13
2,1,11,1,1,92.5,2.5,10,0,-45,-45,1,1268.71
2,1,11,2,1,92.5,2.5,10,0,-45,-45,1,2727.35
2,1,11,3,1,92.5,2.5,10,0,-45,-45,1,2290.12
2,1,11,4,1,92.5,2.5,10,1,45,45,1,6370.31
2,1,11,5,1,92.5,2.5,10,1,-45,-45,1,2994.8
2,1,11,6,1,92.5,2.5,10,1,-45,-45,1,1275.08
2,1,12,1,1,111,3,10,0,45,45,1,1956.35
2,1,12,2,1,111,3,10,0,-45,-45,1,2760.4
2,1,12,3,1,111,3,10,0,-45,-45,1,1240.74
2,1,12,4,1,111,3,10,1,45,45,1,3115.3
2,1,12,5,1,111,3,10,1,-45,-45,1,938.03
2,1,12,6,1,111,3,10,1,-45,-45,1,1465.28
2,2,13,1,2,55.5,1.5,10,0,-45,-45,1,7975.18
2,2,13,2,2,55.5,1.5,10,0,45,45,1,994.79
2,2,13,3,2,55.5,1.5,10,0,45,45,1,2863.58
2,2,13,4,2,92.5,2.5,10,1,45,45,1,3389.75
2,2,13,5,2,55.5,1.5,10,1,-45,-45,1,2074.39
2,2,13,6,2,111,3,10,1,45,45,1,1336.85
2,2,14,1,1,92.5,2.5,10,0,-45,-45,1,1654.76
2,2,14,2,1,92.5,2.5,10,0,-45,-45,1,2212.34
2,2,14,3,1,92.5,2.5,10,0,-45,-45,1,1651.99
2,2,14,4,1,92.5,2.5,10,1,45,45,1,1235.52
2,2,14,5,1,92.5,2.5,10,1,45,45,1,949.24
2,2,14,6,1,92.5,2.5,10,1,-45,-45,1,2047.21
2,2,15,1,2,74,2,30,0,-45,-45,1,2350.02
2,2,15,2,2,74,2,30,0,45,45,1,2507.34
2,2,15,3,2,74,2,30,0,-45,-45,1,4741.99
2,2,15,4,2,111,3,30,1,45,45,1,5618.74
2,2,15,5,2,55.5,1.5,30,1,-45,-45,1,3495.69
2,2,15,6,2,74,2,30,1,-45,-45,1,3112.06
2,2,16,1,1,55.5,1.5,20,0,-45,-45,1,1820.18
2,2,16,2,1,55.5,1.5,20,0,-45,-45,1,1280.61
2,2,16,3,1,55.5,1.5,20,0,45,45,1,3505.14
2,2,16,4,1,55.5,1.5,20,1,-45,-45,1,1535.09
2,2,16,5,1,55.5,1.5,20,1,45,45,1,1503.84
2,2,16,6,1,55.5,1.5,20,1,-45,-45,1,1503.67
2,2,17,1,2,92.5,2.5,30,0,-45,-45,1,5221.78
2,2,17,2,2,92.5,2.5,30,0,45,45,1,1410.95
2,2,17,3,2,92.5,2.5,30,0,-45,-45,1,3700.87
2,2,17,4,2,111,3,30,1,45,45,1,12411.69
2,2,17,5,2,55.5,1.5,30,1,45,45,1,1822.26
2,2,17,6,2,74,2,30,1,45,45,1,4778.51
2,2,18,1,2,92.5,2.5,20,0,-45,-45,1,3714.73
2,2,18,2,2,92.5,2.5,20,0,-45,-45,1,2005.52
2,2,18,3,2,92.5,2.5,20,0,45,45,1,1911.53
2,2,18,4,2,55.5,1.5,20,1,45,45,1,6886.48
2,2,18,5,2,74,2,20,1,45,45,1,3504.15
2,2,18,6,2,92.5,2.5,20,1,-45,-45,1,2572.7
2,2,19,1,1,55.5,1.5,10,0,45,45,1,1779.42
2,2,19,2,1,55.5,1.5,10,0,-45,-45,1,1624.25
2,2,19,3,1,55.5,1.5,10,0,45,45,1,1489.67
2,2,19,4,1,55.5,1.5,10,1,-45,-45,1,1288.54
2,2,19,5,1,55.5,1.5,10,1,-45,-45,1,2088.79
2,2,19,6,1,55.5,1.5,10,1,45,45,1,1735.05
2,2,20,1,1,92.5,2.5,30,0,45,45,1,3416.6
2,2,20,2,1,92.5,2.5,30,0,45,45,1,6258.61
2,2,20,3,1,92.5,2.5,30,0,-45,-45,1,3414.56
2,2,20,4,1,92.5,2.5,30,1,-45,-45,1,8344.44
2,2,20,5,1,92.5,2.5,30,1,-45,-45,1,3317.31
2,2,20,6,1,92.5,2.5,30,1,45,45,1,1326.56
2,2,21,1,1,92.5,2.5,20,0,-45,-45,1,3061.03
2,2,21,2,1,92.5,2.5,20,0,45,45,1,5656.63
2,2,21,3,1,92.5,2.5,20,0,45,45,1,3557.47
2,2,21,4,1,92.5,2.5,20,1,45,45,1,2299.31
2,2,21,5,1,92.5,2.5,20,1,-45,-45,1,4496.15
2,2,21,6,1,92.5,2.5,20,1,-45,-45,1,5027.26
2,2,22,1,1,92.5,2.5,20,0,45,45,1,3233.41
2,2,22,2,1,92.5,2.5,20,0,-45,-45,1,2854.93
2,2,22,3,1,92.5,2.5,20,0,-45,-45,1,4680.63
2,2,22,4,1,92.5,2.5,20,1,-45,-45,1,1785.84
2,2,22,5,1,92.5,2.5,20,1,45,45,1,3929.1
2,2,22,6,1,92.5,2.5,20,1,45,45,1,3091.68
2,2,23,1,2,111,3,10,0,-45,-45,1,2475.01
2,2,23,2,2,111,3,10,0,-45,-45,1,4837.32
2,2,23,3,2,111,3,10,0,45,45,1,1031.85
2,2,23,4,2,55.5,1.5,10,1,45,45,1,1430.96
2,2,23,5,2,111,3,10,1,45,45,1,1550.54
2,2,23,6,2,74,2,10,1,45,45,1,1812.17
2,2,24,1,1,74,2,20,0,45,45,1,5055.79
2,2,24,2,1,74,2,20,0,-45,-45,1,4763.09
2,2,24,3,1,74,2,20,0,-45,-45,1,1791.49
2,2,24,4,1,74,2,20,1,-45,-45,1,4559.73
2,2,24,5,1,74,2,20,1,45,45,1,2479.88
2,2,24,6,1,74,2,20,1,45,45,1,3129.69
2,3,25,1,1,74,2,30,0,45,45,1,4019.33
2,3,25,2,1,74,2,30,0,45,45,1,5257.6
2,3,25,3,1,74,2,30,0,45,45,1,1899.53
2,3,25,4,1,74,2,30,1,-45,-45,1,6833.64
2,3,25,5,1,74,2,30,1,45,45,1,2170.67
2,3,25,6,1,74,2,30,1,45,45,1,5292.46
2,3,26,1,1,92.5,2.5,20,0,-45,-45,1,1542.26
2,3,26,2,1,92.5,2.5,20,0,-45,-45,1,4864.25
2,3,26,3,1,92.5,2.5,20,0,45,45,1,1436.35
2,3,26,4,1,92.5,2.5,20,1,-45,-45,1,3124.41
2,3,26,5,1,92.5,2.5,20,1,-45,-45,1,1260.5
2,3,26,6,1,92.5,2.5,20,1,-45,-45,1,5294.96
2,3,27,1,1,74,2,10,0,45,45,1,2069.28
2,3,27,2,1,74,2,10,0,45,45,1,3657.18
2,3,27,3,1,74,2,10,0,45,45,1,1693.65
2,3,27,4,1,74,2,10,1,45,45,1,3729.8
2,3,27,5,1,74,2,10,1,45,45,1,1722.15
2,3,27,6,1,74,2,10,1,45,45,1,3519.16
2,3,28,1,1,92.5,2.5,20,0,-45,-45,1,3759.73
2,3,28,2,1,92.5,2.5,20,0,-45,-45,1,4393.07
2,3,28,3,1,92.5,2.5,20,0,-45,-45,1,2886.61
2,3,28,4,1,92.5,2.5,20,1,-45,-45,1,2259.92
2,3,28,5,1,92.5,2.5,20,1,-45,-45,1,3598.1
2,3,28,6,1,92.5,2.5,20,1,45,45,1,4748.58
2,3,29,1,2,55.5,1.5,20,0,45,45,1,2151.33
2,3,29,2,2,55.5,1.5,20,0,45,45,1,1287.2
2,3,29,3,2,55.5,1.5,20,0,45,45,1,4195.33
2,3,29,4,2,74,2,20,1,45,45,1,3671.4
2,3,29,5,2,55.5,1.5,20,1,45,45,1,2122.43
2,3,29,6,2,92.5,2.5,20,1,-45,-45,1,5632.46
2,3,30,1,2,74,2,10,0,-45,-45,1,1093.76
2,3,30,2,2,74,2,10,0,-45,-45,1,4005.65
2,3,30,3,2,74,2,10,0,45,45,1,900.39
2,3,30,4,2,92.5,2.5,10,1,-45,-45,1,3496.8
2,3,30,5,2,74,2,10,1,45,45,1,1675.01
2,3,30,6,2,55.5,1.5,10,1,45,45,1,2215.87
2,3,31,1,2,92.5,2.5,20,0,-45,-45,1,1445.86
2,3,31,2,2,92.5,2.5,20,0,45,45,1,3043.53
2,3,31,3,2,92.5,2.5,20,0,45,45,1,8062.91
2,3,31,4,2,74,2,20,1,45,45,1,4132.58
2,3,31,5,2,92.5,2.5,20,1,45,45,1,1432.03
2,3,31,6,2,111,3,20,1,-45,-45,1,2780.79
2,3,32,1,2,111,3,20,0,45,45,1,5618.05
2,3,32,2,2,111,3,20,0,45,45,1,3648.16
2,3,32,3,2,111,3,20,0,-45,-45,1,2517.67
2,3,32,4,2,55.5,1.5,20,1,-45,-45,1,13049.28
2,3,32,5,2,74,2,20,1,45,45,1,4514.55
2,3,32,6,2,111,3,20,1,-45,-45,1,10546.91
2,3,33,1,1,111,3,30,0,45,45,1,13657.48
2,3,33,2,1,111,3,30,0,-45,-45,1,9584.93
2,3,33,3,1,111,3,30,0,45,45,1,2646.79
2,3,33,4,1,111,3,30,1,-45,-45,1,4358.82
2,3,33,5,1,111,3,30,1,-45,-45,1,6331.12
2,3,33,6,1,111,3,30,1,-45,-45,1,4464.58
2,3,34,1,1,55.5,1.5,30,0,45,45,1,5890.06
2,3,34,2,1,55.5,1.5,30,0,-45,-45,1,2530.72
2,3,34,3,1,55.5,1.5,30,0,45,45,1,2911.39
2,3,34,4,1,55.5,1.5,30,1,-45,-45,1,2757.96
2,3,34,5,1,55.5,1.5,30,1,-45,-45,1,1106.66
2,3,34,6,1,55.5,1.5,30,1,-45,-45,1,2463.61
2,3,35,1,1,55.5,1.5,10,0,45,45,1,1015.45
2,3,35,2,1,55.5,1.5,10,0,45,45,1,1138.77
2,3,35,3,1,55.5,1.5,10,0,45,45,1,1136.49
2,3,35,4,1,55.5,1.5,10,1,-45,-45,1,1659.29
2,3,35,5,1,55.5,1.5,10,1,-45,-45,1,1444.36
2,3,35,6,1,55.5,1.5,10,1,-45,-45,1,1043.67
2,3,36,1,2,92.5,2.5,20,0,45,45,1,5006.89
2,3,36,2,2,92.5,2.5,20,0,-45,-45,1,8463.53
2,3,36,3,2,92.5,2.5,20,0,45,45,1,4391.19
2,3,36,4,2,55.5,1.5,20,1,45,45,1,4470.18
2,3,36,5,2,111,3,20,1,45,45,1,3658.44
2,3,36,6,2,92.5,2.5,20,1,-45,-45,1,1907.33
2,4,37,1,2,55.5,1.5,20,0,45,45,1,2840.67
2,4,37,2,2,55.5,1.5,20,0,-45,-45,1,3149.74
2,4,37,3,2,55.5,1.5,20,0,45,45,1,2070.4
2,4,37,4,2,111,3,20,1,-45,-45,1,4216.1
2,4,37,5,2,92.5,2.5,20,1,45,45,1,1295.28
2,4,37,6,2,55.5,1.5,20,1,-45,-45,1,2513.95
2,4,38,1,2,111,3,10,0,-45,-45,1,2621.71
2,4,38,2,2,111,3,10,0,-45,-45,1,3273.11
2,4,38,3,2,111,3,10,0,45,45,1,2109.67
2,4,38,4,2,55.5,1.5,10,1,-45,-45,1,4569.5
2,4,38,5,2,74,2,10,1,45,45,1,994.8
2,4,38,6,2,111,3,10,1,45,45,1,1465.02
2,4,39,1,2,111,3,10,0,45,45,1,1221.57
2,4,39,2,2,111,3,10,0,-45,-45,1,2058.2
2,4,39,3,2,111,3,10,0,45,45,1,2662.99
2,4,39,4,2,92.5,2.5,10,1,-45,-45,1,3125.88
2,4,39,5,2,55.5,1.5,10,1,-45,-45,1,2282.17
2,4,39,6,2,74,2,10,1,-45,-45,1,3246
2,4,40,1,2,74,2,20,0,-45,-45,1,3191.33
2,4,40,2,2,74,2,20,0,45,45,1,5200.58
2,4,40,3,2,74,2,20,0,-45,-45,1,3902.65
2,4,40,4,2,55.5,1.5,20,1,-45,-45,1,1800.67
2,4,40,5,2,92.5,2.5,20,1,45,45,1,4862.97
2,4,40,6,2,111,3,20,1,45,45,1,6681.64
2,4,41,1,1,92.5,2.5,10,0,45,45,1,3524.82
2,4,41,2,1,92.5,2.5,10,0,45,45,1,2486.98
2,4,41,3,1,92.5,2.5,10,0,-45,-45,1,1902.88
2,4,41,4,1,92.5,2.5,10,1,45,45,1,4872.18
2,4,41,5,1,92.5,2.5,10,1,-45,-45,1,4463.76
2,4,41,6,1,92.5,2.5,10,1,45,45,1,4527.26
2,4,42,1,2,92.5,2.5,30,0,45,45,1,3455.92
2,4,42,2,2,92.5,2.5,30,0,-45,-45,1,12116.89
2,4,42,3,2,92.5,2.5,30,0,-45,-45,1,6399.18
2,4,42,4,2,111,3,30,1,-45,-45,1,10990.01
2,4,42,5,2,55.5,1.5,30,1,-45,-45,1,2477.79
2,4,42,6,2,74,2,30,1,45,45,1,7625.33
2,4,43,1,1,55.5,1.5,10,0,-45,-45,1,1999.19
2,4,43,2,1,55.5,1.5,10,0,45,45,1,1596.2
2,4,43,3,1,55.5,1.5,10,0,45,45,1,2859.31
2,4,43,4,1,55.5,1.5,10,1,45,45,1,1026.24
2,4,43,5,1,55.5,1.5,10,1,-45,-45,1,1653.87
2,4,43,6,1,55.5,1.5,10,1,-45,-45,1,3370.53
2,4,44,1,2,92.5,2.5,10,0,45,45,1,892.2
2,4,44,2,2,92.5,2.5,10,0,45,45,1,2492.26
2,4,44,3,2,92.5,2.5,10,0,-45,-45,1,1951.86
2,4,44,4,2,55.5,1.5,10,1,45,45,1,1793.62
2,4,44,5,2,74,2,10,1,-45,-45,1,3033.38
2,4,44,6,2,111,3,10,1,45,45,1,2065.54
2,4,45,1,1,55.5,1.5,30,0,-45,-45,1,4162.39
2,4,45,2,1,55.5,1.5,30,0,45,45,1,1325.42
2,4,45,3,1,55.5,1.5,30,0,45,45,1,12146.29
2,4,45,4,1,55.5,1.5,30,1,45,45,1,2365.09
2,4,45,5,1,55.5,1.5,30,1,-45,-45,1,11039.23
2,4,45,6,1,55.5,1.5,30,1,45,45,1,1209.96
2,4,46,1,1,92.5,2.5,30,0,-45,-45,1,4165.23
2,4,46,2,1,92.5,2.5,30,0,-45,-45,1,1846.57
2,4,46,3,1,92.5,2.5,30,0,45,45,1,2700.7
2,4,46,4,1,92.5,2.5,30,1,-45,-45,1,3632.7
2,4,46,5,1,92.5,2.5,30,1,-45,-45,1,1653.42
2,4,46,6,1,92.5,2.5,30,1,45,45,1,6800.04
2,4,47,1,1,74,2,20,0,-45,-45,1,7980.51
2,4,47,2,1,74,2,20,0,-45,-45,1,2864.06
2,4,47,3,1,74,2,20,0,-45,-45,1,2346.92
2,4,47,4,1,74,2,20,1,-45,-45,1,4965.09
2,4,47,5,1,74,2,20,1,45,45,1,1930.64
2,4,47,6,1,74,2,20,1,45,45,1,6769.62
2,4,48,1,1,92.5,2.5,10,0,45,45,1,2276.79
2,4,48,2,1,92.5,2.5,10,0,-45,-45,1,1761.93
2,4,48,3,1,92.5,2.5,10,0,-45,-45,1,5680.05
2,4,48,4,1,92.5,2.5,10,1,45,45,1,1850.3
2,4,48,5,1,92.5,2.5,10,1,45,45,1,2719.14
2,4,48,6,1,92.5,2.5,10,1,45,45,1,1293.25
2,5,49,1,1,111,3,20,0,-45,-45,1,6770.57
2,5,49,2,1,111,3,20,0,-45,-45,1,1551.51
2,5,49,3,1,111,3,20,0,45,45,1,1233.93
2,5,49,4,1,111,3,20,1,-45,-45,1,1793.86
2,5,49,5,1,111,3,20,1,-45,-45,1,1062.83
2,5,49,6,1,111,3,20,1,-45,-45,1,1075.77
2,5,50,1,2,55.5,1.5,20,0,45,45,1,8206.52
2,5,50,2,2,55.5,1.5,20,0,-45,-45,1,1727.42
2,5,50,3,2,55.5,1.5,20,0,-45,-45,1,1764.72
2,5,50,4,2,74,2,20,1,-45,-45,1,8417.35
2,5,50,5,2,111,3,20,1,-45,45,0,24835.3
2,5,50,6,2,92.5,2.5,20,1,-45,45,0,15825.53
2,5,51,1,2,92.5,2.5,20,0,-45,-45,1,23199.48
2,5,51,2,2,92.5,2.5,20,0,-45,-45,1,4108.53
2,5,51,3,2,92.5,2.5,20,0,-45,-45,1,1209.8
2,5,51,4,2,55.5,1.5,20,1,-45,-45,1,1139.49
2,5,51,5,2,111,3,20,1,45,45,1,1763.51
2,5,51,6,2,92.5,2.5,20,1,-45,-45,1,1830.87
2,5,52,1,2,74,2,10,0,-45,-45,1,1971.41
2,5,52,2,2,74,2,10,0,45,45,1,3917.48
2,5,52,3,2,74,2,10,0,-45,-45,1,2383.24
2,5,52,4,2,92.5,2.5,10,1,45,45,1,1406.49
2,5,52,5,2,74,2,10,1,-45,-45,1,9149.84
2,5,52,6,2,111,3,10,1,45,45,1,2299.73
2,5,53,1,2,111,3,30,0,-45,-45,1,5843.41
2,5,53,2,2,111,3,30,0,45,45,1,4270.93
2,5,53,3,2,111,3,30,0,45,45,1,5281.21
2,5,53,4,2,92.5,2.5,30,1,-45,-45,1,1518.3
2,5,53,5,2,111,3,30,1,-45,-45,1,5105.94
2,5,53,6,2,74,2,30,1,45,45,1,4050.16
2,5,54,1,2,92.5,2.5,20,0,-45,-45,1,1174.88
2,5,54,2,2,92.5,2.5,20,0,45,45,1,6291.93
2,5,54,3,2,92.5,2.5,20,0,45,45,1,2867.21
2,5,54,4,2,111,3,20,1,-45,-45,1,2326.32
2,5,54,5,2,55.5,1.5,20,1,45,45,1,4318.14
2,5,54,6,2,92.5,2.5,20,1,-45,-45,1,2251.08
2,5,55,1,2,74,2,10,0,45,45,1,2770.88
2,5,55,2,2,74,2,10,0,-45,-45,1,2912.82
2,5,55,3,2,74,2,10,0,45,45,1,1203.87
2,5,55,4,2,111,3,10,1,45,45,1,1744.56
2,5,55,5,2,74,2,10,1,45,45,1,1353.65
2,5,55,6,2,55.5,1.5,10,1,-45,-45,1,1287.23
2,5,56,1,2,111,3,30,0,45,45,1,2953.74
2,5,56,2,2,111,3,30,0,-45,-45,1,1980.93
2,5,56,3,2,111,3,30,0,45,45,1,3689.76
2,5,56,4,2,74,2,30,1,-45,-45,1,4854.98
2,5,56,5,2,111,3,30,1,-45,-45,1,5366.19
2,5,56,6,2,55.5,1.5,30,1,-45,-45,1,2660.72
2,5,57,1,1,55.5,1.5,20,0,-45,-45,1,2055.5
2,5,57,2,1,55.5,1.5,20,0,45,45,1,1140.69
2,5,57,3,1,55.5,1.5,20,0,45,45,1,1246.59
2,5,57,4,1,55.5,1.5,20,1,-45,-45,1,1632.71
2,5,57,5,1,55.5,1.5,20,1,-45,-45,1,1828.58
2,5,57,6,1,55.5,1.5,20,1,45,45,1,3892.55
2,5,58,1,1,111,3,10,0,-45,-45,1,1994.54
2,5,58,2,1,111,3,10,0,-45,-45,1,2369.52
2,5,58,3,1,111,3,10,0,45,45,1,1487.86
2,5,58,4,1,111,3,10,1,-45,-45,1,4256.18
2,5,58,5,1,111,3,10,1,-45,-45,1,2657.38
2,5,58,6,1,111,3,10,1,45,45,1,1121.7
2,5,59,1,2,55.5,1.5,20,0,45,45,1,1236.39
2,5,59,2,2,55.5,1.5,20,0,-45,-45,1,2505.85
2,5,59,3,2,55.5,1.5,20,0,45,45,1,1139.49
2,5,59,4,2,111,3,20,1,-45,-45,1,3953.12
2,5,59,5,2,55.5,1.5,20,1,45,45,1,3402.46
2,5,59,6,2,74,2,20,1,45,45,1,7287.74
2,5,60,1,1,111,3,10,0,-45,-45,1,995.15
2,5,60,2,1,111,3,10,0,45,45,1,1191.08
2,5,60,3,1,111,3,10,0,45,45,1,1353.18
2,5,60,4,1,111,3,10,1,-45,-45,1,1931.39
2,5,60,5,1,111,3,10,1,-45,-45,1,1667.22
2,5,60,6,1,111,3,10,1,45,45,1,1454.99
2,6,61,1,1,111,3,30,0,45,45,1,1627.18
2,6,61,2,1,111,3,30,0,45,45,1,2444.21
2,6,61,3,1,111,3,30,0,45,45,1,6651.94
2,6,61,4,1,111,3,30,1,-45,-45,1,1261.2
2,6,61,5,1,111,3,30,1,-45,-45,1,2476.83
2,6,61,6,1,111,3,30,1,45,45,1,1715.66
2,6,62,1,2,111,3,20,0,45,45,1,1360.96
2,6,62,2,2,111,3,20,0,-45,-45,1,1080.44
2,6,62,3,2,111,3,20,0,-45,-45,1,2818.34
2,6,62,4,2,92.5,2.5,20,1,45,45,1,1930.7
2,6,62,5,2,74,2,20,1,-45,-45,1,5704.73
2,6,62,6,2,111,3,20,1,-45,-45,1,1308.75
2,6,63,1,2,92.5,2.5,30,0,45,45,1,1352.47
2,6,63,2,2,92.5,2.5,30,0,45,45,1,5138.12
2,6,63,3,2,92.5,2.5,30,0,45,45,1,9534.67
2,6,63,4,2,55.5,1.5,30,1,-45,-45,1,1473.63
2,6,63,5,2,111,3,30,1,45,45,1,1002.09
2,6,63,6,2,74,2,30,1,45,45,1,2577.73
2,6,64,1,1,55.5,1.5,20,0,-45,-45,1,1330.4
2,6,64,2,1,55.5,1.5,20,0,-45,-45,1,2293
2,6,64,3,1,55.5,1.5,20,0,45,45,1,4345.95
2,6,64,4,1,55.5,1.5,20,1,45,45,1,1585.75
2,6,64,5,1,55.5,1.5,20,1,45,45,1,1386.32
2,6,64,6,1,55.5,1.5,20,1,45,45,1,1999.21
2,6,65,1,2,55.5,1.5,30,0,45,45,1,1631.76
2,6,65,2,2,55.5,1.5,30,0,45,45,1,1580.94
2,6,65,3,2,55.5,1.5,30,0,45,45,1,1777.71
2,6,65,4,2,92.5,2.5,30,1,45,45,1,4153.35
2,6,65,5,2,55.5,1.5,30,1,45,45,1,2761.02
2,6,65,6,2,111,3,30,1,45,45,1,2579.48
2,6,66,1,2,111,3,20,0,-45,-45,1,4174.43
2,6,66,2,2,111,3,20,0,-45,-45,1,6442.77
2,6,66,3,2,111,3,20,0,45,45,1,4735.92
2,6,66,4,2,74,2,20,1,-45,-45,1,9377.66
2,6,66,5,2,92.5,2.5,20,1,-45,-45,1,2377.43
2,6,66,6,2,111,3,20,1,45,45,1,4031.93
2,6,67,1,1,74,2,20,0,-45,-45,1,1398.02
2,6,67,2,1,74,2,20,0,-45,-45,1,3461.42
2,6,67,3,1,74,2,20,0,-45,-45,1,1758.09
2,6,67,4,1,74,2,20,1,45,45,1,5482.1
2,6,67,5,1,74,2,20,1,45,45,1,3373.97
2,6,67,6,1,74,2,20,1,-45,-45,1,6883.81
2,6,68,1,1,111,3,30,0,45,45,1,8127.14
2,6,68,2,1,111,3,30,0,45,45,1,5417.31
2,6,68,3,1,111,3,30,0,45,45,1,1877.14
2,6,68,4,1,111,3,30,1,-45,-45,1,6892.32
2,6,68,5,1,111,3,30,1,45,45,1,7433.94
2,6,68,6,1,111,3,30,1,-45,-45,1,12822.57
2,6,69,1,2,55.5,1.5,10,0,45,45,1,2420.98
2,6,69,2,2,55.5,1.5,10,0,45,45,1,1148.67
2,6,69,3,2,55.5,1.5,10,0,45,45,1,1327.52
2,6,69,4,2,111,3,10,1,-45,-45,1,1217.27
2,6,69,5,2,92.5,2.5,10,1,45,45,1,1308.06
2,6,69,6,2,55.5,1.5,10,1,45,45,1,3382.52
2,6,70,1,2,74,2,30,0,-45,-45,1,7397.81
2,6,70,2,2,74,2,30,0,45,45,1,7080.58
2,6,70,3,2,74,2,30,0,-45,-45,1,8096.69
2,6,70,4,2,55.5,1.5,30,1,-45,-45,1,1254.84
2,6,70,5,2,74,2,30,1,-45,-45,1,8872.62
2,6,70,6,2,92.5,2.5,30,1,45,45,1,17427.86
2,6,71,1,1,74,2,10,0,-45,-45,1,1522.33
2,6,71,2,1,74,2,10,0,45,45,1,1154.48
2,6,71,3,1,74,2,10,0,45,45,1,3124.13
2,6,71,4,1,74,2,10,1,45,45,1,1108.94
2,6,71,5,1,74,2,10,1,45,45,1,3882.97
2,6,71,6,1,74,2,10,1,-45,-45,1,1476.44
2,6,72,1,2,92.5,2.5,10,0,45,45,1,2135.22
2,6,72,2,2,92.5,2.5,10,0,45,45,1,1252.32
2,6,72,3,2,92.5,2.5,10,0,-45,-45,1,1312.07
2,6,72,4,2,111,3,10,1,45,45,1,1546.86
2,6,72,5,2,92.5,2.5,10,1,-45,-45,1,1139.15
2,6,72,6,2,74,2,10,1,-45,-45,1,956.72
2,7,73,1,1,92.5,2.5,30,0,-45,-45,1,4233.42
2,7,73,2,1,92.5,2.5,30,0,45,45,1,3851
2,7,73,3,1,92.5,2.5,30,0,45,45,1,1356.87
2,7,73,4,1,92.5,2.5,30,1,-45,-45,1,1179.16
2,7,73,5,1,92.5,2.5,30,1,-45,-45,1,3197.57
2,7,73,6,1,92.5,2.5,30,1,45,45,1,6675.43
2,7,74,1,1,55.5,1.5,10,0,-45,-45,1,2246.85
2,7,74,2,1,55.5,1.5,10,0,45,45,1,1564.56
2,7,74,3,1,55.5,1.5,10,0,-45,-45,1,2053.9
2,7,74,4,1,55.5,1.5,10,1,-45,-45,1,4127.48
2,7,74,5,1,55.5,1.5,10,1,-45,-45,1,1115.08
2,7,74,6,1,55.5,1.5,10,1,45,45,1,931.17
2,7,75,1,1,92.5,2.5,10,0,-45,-45,1,1061.18
2,7,75,2,1,92.5,2.5,10,0,45,45,1,1592.3
2,7,75,3,1,92.5,2.5,10,0,-45,-45,1,2059.13
2,7,75,4,1,92.5,2.5,10,1,45,45,1,1882.11
2,7,75,5,1,92.5,2.5,10,1,-45,-45,1,1419.3
2,7,75,6,1,92.5,2.5,10,1,45,45,1,2032.04
2,7,76,1,1,111,3,20,0,45,45,1,1478.32
2,7,76,2,1,111,3,20,0,45,45,1,763.98
2,7,76,3,1,111,3,20,0,45,45,1,917.02
2,7,76,4,1,111,3,20,1,45,45,1,1450.81
2,7,76,5,1,111,3,20,1,45,45,1,856.11
2,7,76,6,1,111,3,20,1,45,45,1,3588.78
2,7,77,1,2,92.5,2.5,20,0,-45,-45,1,2974.78
2,7,77,2,2,92.5,2.5,20,0,45,45,1,1924.6
2,7,77,3,2,92.5,2.5,20,0,-45,-45,1,1309.91
2,7,77,4,2,111,3,20,1,45,45,1,3593.09
2,7,77,5,2,74,2,20,1,-45,-45,1,3441.37
2,7,77,6,2,92.5,2.5,20,1,45,45,1,2175.11
2,7,78,1,1,111,3,20,0,45,45,1,1566.65
2,7,78,2,1,111,3,20,0,-45,-45,1,3414.51
2,7,78,3,1,111,3,20,0,45,45,1,1259.3
2,7,78,4,1,111,3,20,1,-45,-45,1,2058.86
2,7,78,5,1,111,3,20,1,45,45,1,805.43
2,7,78,6,1,111,3,20,1,-45,-45,1,1292.16
2,7,79,1,1,92.5,2.5,20,0,45,45,1,2695.46
2,7,79,2,1,92.5,2.5,20,0,45,45,1,2129.95
2,7,79,3,1,92.5,2.5,20,0,45,45,1,2291.2
2,7,79,4,1,92.5,2.5,20,1,-45,-45,1,940.9
2,7,79,5,1,92.5,2.5,20,1,-45,-45,1,1174.19
2,7,79,6,1,92.5,2.5,20,1,45,45,1,2999.05
2,7,80,1,1,111,3,20,0,45,45,1,760.32
2,7,80,2,1,111,3,20,0,-45,-45,1,2001.72
2,7,80,3,1,111,3,20,0,-45,-45,1,1193.26
2,7,80,4,1,111,3,20,1,-45,-45,1,1436.23
2,7,80,5,1,111,3,20,1,-45,-45,1,2256.54
2,7,80,6,1,111,3,20,1,45,45,1,5016.38
2,7,81,1,2,74,2,10,0,45,45,1,1835.97
2,7,81,2,2,74,2,10,0,45,45,1,1674.89
2,7,81,3,2,74,2,10,0,-45,-45,1,3200.86
2,7,81,4,2,92.5,2.5,10,1,-45,-45,1,924.48
2,7,81,5,2,55.5,1.5,10,1,45,45,1,880.51
2,7,81,6,2,74,2,10,1,45,45,1,1174.32
2,7,82,1,2,92.5,2.5,10,0,-45,-45,1,1342.81
2,7,82,2,2,92.5,2.5,10,0,-45,-45,1,1983.18
2,7,82,3,2,92.5,2.5,10,0,45,45,1,2314.54
2,7,82,4,2,55.5,1.5,10,1,45,45,1,1640.29
2,7,82,5,2,74,2,10,1,-45,-45,1,1503.7
2,7,82,6,2,92.5,2.5,10,1,-45,-45,1,994.31
2,7,83,1,1,55.5,1.5,30,0,45,45,1,2143.46
2,7,83,2,1,55.5,1.5,30,0,-45,-45,1,2044.52
2,7,83,3,1,55.5,1.5,30,0,-45,-45,1,1964.92
2,7,83,4,1,55.5,1.5,30,1,-45,-45,1,1501.9
2,7,83,5,1,55.5,1.5,30,1,-45,-45,1,1232
2,7,83,6,1,55.5,1.5,30,1,-45,-45,1,1276.63
2,7,84,1,2,55.5,1.5,20,0,45,45,1,1295.19
2,7,84,2,2,55.5,1.5,20,0,45,45,1,1388.47
2,7,84,3,2,55.5,1.5,20,0,-45,-45,1,904.42
2,7,84,4,2,74,2,20,1,-45,-45,1,1404.66
2,7,84,5,2,92.5,2.5,20,1,45,45,1,4264.89
2,7,84,6,2,55.5,1.5,20,1,45,45,1,1272.07
2,8,85,1,1,55.5,1.5,10,0,-45,-45,1,3265.79
2,8,85,2,1,55.5,1.5,10,0,45,45,1,2563.72
2,8,85,3,1,55.5,1.5,10,0,-45,-45,1,1519.3
2,8,85,4,1,55.5,1.5,10,1,45,45,1,1409.07
2,8,85,5,1,55.5,1.5,10,1,-45,-45,1,972.64
2,8,85,6,1,55.5,1.5,10,1,45,45,1,2510.54
2,8,86,1,2,55.5,1.5,20,0,-45,-45,1,791.63
2,8,86,2,2,55.5,1.5,20,0,45,45,1,1462.12
2,8,86,3,2,55.5,1.5,20,0,-45,-45,1,2022.37
2,8,86,4,2,111,3,20,1,-45,-45,1,5880.55
2,8,86,5,2,74,2,20,1,-45,-45,1,2781.18
2,8,86,6,2,92.5,2.5,20,1,-45,-45,1,2035.85
2,8,87,1,2,92.5,2.5,10,0,-45,-45,1,1360.38
2,8,87,2,2,92.5,2.5,10,0,-45,-45,1,757.16
2,8,87,3,2,92.5,2.5,10,0,-45,45,0,1059.1
2,8,87,4,2,55.5,1.5,10,1,-45,-45,1,2683.1
2,8,87,5,2,111,3,10,1,-45,-45,1,5179.28
2,8,87,6,2,92.5,2.5,10,1,-45,-45,1,2115.55
2,8,88,1,2,92.5,2.5,10,0,45,45,1,2111.83
2,8,88,2,2,92.5,2.5,10,0,45,45,1,922.4
2,8,88,3,2,92.5,2.5,10,0,45,45,1,2958.61
2,8,88,4,2,55.5,1.5,10,1,-45,-45,1,2242.88
2,8,88,5,2,74,2,10,1,-45,-45,1,14671.57
2,8,88,6,2,92.5,2.5,10,1,-45,-45,1,3357.73
2,8,89,1,1,111,3,10,0,45,45,1,1800.42
2,8,89,2,1,111,3,10,0,45,45,1,1318.74
2,8,89,3,1,111,3,10,0,-45,-45,1,1453.2
2,8,89,4,1,111,3,10,1,-45,-45,1,1710.59
2,8,89,5,1,111,3,10,1,45,45,1,830.84
2,8,89,6,1,111,3,10,1,-45,-45,1,1579.44
2,8,90,1,2,111,3,10,0,-45,-45,1,1149.83
2,8,90,2,2,111,3,10,0,-45,-45,1,3726.25
2,8,90,3,2,111,3,10,0,-45,-45,1,5806.06
2,8,90,4,2,92.5,2.5,10,1,-45,-45,1,1509.81
2,8,90,5,2,111,3,10,1,-45,-45,1,10753.91
2,8,90,6,2,55.5,1.5,10,1,45,45,1,883.97
2,8,91,1,1,55.5,1.5,20,0,45,45,1,1372.53
2,8,91,2,1,55.5,1.5,20,0,-45,-45,1,4876.23
2,8,91,3,1,55.5,1.5,20,0,-45,-45,1,3880.15
2,8,91,4,1,55.5,1.5,20,1,-45,-45,1,3156.04
2,8,91,5,1,55.5,1.5,20,1,45,45,1,1756.12
2,8,91,6,1,55.5,1.5,20,1,-45,-45,1,5285.33
2,8,92,1,2,92.5,2.5,30,0,-45,-45,1,6025.39
2,8,92,2,2,92.5,2.5,30,0,45,45,1,11982.06
2,8,92,3,2,92.5,2.5,30,0,-45,-45,1,4605.82
2,8,92,4,2,111,3,30,1,45,45,1,9957.57
2,8,92,5,2,92.5,2.5,30,1,-45,-45,1,7715.7
2,8,92,6,2,74,2,30,1,45,45,1,9719.59
2,8,93,1,2,111,3,20,0,45,45,1,2037.04
2,8,93,2,2,111,3,20,0,-45,-45,1,1492.41
2,8,93,3,2,111,3,20,0,45,45,1,1118.92
2,8,93,4,2,55.5,1.5,20,1,-45,-45,1,1747.8
2,8,93,5,2,74,2,20,1,-45,-45,1,4056.25
2,8,93,6,2,111,3,20,1,45,45,1,1079.18
2,8,94,1,1,111,3,30,0,45,45,1,1280.11
2,8,94,2,1,111,3,30,0,-45,-45,1,2202.5
2,8,94,3,1,111,3,30,0,-45,-45,1,2700.46
2,8,94,4,1,111,3,30,1,-45,-45,1,1315.83
2,8,94,5,1,111,3,30,1,-45,-45,1,7991.73
2,8,94,6,1,111,3,30,1,-45,-45,1,8248.87
2,8,95,1,1,74,2,20,0,-45,-45,1,7142.24
2,8,95,2,1,74,2,20,0,45,-45,0,5998.43
2,8,95,3,1,74,2,20,0,-45,-45,1,4892.61
2,8,95,4,1,74,2,20,1,45,45,1,4047.08
2,8,95,5,1,74,2,20,1,45,45,1,5804.77
2,8,95,6,1,74,2,20,1,45,45,1,2768.26
2,8,96,1,2,55.5,1.5,10,0,45,45,1,2836.62
2,8,96,2,2,55.5,1.5,10,0,45,45,1,934.08
2,8,96,3,2,55.5,1.5,10,0,-45,-45,1,3560.57
2,8,96,4,2,111,3,10,1,-45,-45,1,1345.18
2,8,96,5,2,92.5,2.5,10,1,-45,-45,1,8707.59
2,8,96,6,2,74,2,10,1,45,45,1,1203.69
2,9,97,1,1,55.5,1.5,20,0,45,45,1,3737.35
2,9,97,2,1,55.5,1.5,20,0,45,45,1,7721.93
2,9,97,3,1,55.5,1.5,20,0,45,45,1,2282.97
2,9,97,4,1,55.5,1.5,20,1,45,45,1,1406.59
2,9,97,5,1,55.5,1.5,20,1,-45,-45,1,839.53
2,9,97,6,1,55.5,1.5,20,1,45,45,1,1198.51
2,9,98,1,1,92.5,2.5,10,0,-45,-45,1,1871.58
2,9,98,2,1,92.5,2.5,10,0,-45,-45,1,1331.63
2,9,98,3,1,92.5,2.5,10,0,-45,-45,1,2371.83
2,9,98,4,1,92.5,2.5,10,1,-45,-45,1,2071.13
2,9,98,5,1,92.5,2.5,10,1,-45,-45,1,4290.11
2,9,98,6,1,92.5,2.5,10,1,45,45,1,5209.26
2,9,99,1,1,74,2,30,0,-45,-45,1,7757.85
2,9,99,2,1,74,2,30,0,-45,-45,1,7476.25
2,9,99,3,1,74,2,30,0,45,45,1,5666.31
2,9,99,4,1,74,2,30,1,-45,-45,1,3501.07
2,9,99,5,1,74,2,30,1,45,45,1,5812.75
2,9,99,6,1,74,2,30,1,45,45,1,2482.68
2,9,100,1,1,74,2,30,0,-45,-45,1,6064.87
2,9,100,2,1,74,2,30,0,45,45,1,2505.07
2,9,100,3,1,74,2,30,0,45,45,1,8894.57
2,9,100,4,1,74,2,30,1,-45,-45,1,1278.04
2,9,100,5,1,74,2,30,1,45,45,1,5628.61
2,9,100,6,1,74,2,30,1,45,45,1,12972.26
2,9,101,1,2,55.5,1.5,30,0,-45,-45,1,2727.13
2,9,101,2,2,55.5,1.5,30,0,45,45,1,1402.32
2,9,101,3,2,55.5,1.5,30,0,-45,-45,1,1934.79
2,9,101,4,2,111,3,30,1,-45,-45,1,5446.63
2,9,101,5,2,55.5,1.5,30,1,45,45,1,2924.87
2,9,101,6,2,92.5,2.5,30,1,-45,-45,1,3423.94
2,9,102,1,2,55.5,1.5,10,0,-45,-45,1,2146.45
2,9,102,2,2,55.5,1.5,10,0,45,45,1,876.65
2,9,102,3,2,55.5,1.5,10,0,45,45,1,1035.21
2,9,102,4,2,92.5,2.5,10,1,45,45,1,1118.59
2,9,102,5,2,74,2,10,1,45,45,1,839.54
2,9,102,6,2,55.5,1.5,10,1,-45,-45,1,1886.1
2,9,103,1,1,111,3,20,0,45,45,1,1985.74
2,9,103,2,1,111,3,20,0,-45,-45,1,1226.61
2,9,103,3,1,111,3,20,0,-45,-45,1,1737.99
2,9,103,4,1,111,3,20,1,-45,-45,1,2095.42
2,9,103,5,1,111,3,20,1,-45,-45,1,8779.49
2,9,103,6,1,111,3,20,1,45,45,1,1006.85
2,9,104,1,2,111,3,30,0,45,45,1,2111.01
2,9,104,2,2,111,3,30,0,45,45,1,899.68
2,9,104,3,2,111,3,30,0,-45,-45,1,1143.5
2,9,104,4,2,74,2,30,1,-45,-45,1,2525.87
2,9,104,5,2,92.5,2.5,30,1,45,45,1,1518.7
2,9,104,6,2,111,3,30,1,-45,-45,1,3118.99
2,9,105,1,1,55.5,1.5,30,0,-45,-45,1,2869.1
2,9,105,2,1,55.5,1.5,30,0,-45,-45,1,4670.39
2,9,105,3,1,55.5,1.5,30,0,-45,-45,1,6274.5
2,9,105,4,1,55.5,1.5,30,1,-45,-45,1,5054.81
2,9,105,5,1,55.5,1.5,30,1,-45,-45,1,5892.99
2,9,105,6,1,55.5,1.5,30,1,45,45,1,1099.5
2,9,106,1,2,74,2,30,0,-45,-45,1,11847.12
2,9,106,2,2,74,2,30,0,-45,45,0,1246.55
2,9,106,3,2,74,2,30,0,45,45,1,4919.2
2,9,106,4,2,55.5,1.5,30,1,45,45,1,7528.87
2,9,106,5,2,74,2,30,1,45,45,1,1004.84
2,9,106,6,2,111,3,30,1,-45,-45,1,20834.56
2,9,107,1,1,92.5,2.5,10,0,45,45,1,3814.57
2,9,107,2,1,92.5,2.5,10,0,-45,-45,1,2432.88
2,9,107,3,1,92.5,2.5,10,0,45,45,1,1405.07
2,9,107,4,1,92.5,2.5,10,1,45,45,1,2765.75
2,9,107,5,1,92.5,2.5,10,1,45,45,1,1365.49
2,9,107,6,1,92.5,2.5,10,1,45,45,1,1277.83
2,9,108,1,1,74,2,10,0,-45,-45,1,3626.35
2,9,108,2,1,74,2,10,0,-45,-45,1,1567.29
2,9,108,3,1,74,2,10,0,-45,-45,1,2667.08
2,9,108,4,1,74,2,10,1,-45,-45,1,2949.08
2,9,108,5,1,74,2,10,1,-45,-45,1,2748.1
2,9,108,6,1,74,2,10,1,-45,-45,1,2208.23
2,10,109,1,2,55.5,1.5,30,0,45,45,1,10187.69
2,10,109,2,2,55.5,1.5,30,0,-45,-45,1,2233.82
2,10,109,3,2,55.5,1.5,30,0,45,45,1,3150.56
2,10,109,4,2,74,2,30,1,45,45,1,2983.68
2,10,109,5,2,111,3,30,1,-45,-45,1,7066.7
2,10,109,6,2,92.5,2.5,30,1,45,45,1,3200.55
2,10,110,1,1,111,3,30,0,45,45,1,2565.28
2,10,110,2,1,111,3,30,0,-45,-45,1,2421.17
2,10,110,3,1,111,3,30,0,-45,-45,1,3170.92
2,10,110,4,1,111,3,30,1,45,45,1,1054.37
2,10,110,5,1,111,3,30,1,-45,-45,1,2530.14
2,10,110,6,1,111,3,30,1,-45,-45,1,3393.82
2,10,111,1,2,74,2,20,0,45,45,1,1415.65
2,10,111,2,2,74,2,20,0,45,45,1,2022.26
2,10,111,3,2,74,2,20,0,-45,-45,1,1708.87
2,10,111,4,2,111,3,20,1,-45,-45,1,5097.86
2,10,111,5,2,55.5,1.5,20,1,45,45,1,1137.04
2,10,111,6,2,92.5,2.5,20,1,-45,-45,1,4580.14
2,10,112,1,2,92.5,2.5,30,0,45,45,1,1739.63
2,10,112,2,2,92.5,2.5,30,0,-45,-45,1,2355.33
2,10,112,3,2,92.5,2.5,30,0,-45,-45,1,7779.88
2,10,112,4,2,55.5,1.5,30,1,45,45,1,2905.39
2,10,112,5,2,111,3,30,1,45,45,1,1066.46
2,10,112,6,2,74,2,30,1,45,45,1,9206.16
2,10,113,1,1,111,3,10,0,45,45,1,1857.09
2,10,113,2,1,111,3,10,0,-45,-45,1,2426.51
2,10,113,3,1,111,3,10,0,45,45,1,2003.2
2,10,113,4,1,111,3,10,1,45,45,1,1734.97
2,10,113,5,1,111,3,10,1,-45,-45,1,2620.34
2,10,113,6,1,111,3,10,1,45,45,1,998.89
2,10,114,1,2,74,2,20,0,-45,-45,1,4966.44
2,10,114,2,2,74,2,20,0,45,45,1,5879.86
2,10,114,3,2,74,2,20,0,-45,-45,1,1895.19
2,10,114,4,2,111,3,20,1,-45,-45,1,3228.9
2,10,114,5,2,92.5,2.5,20,1,45,45,1,5219.62
2,10,114,6,2,55.5,1.5,20,1,-45,-45,1,2048.94
2,10,115,1,1,74,2,10,0,-45,-45,1,3806
2,10,115,2,1,74,2,10,0,45,45,1,2891.57
2,10,115,3,1,74,2,10,0,45,45,1,1614.04
2,10,115,4,1,74,2,10,1,-45,-45,1,2023
2,10,115,5,1,74,2,10,1,-45,-45,1,3087.21
2,10,115,6,1,74,2,10,1,45,45,1,1999.29
2,10,116,1,2,111,3,10,0,45,45,1,1541.09
2,10,116,2,2,111,3,10,0,-45,-45,1,1760.01
2,10,116,3,2,111,3,10,0,45,45,1,1811.48
2,10,116,4,2,55.5,1.5,10,1,-45,-45,1,2585.67
2,10,116,5,2,74,2,10,1,-45,-45,1,2465.59
2,10,116,6,2,92.5,2.5,10,1,-45,-45,1,2982.6
2,10,117,1,2,55.5,1.5,30,0,-45,-45,1,3290.45
2,10,117,2,2,55.5,1.5,30,0,-45,-45,1,3309.49
2,10,117,3,2,55.5,1.5,30,0,45,45,1,1135.66
2,10,117,4,2,92.5,2.5,30,1,-45,-45,1,8644.33
2,10,117,5,2,55.5,1.5,30,1,45,45,1,1709.6
2,10,117,6,2,111,3,30,1,45,45,1,11631.8
2,10,118,1,2,55.5,1.5,30,0,45,45,1,6119.64
2,10,118,2,2,55.5,1.5,30,0,-45,-45,1,1906.39
2,10,118,3,2,55.5,1.5,30,0,-45,-45,1,4718.86
2,10,118,4,2,74,2,30,1,-45,-45,1,7329.31
2,10,118,5,2,55.5,1.5,30,1,45,45,1,1356.83
2,10,118,6,2,92.5,2.5,30,1,45,45,1,900.19
2,10,119,1,2,74,2,10,0,45,45,1,2431.48
2,10,119,2,2,74,2,10,0,-45,-45,1,2087.2
2,10,119,3,2,74,2,10,0,-45,-45,1,2912.05
2,10,119,4,2,55.5,1.5,10,1,-45,-45,1,789.98
2,10,119,5,2,74,2,10,1,45,45,1,2240.05
2,10,119,6,2,111,3,10,1,-45,-45,1,870.54
2,10,120,1,2,74,2,20,0,45,45,1,5373.15
2,10,120,2,2,74,2,20,0,-45,-45,1,6806.45
2,10,120,3,2,74,2,20,0,45,45,1,5235.04
2,10,120,4,2,55.5,1.5,20,1,45,45,1,1864.35
2,10,120,5,2,92.5,2.5,20,1,-45,-45,1,2883.35
2,10,120,6,2,111,3,20,1,45,45,1,5836.33
2,11,121,1,2,74,2,30,0,45,45,1,8161.69
2,11,121,2,2,74,2,30,0,45,45,1,3772.32
2,11,121,3,2,74,2,30,0,45,45,1,2803.64
2,11,121,4,2,111,3,30,1,45,45,1,1194.79
2,11,121,5,2,74,2,30,1,-45,-45,1,5999.82
2,11,121,6,2,55.5,1.5,30,1,-45,-45,1,6613.38
2,11,122,1,2,92.5,2.5,10,0,45,45,1,1511.61
2,11,122,2,2,92.5,2.5,10,0,45,45,1,1065.34
2,11,122,3,2,92.5,2.5,10,0,-45,-45,1,980.53
2,11,122,4,2,111,3,10,1,-45,-45,1,4247.44
2,11,122,5,2,74,2,10,1,-45,-45,1,2089.47
2,11,122,6,2,92.5,2.5,10,1,-45,-45,1,4123.72
2,11,123,1,1,111,3,30,0,45,45,1,2103.31
2,11,123,2,1,111,3,30,0,45,45,1,1271.98
2,11,123,3,1,111,3,30,0,45,45,1,1404.4
2,11,123,4,1,111,3,30,1,-45,-45,1,1703.39
2,11,123,5,1,111,3,30,1,45,45,1,1164.1
2,11,123,6,1,111,3,30,1,-45,-45,1,1826.75
2,11,124,1,1,74,2,10,0,45,45,1,1207.99
2,11,124,2,1,74,2,10,0,45,45,1,1470.64
2,11,124,3,1,74,2,10,0,-45,-45,1,1774.41
2,11,124,4,1,74,2,10,1,45,45,1,839.65
2,11,124,5,1,74,2,10,1,-45,-45,1,1145.32
2,11,124,6,1,74,2,10,1,45,45,1,2035.59
2,11,125,1,1,55.5,1.5,30,0,45,45,1,6384.12
2,11,125,2,1,55.5,1.5,30,0,45,45,1,751.67
2,11,125,3,1,55.5,1.5,30,0,-45,-45,1,810.29
2,11,125,4,1,55.5,1.5,30,1,-45,-45,1,1096.02
2,11,125,5,1,55.5,1.5,30,1,-45,-45,1,1314.23
2,11,125,6,1,55.5,1.5,30,1,-45,-45,1,1531.05
2,11,126,1,2,55.5,1.5,10,0,-45,-45,1,1205.57
2,11,126,2,2,55.5,1.5,10,0,-45,-45,1,1163.79
2,11,126,3,2,55.5,1.5,10,0,45,45,1,1507.05
2,11,126,4,2,74,2,10,1,-45,-45,1,3655.05
2,11,126,5,2,55.5,1.5,10,1,45,45,1,1462.07
2,11,126,6,2,111,3,10,1,45,45,1,2950.25
2,11,127,1,2,74,2,20,0,45,45,1,2581.11
2,11,127,2,2,74,2,20,0,45,45,1,3904.17
2,11,127,3,2,74,2,20,0,45,45,1,4027.78
2,11,127,4,2,92.5,2.5,20,1,-45,-45,1,2426.42
2,11,127,5,2,74,2,20,1,45,45,1,1276.18
2,11,127,6,2,55.5,1.5,20,1,-45,-45,1,1082
2,11,128,1,1,92.5,2.5,20,0,-45,-45,1,5326.78
2,11,128,2,1,92.5,2.5,20,0,-45,-45,1,3538.07
2,11,128,3,1,92.5,2.5,20,0,45,45,1,13754.23
2,11,128,4,1,92.5,2.5,20,1,45,45,1,1122.06
2,11,128,5,1,92.5,2.5,20,1,-45,-45,1,985.12
2,11,128,6,1,92.5,2.5,20,1,45,45,1,5036.68
2,11,129,1,2,111,3,10,0,45,45,1,2208.59
2,11,129,2,2,111,3,10,0,45,45,1,2188.6
2,11,129,3,2,111,3,10,0,-45,-45,1,2286.94
2,11,129,4,2,74,2,10,1,-45,-45,1,4465.16
2,11,129,5,2,55.5,1.5,10,1,45,45,1,853.53
2,11,129,6,2,111,3,10,1,45,45,1,1579.8
2,11,130,1,2,111,3,20,0,45,45,1,1296.17
2,11,130,2,2,111,3,20,0,45,45,1,2860.45
2,11,130,3,2,111,3,20,0,45,45,1,1443.53
2,11,130,4,2,74,2,20,1,45,45,1,1945.86
2,11,130,5,2,55.5,1.5,20,1,45,45,1,6680.79
2,11,130,6,2,111,3,20,1,-45,-45,1,1722.41
2,11,131,1,2,111,3,30,0,45,45,1,4428.94
2,11,131,2,2,111,3,30,0,45,45,1,867.69
2,11,131,3,2,111,3,30,0,45,45,1,4243.36
2,11,131,4,2,55.5,1.5,30,1,-45,-45,1,2161.16
2,11,131,5,2,111,3,30,1,45,45,1,1639.45
2,11,131,6,2,74,2,30,1,-45,-45,1,3964.12
2,11,132,1,2,55.5,1.5,30,0,-45,-45,1,1666.6
2,11,132,2,2,55.5,1.5,30,0,-45,-45,1,2859.62
2,11,132,3,2,55.5,1.5,30,0,45,45,1,1520.99
2,11,132,4,2,111,3,30,1,45,45,1,4302.11
2,11,132,5,2,74,2,30,1,45,45,1,2040.83
2,11,132,6,2,92.5,2.5,30,1,-45,-45,1,2019.65
2,12,133,1,1,92.5,2.5,30,0,-45,-45,1,5131.69
2,12,133,2,1,92.5,2.5,30,0,45,45,1,1787.4
2,12,133,3,1,92.5,2.5,30,0,-45,-45,1,3795.36
2,12,133,4,1,92.5,2.5,30,1,45,45,1,959.65
2,12,133,5,1,92.5,2.5,30,1,45,45,1,2359.61
2,12,133,6,1,92.5,2.5,30,1,-45,-45,1,2169.28
2,12,134,1,2,92.5,2.5,30,0,45,45,1,1022.24
2,12,134,2,2,92.5,2.5,30,0,45,45,1,3701.86
2,12,134,3,2,92.5,2.5,30,0,-45,-45,1,6189.53
2,12,134,4,2,55.5,1.5,30,1,-45,-45,1,1511.52
2,12,134,5,2,74,2,30,1,-45,-45,1,8678.66
2,12,134,6,2,111,3,30,1,45,45,1,1221.48
2,12,135,1,2,111,3,20,0,45,45,1,3689.16
2,12,135,2,2,111,3,20,0,45,45,1,1018.38
2,12,135,3,2,111,3,20,0,45,45,1,1316.74
2,12,135,4,2,55.5,1.5,20,1,-45,-45,1,6162.18
2,12,135,5,2,74,2,20,1,-45,-45,1,4426.54
2,12,135,6,2,92.5,2.5,20,1,45,45,1,6829.01
2,12,136,1,1,111,3,10,0,-45,-45,1,1743.03
2,12,136,2,1,111,3,10,0,-45,-45,1,1139.45
2,12,136,3,1,111,3,10,0,45,45,1,2571.34
2,12,136,4,1,111,3,10,1,45,45,1,741.2
2,12,136,5,1,111,3,10,1,-45,-45,1,883.73
2,12,136,6,1,111,3,10,1,45,45,1,1786.59
2,12,137,1,2,74,2,10,0,45,45,1,2822.99
2,12,137,2,2,74,2,10,0,45,45,1,2499.21
2,12,137,3,2,74,2,10,0,-45,-45,1,2481.02
2,12,137,4,2,111,3,10,1,45,45,1,838.28
2,12,137,5,2,55.5,1.5,10,1,-45,-45,1,2249.69
2,12,137,6,2,92.5,2.5,10,1,45,45,1,2158.91
2,12,138,1,1,55.5,1.5,30,0,45,45,1,1054.09
2,12,138,2,1,55.5,1.5,30,0,45,45,1,697.56
2,12,138,3,1,55.5,1.5,30,0,45,45,1,2215.06
2,12,138,4,1,55.5,1.5,30,1,-45,-45,1,794.7
2,12,138,5,1,55.5,1.5,30,1,45,45,1,1161.97
2,12,138,6,1,55.5,1.5,30,1,-45,-45,1,1403.45
2,12,139,1,2,74,2,30,0,45,45,1,5479.41
2,12,139,2,2,74,2,30,0,-45,-45,1,7814.83
2,12,139,3,2,74,2,30,0,45,45,1,3732.02
2,12,139,4,2,55.5,1.5,30,1,-45,-45,1,1595.58
2,12,139,5,2,111,3,30,1,45,45,1,3496.27
2,12,139,6,2,74,2,30,1,-45,-45,1,3318.56
2,12,140,1,2,55.5,1.5,10,0,-45,-45,1,5444.84
2,12,140,2,2,55.5,1.5,10,0,-45,-45,1,1126.76
2,12,140,3,2,55.5,1.5,10,0,-45,-45,1,2550.94
2,12,140,4,2,111,3,10,1,-45,-45,1,1833.5
2,12,140,5,2,55.5,1.5,10,1,-45,-45,1,2043.63
2,12,140,6,2,74,2,10,1,-45,-45,1,3252.31
2,12,141,1,1,92.5,2.5,30,0,45,45,1,4327.26
2,12,141,2,1,92.5,2.5,30,0,-45,-45,1,1513.11
2,12,141,3,1,92.5,2.5,30,0,45,45,1,2818.39
2,12,141,4,1,92.5,2.5,30,1,-45,-45,1,12154.55
2,12,141,5,1,92.5,2.5,30,1,45,45,1,8839.54
2,12,141,6,1,92.5,2.5,30,1,45,45,1,2902.54
2,12,142,1,1,92.5,2.5,30,0,45,45,1,3958.42
2,12,142,2,1,92.5,2.5,30,0,45,45,1,873.73
2,12,142,3,1,92.5,2.5,30,0,-45,-45,1,3225.92
2,12,142,4,1,92.5,2.5,30,1,45,45,1,1646.33
2,12,142,5,1,92.5,2.5,30,1,-45,-45,1,1899.37
2,12,142,6,1,92.5,2.5,30,1,45,45,1,1482.33
2,12,143,1,1,74,2,30,0,45,45,1,971.09
2,12,143,2,1,74,2,30,0,-45,-45,1,6197.72
2,12,143,3,1,74,2,30,0,45,45,1,1209.42
2,12,143,4,1,74,2,30,1,-45,-45,1,4153.75
2,12,143,5,1,74,2,30,1,-45,-45,1,4262.45
2,12,143,6,1,74,2,30,1,-45,-45,1,3754.2
2,12,144,1,2,111,3,30,0,45,45,1,11365.9
2,12,144,2,2,111,3,30,0,-45,-45,1,8674.55
2,12,144,3,2,111,3,30,0,45,45,1,3120.15
2,12,144,4,2,92.5,2.5,30,1,45,45,1,3736.81
2,12,144,5,2,111,3,30,1,-45,-45,1,1153.18
2,12,144,6,2,74,2,30,1,45,45,1,7452.37
2,13,145,1,1,74,2,30,0,45,45,1,3461.5
2,13,145,2,1,74,2,30,0,45,45,1,3184.38
2,13,145,3,1,74,2,30,0,45,45,1,2525.15
2,13,145,4,1,74,2,30,1,-45,-45,1,3672.48
2,13,145,5,1,74,2,30,1,45,45,1,2430.01
2,13,145,6,1,74,2,30,1,45,45,1,5803.08
2,13,146,1,1,111,3,10,0,-45,-45,1,1464.67
2,13,146,2,1,111,3,10,0,45,45,1,1017.88
2,13,146,3,1,111,3,10,0,45,45,1,784.87
2,13,146,4,1,111,3,10,1,45,45,1,820.81
2,13,146,5,1,111,3,10,1,-45,-45,1,1583.05
2,13,146,6,1,111,3,10,1,45,45,1,1600.59
2,13,147,1,1,74,2,10,0,-45,-45,1,937.99
2,13,147,2,1,74,2,10,0,45,45,1,1791.1
2,13,147,3,1,74,2,10,0,45,45,1,1280.53
2,13,147,4,1,74,2,10,1,45,45,1,845.87
2,13,147,5,1,74,2,10,1,45,45,1,2698.15
2,13,147,6,1,74,2,10,1,-45,-45,1,1447.08
2,13,148,1,1,111,3,20,0,45,45,1,4457.48
2,13,148,2,1,111,3,20,0,-45,-45,1,1334.56
2,13,148,3,1,111,3,20,0,-45,-45,1,2913.78
2,13,148,4,1,111,3,20,1,-45,-45,1,3466.4
2,13,148,5,1,111,3,20,1,45,45,1,3635.51
2,13,148,6,1,111,3,20,1,-45,-45,1,2272.84
2,13,149,1,1,74,2,30,0,45,45,1,2632.56
2,13,149,2,1,74,2,30,0,45,45,1,2825.12
2,13,149,3,1,74,2,30,0,-45,-45,1,3566.69
2,13,149,4,1,74,2,30,1,45,45,1,6624.49
2,13,149,5,1,74,2,30,1,-45,-45,1,3652.07
2,13,149,6,1,74,2,30,1,-45,-45,1,16193.66
2,13,150,1,2,74,2,20,0,-45,-45,1,875.1
2,13,150,2,2,74,2,20,0,-45,-45,1,2363.2
2,13,150,3,2,74,2,20,0,-45,-45,1,1134.64
2,13,150,4,2,92.5,2.5,20,1,45,45,1,814.81
2,13,150,5,2,111,3,20,1,-45,-45,1,1737.27
2,13,150,6,2,55.5,1.5,20,1,-45,-45,1,1837.42
2,13,151,1,1,74,2,20,0,45,45,1,4361.1
2,13,151,2,1,74,2,20,0,45,45,1,4694
2,13,151,3,1,74,2,20,0,-45,-45,1,1583.76
2,13,151,4,1,74,2,20,1,-45,-45,1,3295.14
2,13,151,5,1,74,2,20,1,-45,-45,1,2074.7
2,13,151,6,1,74,2,20,1,45,45,1,2051.45
2,13,152,1,2,74,2,30,0,45,45,1,2757.07
2,13,152,2,2,74,2,30,0,-45,-45,1,1754.27
2,13,152,3,2,74,2,30,0,45,45,1,9674.85
2,13,152,4,2,55.5,1.5,30,1,-45,-45,1,1947.6
2,13,152,5,2,111,3,30,1,-45,-45,1,1197.75
2,13,152,6,2,92.5,2.5,30,1,45,45,1,3212.17
2,13,153,1,1,55.5,1.5,20,0,45,45,1,5457.02
2,13,153,2,1,55.5,1.5,20,0,-45,-45,1,2269.21
2,13,153,3,1,55.5,1.5,20,0,-45,-45,1,1107.77
2,13,153,4,1,55.5,1.5,20,1,-45,-45,1,6405.61
2,13,153,5,1,55.5,1.5,20,1,-45,-45,1,1060.93
2,13,153,6,1,55.5,1.5,20,1,45,45,1,1850.51
2,13,154,1,1,74,2,20,0,45,45,1,3411.1
2,13,154,2,1,74,2,20,0,45,45,1,1154.67
2,13,154,3,1,74,2,20,0,-45,-45,1,1195.85
2,13,154,4,1,74,2,20,1,-45,-45,1,2927.59
2,13,154,5,1,74,2,20,1,45,45,1,3078.4
2,13,154,6,1,74,2,20,1,-45,-45,1,3405.19
2,13,155,1,1,55.5,1.5,10,0,-45,-45,1,1430.17
2,13,155,2,1,55.5,1.5,10,0,-45,-45,1,1268.82
2,13,155,3,1,55.5,1.5,10,0,-45,-45,1,1384.31
2,13,155,4,1,55.5,1.5,10,1,-45,-45,1,1372.5
2,13,155,5,1,55.5,1.5,10,1,-45,-45,1,1354.51
2,13,155,6,1,55.5,1.5,10,1,-45,-45,1,2502.19
2,13,156,1,2,111,3,30,0,45,45,1,8991.58
2,13,156,2,2,111,3,30,0,45,45,1,3765.51
2,13,156,3,2,111,3,30,0,45,45,1,1579.61
2,13,156,4,2,92.5,2.5,30,1,45,45,1,3464.88
2,13,156,5,2,111,3,30,1,45,45,1,4153.06
2,13,156,6,2,55.5,1.5,30,1,45,45,1,961.05
3,1,1,1,1,92.5,2.5,10,0,45,45,1,3744.23
3,1,1,2,1,92.5,2.5,10,0,45,45,1,3400.17
3,1,1,3,1,92.5,2.5,10,0,-45,-45,1,1662.03
3,1,1,4,1,92.5,2.5,10,1,45,45,1,1730.02
3,1,1,5,1,92.5,2.5,10,1,45,-45,0,3317.12
3,1,1,6,1,92.5,2.5,10,1,-45,-45,1,3776.85
3,1,2,1,1,74,2,20,0,45,45,1,6036.83
3,1,2,2,1,74,2,20,0,45,45,1,2413.71
3,1,2,3,1,74,2,20,0,45,45,1,11344.4
3,1,2,4,1,74,2,20,1,45,45,1,7109.06
3,1,2,5,1,74,2,20,1,45,-45,0,2650.61
3,1,2,6,1,74,2,20,1,45,45,1,3682.24
3,1,3,1,1,111,3,10,0,-45,-45,1,3090.29
3,1,3,2,1,111,3,10,0,-45,-45,1,1294.08
3,1,3,3,1,111,3,10,0,45,45,1,2380.95
3,1,3,4,1,111,3,10,1,45,45,1,1922.39
3,1,3,5,1,111,3,10,1,45,45,1,3467.87
3,1,3,6,1,111,3,10,1,45,45,1,2404.17
3,1,4,1,1,55.5,1.5,30,0,-45,45,0,18319.68
3,1,4,2,1,55.5,1.5,30,0,-45,-45,1,9878.42
3,1,4,3,1,55.5,1.5,30,0,45,-45,0,1992.79
3,1,4,4,1,55.5,1.5,30,1,-45,-45,1,5823.58
3,1,4,5,1,55.5,1.5,30,1,-45,-45,1,4072.87
3,1,4,6,1,55.5,1.5,30,1,45,45,1,8757.96
3,1,5,1,1,74,2,10,0,-45,-45,1,1348.41
3,1,5,2,1,74,2,10,0,-45,-45,1,1472.77
3,1,5,3,1,74,2,10,0,45,45,1,3963.48
3,1,5,4,1,74,2,10,1,45,45,1,3523.67
3,1,5,5,1,74,2,10,1,-45,-45,1,9773.39
3,1,5,6,1,74,2,10,1,45,45,1,3445.45
3,1,6,1,1,74,2,30,0,45,-45,0,6074.96
3,1,6,2,1,74,2,30,0,-45,-45,1,4694.96
3,1,6,3,1,74,2,30,0,-45,-45,1,14502.67
3,1,6,4,1,74,2,30,1,-45,-45,1,10128.84
3,1,6,5,1,74,2,30,1,45,45,1,3644.23
3,1,6,6,1,74,2,30,1,45,-45,0,6832.58
3,1,7,1,1,55.5,1.5,20,0,45,45,1,4028.14
3,1,7,2,1,55.5,1.5,20,0,45,45,1,2444.39
3,1,7,3,1,55.5,1.5,20,0,45,45,1,4191.51
3,1,7,4,1,55.5,1.5,20,1,-45,-45,1,5464.9
3,1,7,5,1,55.5,1.5,20,1,45,45,1,5307.89
3,1,7,6,1,55.5,1.5,20,1,45,45,1,5287.32
3,1,8,1,1,111,3,30,0,-45,45,0,6502.51
3,1,8,2,1,111,3,30,0,45,45,1,6329.26
3,1,8,3,1,111,3,30,0,45,45,1,6354.2
3,1,8,4,1,111,3,30,1,-45,-45,1,2570.57
3,1,8,5,1,111,3,30,1,45,45,1,10867.04
3,1,8,6,1,111,3,30,1,-45,-45,1,8648.35
3,1,9,1,1,92.5,2.5,30,0,-45,-45,1,8187.28
3,1,9,2,1,92.5,2.5,30,0,-45,-45,1,11345.83
3,1,9,3,1,92.5,2.5,30,0,45,45,0,16225.26
3,1,9,4,1,92.5,2.5,30,1,45,45,1,9188.93
3,1,9,5,1,92.5,2.5,30,1,45,45,1,11808.7
3,1,9,6,1,92.5,2.5,30,1,45,45,1,5374.34
3,1,10,1,1,55.5,1.5,10,0,-45,-45,1,2728.25
3,1,10,2,1,55.5,1.5,10,0,45,45,1,3043.76
3,1,10,3,1,55.5,1.5,10,0,45,45,1,4000.36
3,1,10,4,1,55.5,1.5,10,1,-45,-45,1,2031.98
3,1,10,5,1,55.5,1.5,10,1,45,45,1,3027.17
3,1,10,6,1,55.5,1.5,10,1,-45,-45,1,1612.04
3,1,11,1,1,111,3,20,0,45,45,1,6582.96
3,1,11,2,1,111,3,20,0,-45,-45,1,3640.49
3,1,11,3,1,111,3,20,0,45,45,1,2015.78
3,1,11,4,1,111,3,20,1,-45,-45,1,10732.75
3,1,11,5,1,111,3,20,1,-45,-45,1,6836.72
3,1,11,6,1,111,3,20,1,45,45,1,5548.1
3,1,12,1,1,92.5,2.5,20,0,45,45,1,4361.54
3,1,12,2,1,92.5,2.5,20,0,45,45,1,2098.58
3,1,12,3,1,92.5,2.5,20,0,-45,45,0,5556.35
3,1,12,4,1,92.5,2.5,20,1,45,45,1,5306.79
3,1,12,5,1,92.5,2.5,20,1,45,45,1,2895.42
3,1,12,6,1,92.5,2.5,20,1,45,45,1,5360.23
3,2,13,1,2,74,2,30,0,45,45,1,7196.55
3,2,13,2,2,74,2,30,0,-45,-45,1,1442.05
3,2,13,3,2,74,2,30,0,45,45,1,2030.58
3,2,13,4,2,92.5,2.5,30,1,45,-45,0,2716.52
3,2,13,5,2,55.5,1.5,30,1,45,45,1,8027.97
3,2,13,6,2,74,2,30,1,45,45,1,8716.8
3,2,14,1,2,74,2,10,0,-45,-45,1,1557.91
3,2,14,2,2,74,2,10,0,-45,-45,1,1511.89
3,2,14,3,2,74,2,10,0,45,45,1,1998.72
3,2,14,4,2,92.5,2.5,10,1,45,45,1,3406.31
3,2,14,5,2,74,2,10,1,-45,-45,1,1566.21
3,2,14,6,2,55.5,1.5,10,1,-45,-45,1,1782
3,2,15,1,2,92.5,2.5,10,0,45,45,1,3047.61
3,2,15,2,2,92.5,2.5,10,0,-45,-45,1,2124.64
3,2,15,3,2,92.5,2.5,10,0,45,45,1,6150.8
3,2,15,4,2,74,2,10,1,45,45,1,3113.89
3,2,15,5,2,55.5,1.5,10,1,-45,-45,1,3461.66
3,2,15,6,2,92.5,2.5,10,1,-45,-45,1,2047.6
3,2,16,1,1,55.5,1.5,30,0,45,45,1,3413.76
3,2,16,2,1,55.5,1.5,30,0,45,45,1,7390.95
3,2,16,3,1,55.5,1.5,30,0,45,45,1,9249.35
3,2,16,4,1,55.5,1.5,30,1,45,45,1,1762.14
3,2,16,5,1,55.5,1.5,30,1,-45,-45,1,6482.54
3,2,16,6,1,55.5,1.5,30,1,45,45,1,17237.4
3,2,17,1,1,111,3,20,0,-45,-45,1,4274.85
3,2,17,2,1,111,3,20,0,45,45,1,1542.36
3,2,17,3,1,111,3,20,0,-45,-45,1,3927.96
3,2,17,4,1,111,3,20,1,-45,-45,1,6179.33
3,2,17,5,1,111,3,20,1,-45,-45,1,2940.04
3,2,17,6,1,111,3,20,1,-45,-45,1,1860.2
3,2,18,1,2,55.5,1.5,20,0,45,45,1,2039.21
3,2,18,2,2,55.5,1.5,20,0,-45,-45,1,4716.46
3,2,18,3,2,55.5,1.5,20,0,45,45,1,2577.61
3,2,18,4,2,74,2,20,1,-45,-45,1,12469.26
3,2,18,5,2,111,3,20,1,-45,-45,1,6146.42
3,2,18,6,2,55.5,1.5,20,1,45,-45,0,17666.22
3,2,19,1,2,74,2,10,0,45,45,1,4517.29
3,2,19,2,2,74,2,10,0,45,-45,0,3168.04
3,2,19,3,2,74,2,10,0,-45,-45,1,4072.54
3,2,19,4,2,55.5,1.5,10,1,-45,-45,1,4540.22
3,2,19,5,2,92.5,2.5,10,1,-45,-45,1,4143.6
3,2,19,6,2,74,2,10,1,45,45,1,1497.17
3,2,20,1,2,55.5,1.5,20,0,-45,-45,1,6251.72
3,2,20,2,2,55.5,1.5,20,0,-45,-45,1,5983.27
3,2,20,3,2,55.5,1.5,20,0,-45,-45,1,6334.07
3,2,20,4,2,74,2,20,1,-45,-45,1,3176.41
3,2,20,5,2,55.5,1.5,20,1,45,45,1,6943.5
3,2,20,6,2,111,3,20,1,-45,-45,1,11433.14
3,2,21,1,1,92.5,2.5,10,0,-45,-45,1,6453.67
3,2,21,2,1,92.5,2.5,10,0,-45,-45,1,6276.74
3,2,21,3,1,92.5,2.5,10,0,45,45,1,3144.71
3,2,21,4,1,92.5,2.5,10,1,45,45,1,6776.24
3,2,21,5,1,92.5,2.5,10,1,-45,-45,1,2762.55
3,2,21,6,1,92.5,2.5,10,1,-45,-45,1,7215.62
3,2,22,1,1,92.5,2.5,30,0,45,45,1,17334.75
3,2,22,2,1,92.5,2.5,30,0,-45,-45,1,8817.73
3,2,22,3,1,92.5,2.5,30,0,45,45,1,6247.62
3,2,22,4,1,92.5,2.5,30,1,-45,-45,1,3169.78
3,2,22,5,1,92.5,2.5,30,1,-45,-45,1,3226.42
3,2,22,6,1,92.5,2.5,30,1,45,45,1,4105.23
3,2,23,1,2,74,2,10,0,45,45,1,6226.39
3,2,23,2,2,74,2,10,0,-45,-45,1,5943.73
3,2,23,3,2,74,2,10,0,-45,-45,1,5027.56
3,2,23,4,2,111,3,10,1,45,45,1,3730.19
3,2,23,5,2,92.5,2.5,10,1,-45,-45,1,3751.67
3,2,23,6,2,55.5,1.5,10,1,-45,-45,1,1906.41
3,2,24,1,1,92.5,2.5,10,0,45,45,1,4851.91
3,2,24,2,1,92.5,2.5,10,0,45,45,1,5313.86
3,2,24,3,1,92.5,2.5,10,0,-45,-45,1,1724.85
3,2,24,4,1,92.5,2.5,10,1,-45,-45,1,5199.19
3,2,24,5,1,92.5,2.5,10,1,45,45,1,2651.82
3,2,24,6,1,92.5,2.5,10,1,45,45,1,4316.91
3,3,25,1,1,55.5,1.5,10,0,45,45,1,2857.61
3,3,25,2,1,55.5,1.5,10,0,-45,-45,1,3814.49
3,3,25,3,1,55.5,1.5,10,0,45,45,1,1300.67
3,3,25,4,1,55.5,1.5,10,1,-45,-45,1,3929.55
3,3,25,5,1,55.5,1.5,10,1,-45,45,0,2186.45
3,3,25,6,1,55.5,1.5,10,1,-45,-45,1,1817.23
3,3,26,1,1,74,2,10,0,45,45,1,2233.31
3,3,26,2,1,74,2,10,0,-45,-45,1,1772.35
3,3,26,3,1,74,2,10,0,45,45,1,2765.7
3,3,26,4,1,74,2,10,1,45,45,1,3516.8
3,3,26,5,1,74,2,10,1,-45,-45,1,2936.17
3,3,26,6,1,74,2,10,1,-45,-45,1,3910.35
3,3,27,1,2,74,2,20,0,45,45,1,9572.5
3,3,27,2,2,74,2,20,0,45,45,1,16170.76
3,3,27,3,2,74,2,20,0,45,45,1,4935.2
3,3,27,4,2,55.5,1.5,20,1,-45,-45,1,17891.51
3,3,27,5,2,111,3,20,1,-45,-45,1,2242.48
3,3,27,6,2,92.5,2.5,20,1,-45,-45,1,4333.99
3,3,28,1,2,92.5,2.5,20,0,-45,-45,1,3593.65
3,3,28,2,2,92.5,2.5,20,0,-45,-45,1,10237.89
3,3,28,3,2,92.5,2.5,20,0,45,45,1,3504.01
3,3,28,4,2,74,2,20,1,45,45,1,4015.97
3,3,28,5,2,92.5,2.5,20,1,45,45,1,6791.29
3,3,28,6,2,55.5,1.5,20,1,-45,-45,1,3725.14
3,3,29,1,2,92.5,2.5,30,0,45,45,1,10795.29
3,3,29,2,2,92.5,2.5,30,0,-45,-45,1,9532.16
3,3,29,3,2,92.5,2.5,30,0,45,45,1,4397.25
3,3,29,4,2,111,3,30,1,45,45,1,1997.95
3,3,29,5,2,55.5,1.5,30,1,-45,-45,1,4201.63
3,3,29,6,2,74,2,30,1,45,45,1,2506.39
3,3,30,1,1,111,3,30,0,-45,-45,1,2816.02
3,3,30,2,1,111,3,30,0,45,45,1,13105.94
3,3,30,3,1,111,3,30,0,-45,-45,1,7215.86
3,3,30,4,1,111,3,30,1,45,45,1,3201.87
3,3,30,5,1,111,3,30,1,-45,-45,1,24416.9
3,3,30,6,1,111,3,30,1,-45,-45,1,1974.48
3,3,31,1,2,55.5,1.5,10,0,-45,-45,1,3993.73
3,3,31,2,2,55.5,1.5,10,0,-45,-45,1,1682.91
3,3,31,3,2,55.5,1.5,10,0,-45,-45,1,2486.02
3,3,31,4,2,92.5,2.5,10,1,45,45,1,3089.05
3,3,31,5,2,74,2,10,1,-45,-45,1,2485.46
3,3,31,6,2,55.5,1.5,10,1,-45,-45,1,2689.08
3,3,32,1,2,74,2,20,0,-45,-45,1,3383.28
3,3,32,2,2,74,2,20,0,45,45,1,1949.81
3,3,32,3,2,74,2,20,0,45,45,1,11718.97
3,3,32,4,2,55.5,1.5,20,1,-45,-45,1,6222.74
3,3,32,5,2,111,3,20,1,-45,-45,1,18369.05
3,3,32,6,2,92.5,2.5,20,1,-45,-45,1,1556.66
3,3,33,1,2,92.5,2.5,10,0,-45,-45,1,4438.69
3,3,33,2,2,92.5,2.5,10,0,45,45,1,4728.81
3,3,33,3,2,92.5,2.5,10,0,-45,-45,1,1990.63
3,3,33,4,2,74,2,10,1,-45,-45,1,5684.52
3,3,33,5,2,55.5,1.5,10,1,45,45,1,5117.98
3,3,33,6,2,111,3,10,1,-45,-45,1,3275.76
3,3,34,1,2,55.5,1.5,30,0,-45,-45,1,5219.38
3,3,34,2,2,55.5,1.5,30,0,-45,-45,1,14084.4
3,3,34,3,2,55.5,1.5,30,0,-45,-45,1,5787.75
3,3,34,4,2,111,3,30,1,-45,-45,1,1941.62
3,3,34,5,2,55.5,1.5,30,1,-45,-45,1,8766.65
3,3,34,6,2,74,2,30,1,45,45,1,2946.48
3,3,35,1,2,74,2,20,0,-45,-45,1,2315.37
3,3,35,2,2,74,2,20,0,45,45,1,6936.35
3,3,35,3,2,74,2,20,0,-45,-45,1,3439.87
3,3,35,4,2,111,3,20,1,-45,-45,1,6431.08
3,3,35,5,2,92.5,2.5,20,1,-45,-45,1,3466.4
3,3,35,6,2,55.5,1.5,20,1,-45,-45,1,4561.75
3,3,36,1,1,55.5,1.5,30,0,45,45,1,3352.75
3,3,36,2,1,55.5,1.5,30,0,45,45,1,1742.02
3,3,36,3,1,55.5,1.5,30,0,-45,-45,1,9104.64
3,3,36,4,1,55.5,1.5,30,1,-45,-45,1,5097.75
3,3,36,5,1,55.5,1.5,30,1,-45,-45,1,5101.2
3,3,36,6,1,55.5,1.5,30,1,45,45,1,4905.81
3,4,37,1,2,74,2,10,0,-45,-45,1,1924.47
3,4,37,2,2,74,2,10,0,45,45,1,2529.08
3,4,37,3,2,74,2,10,0,45,45,1,2649.49
3,4,37,4,2,92.5,2.5,10,1,45,45,1,3152.89
3,4,37,5,2,55.5,1.5,10,1,45,45,1,2965.64
3,4,37,6,2,74,2,10,1,-45,-45,1,3597.1
3,4,38,1,1,111,3,30,0,45,45,1,6133.16
3,4,38,2,1,111,3,30,0,-45,-45,1,4827.21
3,4,38,3,1,111,3,30,0,-45,-45,1,2612.25
3,4,38,4,1,111,3,30,1,-45,-45,1,2350.13
3,4,38,5,1,111,3,30,1,-45,-45,1,15824.58
3,4,38,6,1,111,3,30,1,45,45,1,5399.69
3,4,39,1,2,92.5,2.5,20,0,-45,-45,1,8879.67
3,4,39,2,2,92.5,2.5,20,0,45,45,1,1490.34
3,4,39,3,2,92.5,2.5,20,0,-45,-45,1,3774.9
3,4,39,4,2,74,2,20,1,-45,-45,1,1622.43
3,4,39,5,2,92.5,2.5,20,1,-45,-45,1,3241.69
3,4,39,6,2,55.5,1.5,20,1,45,45,1,3290.42
3,4,40,1,2,55.5,1.5,20,0,-45,-45,1,5196.97
3,4,40,2,2,55.5,1.5,20,0,45,45,1,1712.01
3,4,40,3,2,55.5,1.5,20,0,45,45,1,2540.25
3,4,40,4,2,92.5,2.5,20,1,-45,-45,1,9219.34
3,4,40,5,2,111,3,20,1,-45,-45,1,1955.42
3,4,40,6,2,55.5,1.5,20,1,-45,-45,1,5066.61
3,4,41,1,2,92.5,2.5,10,0,45,45,1,1654.24
3,4,41,2,2,92.5,2.5,10,0,45,45,1,3082.98
3,4,41,3,2,92.5,2.5,10,0,45,45,1,1271.77
3,4,41,4,2,55.5,1.5,10,1,45,45,1,2767.31
3,4,41,5,2,74,2,10,1,-45,-45,1,2672.02
3,4,41,6,2,92.5,2.5,10,1,45,45,1,1543.56
3,4,42,1,1,55.5,1.5,20,0,45,45,1,2680.85
3,4,42,2,1,55.5,1.5,20,0,-45,-45,1,8988.75
3,4,42,3,1,55.5,1.5,20,0,-45,-45,1,8325.62
3,4,42,4,1,55.5,1.5,20,1,45,45,1,3112.09
3,4,42,5,1,55.5,1.5,20,1,-45,-45,1,1619.79
3,4,42,6,1,55.5,1.5,20,1,45,45,1,2665.48
3,4,43,1,1,92.5,2.5,20,0,-45,-45,1,1444.78
3,4,43,2,1,92.5,2.5,20,0,-45,-45,1,1603.72
3,4,43,3,1,92.5,2.5,20,0,-45,-45,1,3605.53
3,4,43,4,1,92.5,2.5,20,1,45,45,1,4581.69
3,4,43,5,1,92.5,2.5,20,1,45,45,1,2397.87
3,4,43,6,1,92.5,2.5,20,1,45,45,1,3099.47
3,4,44,1,2,74,2,30,0,45,45,1,13917.36
3,4,44,2,2,74,2,30,0,45,45,1,4726.38
3,4,44,3,2,74,2,30,0,-45,-45,1,4755.51
3,4,44,4,2,55.5,1.5,30,1,-45,-45,1,7288.57
3,4,44,5,2,92.5,2.5,30,1,45,45,1,3532.25
3,4,44,6,2,111,3,30,1,45,45,1,3503.82
3,4,45,1,1,74,2,20,0,-45,-45,1,5248.15
3,4,45,2,1,74,2,20,0,45,45,1,3708.64
3,4,45,3,1,74,2,20,0,45,45,1,1309.76
3,4,45,4,1,74,2,20,1,45,45,1,9748.61
3,4,45,5,1,74,2,20,1,45,45,1,3944.52
3,4,45,6,1,74,2,20,1,-45,-45,1,3962.94
3,4,46,1,1,92.5,2.5,10,0,45,45,1,1972.54
3,4,46,2,1,92.5,2.5,10,0,-45,-45,1,1684.5
3,4,46,3,1,92.5,2.5,10,0,45,45,1,2699.89
3,4,46,4,1,92.5,2.5,10,1,-45,-45,1,2427.24
3,4,46,5,1,92.5,2.5,10,1,-45,-45,1,2010.33
3,4,46,6,1,92.5,2.5,10,1,45,45,1,1233.42
3,4,47,1,2,74,2,30,0,45,45,1,4341.48
3,4,47,2,2,74,2,30,0,45,45,1,4430.08
3,4,47,3,2,74,2,30,0,-45,-45,1,6642.15
3,4,47,4,2,92.5,2.5,30,1,-45,-45,1,2405.95
3,4,47,5,2,55.5,1.5,30,1,45,45,1,2133.58
3,4,47,6,2,111,3,30,1,-45,-45,1,4997.19
3,4,48,1,1,92.5,2.5,30,0,-45,-45,1,7967.54
3,4,48,2,1,92.5,2.5,30,0,45,45,1,6386.99
3,4,48,3,1,92.5,2.5,30,0,-45,-45,1,20886.61
3,4,48,4,1,92.5,2.5,30,1,-45,45,0,13928.91
3,4,48,5,1,92.5,2.5,30,1,-45,-45,1,10533.91
3,4,48,6,1,92.5,2.5,30,1,-45,-45,1,8606.74
3,5,49,1,1,92.5,2.5,20,0,-45,-45,1,3210.32
3,5,49,2,1,92.5,2.5,20,0,-45,-45,1,2506.22
3,5,49,3,1,92.5,2.5,20,0,-45,-45,1,1359.68
3,5,49,4,1,92.5,2.5,20,1,45,45,1,1204.79
3,5,49,5,1,92.5,2.5,20,1,45,45,1,2115.44
3,5,49,6,1,92.5,2.5,20,1,-45,-45,1,3873.56
3,5,50,1,1,74,2,10,0,-45,-45,1,2568.25
3,5,50,2,1,74,2,10,0,-45,-45,1,1532.43
3,5,50,3,1,74,2,10,0,-45,-45,1,2148.05
3,5,50,4,1,74,2,10,1,-45,-45,1,1366.46
3,5,50,5,1,74,2,10,1,-45,-45,1,3496.25
3,5,50,6,1,74,2,10,1,45,45,1,1475.41
3,5,51,1,2,92.5,2.5,30,0,45,45,1,4540.46
3,5,51,2,2,92.5,2.5,30,0,45,-45,0,12807.78
3,5,51,3,2,92.5,2.5,30,0,-45,45,0,8233.68
3,5,51,4,2,55.5,1.5,30,1,45,45,1,7152.02
3,5,51,5,2,74,2,30,1,-45,-45,1,4147.16
3,5,51,6,2,92.5,2.5,30,1,45,45,1,7600.18
3,5,52,1,1,74,2,20,0,-45,-45,1,8894.76
3,5,52,2,1,74,2,20,0,45,45,1,5297.82
3,5,52,3,1,74,2,20,0,-45,-45,1,4141.37
3,5,52,4,1,74,2,20,1,45,45,1,1771.06
3,5,52,5,1,74,2,20,1,-45,-45,1,11663.54
3,5,52,6,1,74,2,20,1,-45,-45,1,4401.46
3,5,53,1,1,55.5,1.5,20,0,-45,-45,1,5691.18
3,5,53,2,1,55.5,1.5,20,0,45,45,1,5559.59
3,5,53,3,1,55.5,1.5,20,0,45,45,1,2694.99
3,5,53,4,1,55.5,1.5,20,1,45,45,1,9455.1
3,5,53,5,1,55.5,1.5,20,1,-45,-45,1,8484.6
3,5,53,6,1,55.5,1.5,20,1,-45,-45,1,1398.94
3,5,54,1,1,111,3,30,0,45,45,1,3086.65
3,5,54,2,1,111,3,30,0,-45,-45,1,6652.91
3,5,54,3,1,111,3,30,0,-45,-45,1,1710.76
3,5,54,4,1,111,3,30,1,-45,-45,1,2031.38
3,5,54,5,1,111,3,30,1,45,45,1,4176.1
3,5,54,6,1,111,3,30,1,45,45,1,3856.05
3,5,55,1,2,92.5,2.5,20,0,45,45,1,1467.75
3,5,55,2,2,92.5,2.5,20,0,45,45,1,13356.56
3,5,55,3,2,92.5,2.5,20,0,-45,45,0,4367.95
3,5,55,4,2,74,2,20,1,45,45,1,10238.02
3,5,55,5,2,92.5,2.5,20,1,45,45,1,1996.92
3,5,55,6,2,55.5,1.5,20,1,45,45,1,2729.49
3,5,56,1,2,111,3,20,0,45,45,1,1283.29
3,5,56,2,2,111,3,20,0,45,45,1,6309.19
3,5,56,3,2,111,3,20,0,-45,-45,1,1371.94
3,5,56,4,2,92.5,2.5,20,1,-45,-45,1,1641.81
3,5,56,5,2,111,3,20,1,45,45,1,1929.71
3,5,56,6,2,55.5,1.5,20,1,-45,-45,1,13160.82
3,5,57,1,1,55.5,1.5,20,0,-45,-45,1,1344.76
3,5,57,2,1,55.5,1.5,20,0,45,45,1,4155.29
3,5,57,3,1,55.5,1.5,20,0,45,45,1,6572.14
3,5,57,4,1,55.5,1.5,20,1,-45,45,0,8178.8
3,5,57,5,1,55.5,1.5,20,1,45,45,1,1624.33
3,5,57,6,1,55.5,1.5,20,1,45,45,1,9536.84
3,5,58,1,1,55.5,1.5,10,0,45,45,1,1337.74
3,5,58,2,1,55.5,1.5,10,0,-45,-45,1,1337.57
3,5,58,3,1,55.5,1.5,10,0,-45,-45,1,2914.47
3,5,58,4,1,55.5,1.5,10,1,45,45,1,2481.35
3,5,58,5,1,55.5,1.5,10,1,45,45,1,1298.77
3,5,58,6,1,55.5,1.5,10,1,-45,-45,1,4606
3,5,59,1,2,55.5,1.5,20,0,45,45,1,3805.17
3,5,59,2,2,55.5,1.5,20,0,45,45,1,4180.47
3,5,59,3,2,55.5,1.5,20,0,-45,-45,1,1148.01
3,5,59,4,2,92.5,2.5,20,1,45,45,1,4971.21
3,5,59,5,2,74,2,20,1,45,45,1,4164.15
3,5,59,6,2,55.5,1.5,20,1,45,45,1,4008.95
3,5,60,1,2,111,3,30,0,-45,-45,1,3856.71
3,5,60,2,2,111,3,30,0,45,45,1,16042.92
3,5,60,3,2,111,3,30,0,-45,45,0,5545.45
3,5,60,4,2,74,2,30,1,-45,-45,1,96.53
3,5,60,5,2,111,3,30,1,45,45,1,10891.56
3,5,60,6,2,92.5,2.5,30,1,-45,-45,1,8270.82
3,6,61,1,1,111,3,20,0,-45,-45,1,1809.39
3,6,61,2,1,111,3,20,0,-45,-45,1,1972.62
3,6,61,3,1,111,3,20,0,-45,-45,1,2114.18
3,6,61,4,1,111,3,20,1,45,45,1,2812.82
3,6,61,5,1,111,3,20,1,45,45,1,7524.57
3,6,61,6,1,111,3,20,1,45,45,1,2490.45
3,6,62,1,1,74,2,30,0,-45,-45,1,2797
3,6,62,2,1,74,2,30,0,45,45,1,3774.5
3,6,62,3,1,74,2,30,0,-45,-45,1,1750.47
3,6,62,4,1,74,2,30,1,-45,-45,1,6798.77
3,6,62,5,1,74,2,30,1,45,45,1,1753.98
3,6,62,6,1,74,2,30,1,-45,-45,1,1785.43
3,6,63,1,2,111,3,20,0,-45,-45,1,9155.19
3,6,63,2,2,111,3,20,0,-45,-45,1,1681.38
3,6,63,3,2,111,3,20,0,-45,-45,1,4126.18
3,6,63,4,2,55.5,1.5,20,1,-45,-45,1,3065.56
3,6,63,5,2,111,3,20,1,-45,-45,1,5204.9
3,6,63,6,2,74,2,20,1,45,45,1,1753.26
3,6,64,1,2,55.5,1.5,10,0,45,45,1,3425.57
3,6,64,2,2,55.5,1.5,10,0,45,45,1,1496.31
3,6,64,3,2,55.5,1.5,10,0,-45,-45,1,1502.87
3,6,64,4,2,92.5,2.5,10,1,45,45,1,3529.88
3,6,64,5,2,74,2,10,1,-45,-45,1,3747.84
3,6,64,6,2,55.5,1.5,10,1,-45,-45,1,2616.91
3,6,65,1,2,111,3,30,0,-45,-45,1,3666.49
3,6,65,2,2,111,3,30,0,-45,-45,1,9899.29
3,6,65,3,2,111,3,30,0,-45,-45,1,7207.09
3,6,65,4,2,74,2,30,1,45,45,1,3023.11
3,6,65,5,2,111,3,30,1,45,-45,0,10217.04
3,6,65,6,2,55.5,1.5,30,1,-45,-45,1,4481.99
3,6,66,1,1,74,2,20,0,45,45,1,4046.33
3,6,66,2,1,74,2,20,0,45,45,1,6110.13
3,6,66,3,1,74,2,20,0,-45,-45,1,2684.19
3,6,66,4,1,74,2,20,1,-45,-45,1,1632.53
3,6,66,5,1,74,2,20,1,-45,-45,1,3326.04
3,6,66,6,1,74,2,20,1,-45,-45,1,4142
3,6,67,1,1,92.5,2.5,30,0,45,-45,0,8733.31
3,6,67,2,1,92.5,2.5,30,0,45,45,1,10845.82
3,6,67,3,1,92.5,2.5,30,0,45,45,1,3790.53
3,6,67,4,1,92.5,2.5,30,1,-45,-45,1,3944.54
3,6,67,5,1,92.5,2.5,30,1,45,45,1,2612.31
3,6,67,6,1,92.5,2.5,30,1,45,45,1,11209.12
3,6,68,1,1,111,3,30,0,45,45,1,12125.05
3,6,68,2,1,111,3,30,0,-45,-45,1,2846.56
3,6,68,3,1,111,3,30,0,45,45,1,4618.25
3,6,68,4,1,111,3,30,1,-45,-45,1,7808.82
3,6,68,5,1,111,3,30,1,-45,-45,1,12308.48
3,6,68,6,1,111,3,30,1,-45,-45,1,7472.06
3,6,69,1,1,74,2,20,0,45,45,1,7357.6
3,6,69,2,1,74,2,20,0,-45,-45,1,4212.44
3,6,69,3,1,74,2,20,0,45,45,1,1605.28
3,6,69,4,1,74,2,20,1,45,45,1,6645.68
3,6,69,5,1,74,2,20,1,45,45,1,6600.55
3,6,69,6,1,74,2,20,1,45,-45,0,5375.82
3,6,70,1,1,92.5,2.5,10,0,-45,-45,1,1345.27
3,6,70,2,1,92.5,2.5,10,0,45,45,1,3425.72
3,6,70,3,1,92.5,2.5,10,0,-45,-45,1,4683.4
3,6,70,4,1,92.5,2.5,10,1,45,45,1,2359.96
3,6,70,5,1,92.5,2.5,10,1,-45,-45,1,1296.5
3,6,70,6,1,92.5,2.5,10,1,45,45,1,3126.47
3,6,71,1,1,55.5,1.5,10,0,45,45,1,2773.81
3,6,71,2,1,55.5,1.5,10,0,45,45,1,2949.83
3,6,71,3,1,55.5,1.5,10,0,45,45,1,3864.9
3,6,71,4,1,55.5,1.5,10,1,45,45,1,1269.34
3,6,71,5,1,55.5,1.5,10,1,-45,-45,1,1787.07
3,6,71,6,1,55.5,1.5,10,1,-45,-45,1,1635.58
3,6,72,1,2,74,2,30,0,-45,-45,1,15814.7
3,6,72,2,2,74,2,30,0,-45,-45,1,5604.54
3,6,72,3,2,74,2,30,0,-45,-45,1,5801.22
3,6,72,4,2,55.5,1.5,30,1,-45,-45,1,3305.37
3,6,72,5,2,111,3,30,1,-45,-45,1,12236.15
3,6,72,6,2,92.5,2.5,30,1,-45,-45,1,9376.83
3,7,73,1,2,92.5,2.5,30,0,-45,-45,1,5698.03
3,7,73,2,2,92.5,2.5,30,0,45,45,1,2257.8
3,7,73,3,2,92.5,2.5,30,0,-45,-45,1,8726.01
3,7,73,4,2,74,2,30,1,45,45,1,2966.79
3,7,73,5,2,55.5,1.5,30,1,45,45,1,984.35
3,7,73,6,2,92.5,2.5,30,1,-45,-45,1,7041.92
3,7,74,1,2,92.5,2.5,10,0,-45,-45,1,5757.02
3,7,74,2,2,92.5,2.5,10,0,-45,45,0,1615.93
3,7,74,3,2,92.5,2.5,10,0,45,45,1,1220.71
3,7,74,4,2,74,2,10,1,45,45,1,1643.33
3,7,74,5,2,55.5,1.5,10,1,-45,-45,1,1025.74
3,7,74,6,2,111,3,10,1,45,45,1,1133.08
3,7,75,1,1,74,2,30,0,45,45,1,4997.46
3,7,75,2,1,74,2,30,0,45,45,1,4230.22
3,7,75,3,1,74,2,30,0,45,45,1,10379.18
3,7,75,4,1,74,2,30,1,-45,-45,1,5969.35
3,7,75,5,1,74,2,30,1,45,45,1,3964.3
3,7,75,6,1,74,2,30,1,45,45,1,2753.63
3,7,76,1,2,55.5,1.5,30,0,-45,-45,1,2810.58
3,7,76,2,2,55.5,1.5,30,0,45,45,1,905.61
3,7,76,3,2,55.5,1.5,30,0,-45,-45,1,3695.96
3,7,76,4,2,92.5,2.5,30,1,-45,-45,1,4597.49
3,7,76,5,2,74,2,30,1,-45,-45,1,5505.22
3,7,76,6,2,55.5,1.5,30,1,45,45,1,3803.67
3,7,77,1,2,74,2,20,0,45,45,1,1121.31
3,7,77,2,2,74,2,20,0,45,45,1,1900.13
3,7,77,3,2,74,2,20,0,-45,-45,1,2265.97
3,7,77,4,2,92.5,2.5,20,1,-45,-45,1,2260.88
3,7,77,5,2,74,2,20,1,45,45,1,8698.08
3,7,77,6,2,55.5,1.5,20,1,-45,-45,1,5645.8
3,7,78,1,1,55.5,1.5,30,0,-45,-45,1,5358.29
3,7,78,2,1,55.5,1.5,30,0,-45,-45,1,10488.04
3,7,78,3,1,55.5,1.5,30,0,-45,-45,1,10585.14
3,7,78,4,1,55.5,1.5,30,1,45,45,1,3643.19
3,7,78,5,1,55.5,1.5,30,1,45,45,1,4400.85
3,7,78,6,1,55.5,1.5,30,1,45,45,1,1830.9
3,7,79,1,2,111,3,30,0,-45,-45,1,12841.24
3,7,79,2,2,111,3,30,0,45,45,1,4462.62
3,7,79,3,2,111,3,30,0,45,45,1,4386.66
3,7,79,4,2,55.5,1.5,30,1,-45,-45,1,1360.82
3,7,79,5,2,74,2,30,1,45,45,1,7456.81
3,7,79,6,2,92.5,2.5,30,1,-45,-45,1,5901.88
3,7,80,1,1,74,2,10,0,-45,-45,1,2411.98
3,7,80,2,1,74,2,10,0,-45,-45,1,3405.79
3,7,80,3,1,74,2,10,0,-45,-45,1,2096.39
3,7,80,4,1,74,2,10,1,45,45,1,2464.54
3,7,80,5,1,74,2,10,1,-45,-45,1,2853.35
3,7,80,6,1,74,2,10,1,-45,-45,1,1251.47
3,7,81,1,1,92.5,2.5,30,0,45,45,1,1446.57
3,7,81,2,1,92.5,2.5,30,0,45,45,1,6806.21
3,7,81,3,1,92.5,2.5,30,0,-45,-45,1,5612.6
3,7,81,4,1,92.5,2.5,30,1,45,45,1,6544.63
3,7,81,5,1,92.5,2.5,30,1,45,45,1,5846.46
3,7,81,6,1,92.5,2.5,30,1,-45,-45,1,1726.66
3,7,82,1,2,74,2,30,0,-45,-45,1,5880.34
3,7,82,2,2,74,2,30,0,45,45,1,4432.42
3,7,82,3,2,74,2,30,0,45,45,1,4862.91
3,7,82,4,2,92.5,2.5,30,1,-45,-45,1,12330.84
3,7,82,5,2,74,2,30,1,45,45,1,10042.68
3,7,82,6,2,55.5,1.5,30,1,45,45,1,4130.01
3,7,83,1,2,74,2,10,0,45,45,1,1379.46
3,7,83,2,2,74,2,10,0,45,45,1,1499.62
3,7,83,3,2,74,2,10,0,-45,-45,1,2294.87
3,7,83,4,2,111,3,10,1,-45,-45,1,9730.88
3,7,83,5,2,55.5,1.5,10,1,45,45,1,3017.31
3,7,83,6,2,74,2,10,1,-45,-45,1,2481.57
3,7,84,1,2,92.5,2.5,10,0,45,45,1,2939.99
3,7,84,2,2,92.5,2.5,10,0,45,45,1,1409.78
3,7,84,3,2,92.5,2.5,10,0,45,45,1,3743.06
3,7,84,4,2,74,2,10,1,-45,-45,1,2013.58
3,7,84,5,2,111,3,10,1,-45,-45,1,3028.9
3,7,84,6,2,55.5,1.5,10,1,45,45,1,1828.43
3,8,85,1,1,55.5,1.5,30,0,-45,-45,1,1989.59
3,8,85,2,1,55.5,1.5,30,0,-45,-45,1,6293.08
3,8,85,3,1,55.5,1.5,30,0,45,45,1,5681.4
3,8,85,4,1,55.5,1.5,30,1,45,45,1,2578.59
3,8,85,5,1,55.5,1.5,30,1,45,45,1,2459.18
3,8,85,6,1,55.5,1.5,30,1,45,45,1,2982.9
3,8,86,1,1,111,3,10,0,45,45,1,2357.71
3,8,86,2,1,111,3,10,0,45,45,1,1007.91
3,8,86,3,1,111,3,10,0,45,45,1,1906.74
3,8,86,4,1,111,3,10,1,45,45,1,3145.32
3,8,86,5,1,111,3,10,1,-45,-45,1,1207.08
3,8,86,6,1,111,3,10,1,45,45,1,2354.88
3,8,87,1,2,55.5,1.5,20,0,45,45,1,2854.34
3,8,87,2,2,55.5,1.5,20,0,45,45,1,1901.02
3,8,87,3,2,55.5,1.5,20,0,45,45,1,2936.07
3,8,87,4,2,92.5,2.5,20,1,-45,-45,1,3905.85
3,8,87,5,2,74,2,20,1,45,45,1,3982.66
3,8,87,6,2,55.5,1.5,20,1,45,45,1,12332.67
3,8,88,1,2,92.5,2.5,30,0,-45,-45,1,8869.97
3,8,88,2,2,92.5,2.5,30,0,45,45,1,3663.7
3,8,88,3,2,92.5,2.5,30,0,45,45,1,8774.64
3,8,88,4,2,74,2,30,1,-45,45,0,11098.95
3,8,88,5,2,92.5,2.5,30,1,-45,-45,1,14964.28
3,8,88,6,2,111,3,30,1,45,45,1,3108.03
3,8,89,1,1,55.5,1.5,30,0,-45,-45,1,5141.4
3,8,89,2,1,55.5,1.5,30,0,45,45,1,11547.79
3,8,89,3,1,55.5,1.5,30,0,45,45,1,1295.86
3,8,89,4,1,55.5,1.5,30,1,-45,-45,1,3329.76
3,8,89,5,1,55.5,1.5,30,1,45,45,1,2139.02
3,8,89,6,1,55.5,1.5,30,1,-45,-45,1,2678.97
3,8,90,1,2,111,3,20,0,45,45,1,1177.01
3,8,90,2,2,111,3,20,0,-45,-45,1,5825.15
3,8,90,3,2,111,3,20,0,-45,-45,1,1848.26
3,8,90,4,2,74,2,20,1,45,45,1,4024.74
3,8,90,5,2,55.5,1.5,20,1,-45,-45,1,2752.41
3,8,90,6,2,92.5,2.5,20,1,45,45,1,1163.11
3,8,91,1,2,55.5,1.5,10,0,-45,-45,1,3930.45
3,8,91,2,2,55.5,1.5,10,0,-45,-45,1,2262.43
3,8,91,3,2,55.5,1.5,10,0,-45,-45,1,3234.13
3,8,91,4,2,92.5,2.5,10,1,45,45,1,1391.68
3,8,91,5,2,55.5,1.5,10,1,45,45,1,3067.64
3,8,91,6,2,74,2,10,1,-45,-45,1,2876.58
3,8,92,1,2,111,3,30,0,-45,45,0,10739.55
3,8,92,2,2,111,3,30,0,-45,-45,1,4963.95
3,8,92,3,2,111,3,30,0,-45,-45,1,8075.82
3,8,92,4,2,55.5,1.5,30,1,45,45,1,5199.45
3,8,92,5,2,74,2,30,1,45,45,1,3735.51
3,8,92,6,2,92.5,2.5,30,1,-45,-45,1,5803.14
3,8,93,1,1,74,2,30,0,-45,-45,1,2817.56
3,8,93,2,1,74,2,30,0,45,45,1,3311.82
3,8,93,3,1,74,2,30,0,45,45,1,2176.71
3,8,93,4,1,74,2,30,1,45,45,1,1797.02
3,8,93,5,1,74,2,30,1,-45,-45,1,2286.11
3,8,93,6,1,74,2,30,1,-45,-45,1,4504.65
3,8,94,1,1,74,2,20,0,45,45,1,1554.97
3,8,94,2,1,74,2,20,0,45,45,1,7339.34
3,8,94,3,1,74,2,20,0,-45,-45,1,4317.67
3,8,94,4,1,74,2,20,1,45,45,1,5485.62
3,8,94,5,1,74,2,20,1,-45,-45,1,3478.24
3,8,94,6,1,74,2,20,1,45,45,1,7733.95
3,8,95,1,2,74,2,10,0,45,45,1,1137.66
3,8,95,2,2,74,2,10,0,-45,-45,1,1580
3,8,95,3,2,74,2,10,0,-45,-45,1,1280.84
3,8,95,4,2,55.5,1.5,10,1,45,45,1,2611.57
3,8,95,5,2,74,2,10,1,-45,-45,1,1322.97
3,8,95,6,2,111,3,10,1,45,45,1,1740.13
3,8,96,1,1,55.5,1.5,10,0,-45,-45,1,2575.4
3,8,96,2,1,55.5,1.5,10,0,-45,-45,1,2429.89
3,8,96,3,1,55.5,1.5,10,0,45,45,1,4259.44
3,8,96,4,1,55.5,1.5,10,1,-45,-45,1,4595.31
3,8,96,5,1,55.5,1.5,10,1,-45,-45,1,4703.17
3,8,96,6,1,55.5,1.5,10,1,-45,-45,1,2490.39
3,9,97,1,1,92.5,2.5,30,0,-45,-45,1,4423.67
3,9,97,2,1,92.5,2.5,30,0,45,45,1,1001.98
3,9,97,3,1,92.5,2.5,30,0,45,45,1,3062.71
3,9,97,4,1,92.5,2.5,30,1,45,45,1,1366.67
3,9,97,5,1,92.5,2.5,30,1,45,-45,0,7897.22
3,9,97,6,1,92.5,2.5,30,1,-45,-45,1,2979.59
3,9,98,1,1,55.5,1.5,10,0,-45,-45,1,1836.27
3,9,98,2,1,55.5,1.5,10,0,-45,-45,1,2367.28
3,9,98,3,1,55.5,1.5,10,0,45,45,1,1579.78
3,9,98,4,1,55.5,1.5,10,1,45,45,1,1750.79
3,9,98,5,1,55.5,1.5,10,1,45,45,1,1450.98
3,9,98,6,1,55.5,1.5,10,1,45,45,1,1858.14
3,9,99,1,1,92.5,2.5,10,0,-45,-45,1,1330.26
