SubjID,BlockNr,Sequence,Trial,Stability,MeanSize,MeanSizeDeg,SetSize,BuildOrTest,TargetOri,Response,ACC,RT,training
1,1,1,1,1,55.5,1.5,10,0,-45,-45,1,5837.53,1
1,1,1,2,1,55.5,1.5,10,0,-45,45,0,5772.7,1
1,1,1,3,1,55.5,1.5,40,1,-45,-45,1,10993.41,1
1,1,1,4,1,55.5,1.5,10,1,45,45,1,5086.71,1
1,1,1,5,1,55.5,1.5,30,1,-45,-45,1,2633.67,1
1,1,1,6,1,55.5,1.5,20,1,45,45,1,2123.77,1
1,1,2,1,1,74,2,30,0,45,-45,0,3198.37,1
1,1,2,2,1,74,2,30,0,45,45,1,6964.3,1
1,1,2,3,1,74,2,30,0,45,45,1,11503.46,1
1,1,2,4,1,74,2,40,1,45,45,0,20713.14,1
1,1,2,5,1,74,2,30,1,45,45,1,12371.36,1
1,1,2,6,1,74,2,10,1,-45,-45,1,6469.44,1
1,1,2,7,1,74,2,20,1,45,45,1,2018.11,1
1,1,3,1,1,74,2,10,0,-45,-45,1,3534.74,1
1,1,3,2,1,74,2,10,0,45,45,1,1295.43,1
1,1,3,3,1,74,2,10,0,-45,-45,1,3932.67,1
1,1,3,4,1,74,2,10,0,-45,-45,1,5286.02,1
1,1,3,5,1,74,2,40,1,-45,45,0,17984.38,1
1,1,3,6,1,74,2,10,1,45,45,1,2719.92,1
1,1,3,7,1,74,2,20,1,-45,-45,1,3541.16,1
1,1,3,8,1,74,2,30,1,45,45,1,3970.68,1
1,1,4,1,1,74,2,20,0,-45,-45,1,3035.9,1
1,1,4,2,1,74,2,20,0,-45,-45,1,3457.85,1
1,1,4,3,1,74,2,20,1,45,45,1,1866.1,1
1,1,4,4,1,74,2,10,1,-45,-45,1,3157.47,1
1,1,4,5,1,74,2,30,1,-45,-45,1,2088.12,1
1,1,4,6,1,74,2,40,1,45,45,1,1444.9,1
1,1,5,1,1,74,2,40,0,-45,45,0,9931.06,1
1,1,5,2,1,74,2,40,0,45,45,1,2444.43,1
1,1,5,3,1,74,2,40,0,45,45,1,4287.77,1
1,1,5,4,1,74,2,20,1,45,45,1,10699.49,1
1,1,5,5,1,74,2,30,1,45,45,1,6316.94,1
1,1,5,6,1,74,2,10,1,-45,-45,1,2204.81,1
1,1,5,7,1,74,2,40,1,-45,-45,1,3068.22,1
1,1,6,1,1,55.5,1.5,40,0,-45,-45,1,3817.22,1
1,1,6,2,1,55.5,1.5,40,0,-45,-45,1,3463.05,1
1,1,6,3,1,55.5,1.5,40,0,-45,-45,1,3728.81,1
1,1,6,4,1,55.5,1.5,10,1,45,45,1,1644.33,1
1,1,6,5,1,55.5,1.5,30,1,45,45,1,9688.39,1
1,1,6,6,1,55.5,1.5,20,1,45,45,1,1675.4,1
1,1,6,7,1,55.5,1.5,40,1,-45,-45,1,1587.66,1
1,1,7,1,1,55.5,1.5,20,0,45,45,1,2979.42,1
1,1,7,2,1,55.5,1.5,20,0,-45,-45,1,1143.24,1
1,1,7,3,1,55.5,1.5,20,0,-45,-45,1,1356.21,1
1,1,7,4,1,55.5,1.5,10,1,-45,-45,1,911.41,1
1,1,7,5,1,55.5,1.5,30,1,-45,-45,1,1342.76,1
1,1,7,6,1,55.5,1.5,20,1,45,45,1,4384.42,1
1,1,7,7,1,55.5,1.5,40,1,-45,-45,1,1382.54,1
1,1,8,1,1,55.5,1.5,30,0,45,45,1,1142.27,1
1,1,8,2,1,55.5,1.5,30,0,-45,-45,1,1016.39,1
1,1,8,3,1,55.5,1.5,30,0,45,45,1,2580.68,1
1,1,8,4,1,55.5,1.5,20,1,-45,-45,1,1622.53,1
1,1,8,5,1,55.5,1.5,40,1,-45,-45,1,917.11,1
1,1,8,6,1,55.5,1.5,30,1,45,45,1,4775.47,1
1,1,8,7,1,55.5,1.5,10,1,-45,-45,1,1518.18,1
1,2,9,1,1,74,2,20,0,-45,-45,1,3992.22,0
1,2,9,2,1,74,2,20,0,-45,-45,1,967.88,0
1,2,9,3,1,74,2,40,1,45,45,1,3281.52,0
1,2,9,4,1,74,2,30,1,-45,-45,1,2442.52,0
1,2,9,5,1,74,2,20,1,-45,-45,1,6009.32,0
1,2,9,6,1,74,2,10,1,45,45,1,963.99,0
1,2,10,1,2,111,3,30,0,45,45,1,14193.01,0
1,2,10,2,2,111,3,30,0,45,45,1,15604.95,0
1,2,10,3,2,111,3,30,0,45,45,1,1387.41,0
1,2,10,4,2,92.5,2.5,10,1,-45,-45,1,1337.35,0
1,2,10,5,2,111,3,20,1,45,45,1,14492.98,0
1,2,10,6,2,74,2,40,1,-45,-45,1,9139.91,0
1,2,10,7,2,55.5,1.5,30,1,45,45,1,2022.68,0
1,2,11,1,2,74,2,20,0,45,45,1,2003.48,0
1,2,11,2,2,74,2,20,0,-45,-45,1,3945.17,0
1,2,11,3,2,92.5,2.5,10,1,45,45,1,2357.49,0
1,2,11,4,2,74,2,40,1,-45,-45,1,3084.63,0
1,2,11,5,2,55.5,1.5,30,1,-45,-45,1,2975.67,0
1,2,11,6,2,111,3,20,1,45,45,1,10400.61,0
1,2,12,1,1,111,3,10,0,45,45,1,5007.86,0
1,2,12,2,1,111,3,10,0,-45,-45,1,4028.62,0
1,2,12,3,1,111,3,10,0,-45,-45,1,2019.61,0
1,2,12,4,1,111,3,40,1,-45,-45,1,4776.78,0
1,2,12,5,1,111,3,30,1,-45,-45,1,4524.9,0
1,2,12,6,1,111,3,10,1,45,45,1,2410.83,0
1,2,12,7,1,111,3,20,1,-45,-45,1,6551.42,0
1,2,13,1,2,55.5,1.5,10,0,-45,-45,1,2305.96,0
1,2,13,2,2,55.5,1.5,10,0,45,45,1,1909.98,0
1,2,13,3,2,55.5,1.5,10,0,-45,-45,1,3045.23,0
1,2,13,4,2,55.5,1.5,10,0,-45,-45,1,2780.98,0
1,2,13,5,2,111,3,10,1,45,45,1,3393.36,0
1,2,13,6,2,74,2,40,1,-45,-45,1,6106.44,0
1,2,13,7,2,55.5,1.5,20,1,45,45,1,1524.38,0
1,2,13,8,2,92.5,2.5,30,1,45,45,1,1503.4,0
1,2,14,1,2,92.5,2.5,30,0,-45,-45,1,2678.1,0
1,2,14,2,2,92.5,2.5,30,0,45,45,1,5604.85,0
1,2,14,3,2,74,2,40,1,-45,-45,1,5315.06,0
1,2,14,4,2,111,3,10,1,45,45,1,3570.32,0
1,2,14,5,2,92.5,2.5,30,1,45,45,1,2437.6,0
1,2,14,6,2,55.5,1.5,20,1,45,45,1,1282.08,0
1,2,15,1,1,74,2,30,0,45,45,1,4989.84,0
1,2,15,2,1,74,2,30,0,-45,-45,1,10573.44,0
1,2,15,3,1,74,2,20,1,45,45,1,4763.58,0
1,2,15,4,1,74,2,40,1,45,45,1,11178.28,0
1,2,15,5,1,74,2,10,1,45,45,1,3737.74,0
1,2,15,6,1,74,2,30,1,-45,-45,1,6030.52,0
1,2,16,1,1,55.5,1.5,20,0,45,45,1,1578.79,0
1,2,16,2,1,55.5,1.5,20,0,-45,-45,1,3215.9,0
1,2,16,3,1,55.5,1.5,20,0,-45,-45,1,1904.29,0
1,2,16,4,1,55.5,1.5,30,1,-45,-45,1,1370.48,0
1,2,16,5,1,55.5,1.5,20,1,-45,-45,1,1289.88,0
1,2,16,6,1,55.5,1.5,40,1,-45,-45,1,1300.2,0
1,2,16,7,1,55.5,1.5,10,1,45,45,1,2045.98,0
1,3,17,1,1,74,2,40,0,-45,-45,1,8057.94,0
1,3,17,2,1,74,2,40,0,-45,-45,1,2794.19,0
1,3,17,3,1,74,2,40,0,-45,-45,1,3222.08,0
1,3,17,4,1,74,2,30,1,-45,-45,1,3975.14,0
1,3,17,5,1,74,2,10,1,45,45,1,1683.39,0
1,3,17,6,1,74,2,20,1,45,45,1,1861.08,0
1,3,17,7,1,74,2,40,1,45,45,1,1663.23,0
1,3,18,1,2,111,3,30,0,45,45,1,2423.77,0
1,3,18,2,2,111,3,30,0,45,45,1,5935.98,0
1,3,18,3,2,111,3,30,0,-45,-45,1,10317.43,0
1,3,18,4,2,111,3,30,0,45,45,1,13751.41,0
1,3,18,5,2,92.5,2.5,20,1,-45,-45,1,1679.76,0
1,3,18,6,2,55.5,1.5,30,1,45,45,1,3363.47,0
1,3,18,7,2,74,2,10,1,-45,-45,1,1834.94,0
1,3,18,8,2,111,3,40,1,-45,-45,1,8063.48,0
1,3,19,1,1,92.5,2.5,40,0,45,45,1,7295.79,0
1,3,19,2,1,92.5,2.5,40,0,45,45,1,7588.1,0
1,3,19,3,1,92.5,2.5,10,1,45,45,1,4573.38,0
1,3,19,4,1,92.5,2.5,30,1,-45,-45,1,3656.92,0
1,3,19,5,1,92.5,2.5,20,1,-45,-45,1,13960.58,0
1,3,19,6,1,92.5,2.5,40,1,-45,-45,1,5568.99,0
1,3,20,1,2,55.5,1.5,20,0,45,45,1,5777.06,0
1,3,20,2,2,55.5,1.5,20,0,-45,-45,1,6437.11,0
1,3,20,3,2,55.5,1.5,20,0,-45,-45,1,2307.17,0
1,3,20,4,2,55.5,1.5,20,0,-45,-45,1,7164.88,0
1,3,20,5,2,92.5,2.5,30,1,-45,-45,1,1741.39,0
1,3,20,6,2,74,2,20,1,45,45,1,6943.59,0
1,3,20,7,2,55.5,1.5,40,1,-45,-45,1,3303.11,0
1,3,20,8,2,111,3,10,1,-45,-45,1,3285.91,0
1,3,21,1,2,92.5,2.5,20,0,45,45,1,4710.46,0
1,3,21,2,2,92.5,2.5,20,0,45,45,1,9072.76,0
1,3,21,3,2,111,3,20,1,45,45,1,9070.05,0
1,3,21,4,2,92.5,2.5,40,1,45,45,1,7977.01,0
1,3,21,5,2,55.5,1.5,10,1,45,45,1,3279.97,0
1,3,21,6,2,74,2,30,1,45,45,1,1701.74,0
1,3,22,1,1,111,3,20,0,45,45,1,7995.89,0
1,3,22,2,1,111,3,20,0,45,45,1,7630.28,0
1,3,22,3,1,111,3,40,1,45,45,1,4506.53,0
1,3,22,4,1,111,3,10,1,45,45,1,3999.06,0
1,3,22,5,1,111,3,20,1,45,45,1,7664.7,0
1,3,22,6,1,111,3,30,1,45,-45,0,17252.67,0
1,3,23,1,1,55.5,1.5,40,0,45,45,1,2392.13,0
1,3,23,2,1,55.5,1.5,40,0,-45,-45,1,2726.69,0
1,3,23,3,1,55.5,1.5,10,1,-45,-45,1,2165.44,0
1,3,23,4,1,55.5,1.5,40,1,45,45,1,1424.87,0
1,3,23,5,1,55.5,1.5,20,1,45,45,1,4782.14,0
1,3,23,6,1,55.5,1.5,30,1,45,45,1,2769.3,0
1,3,24,1,2,111,3,10,0,-45,-45,1,3422.14,0
1,3,24,2,2,111,3,10,0,45,45,1,3044.76,0
1,3,24,3,2,111,3,10,0,-45,-45,1,2167.02,0
1,3,24,4,2,55.5,1.5,10,1,-45,-45,1,1331.15,0
1,3,24,5,2,92.5,2.5,40,1,-45,-45,1,7089.8,0
1,3,24,6,2,111,3,30,1,45,45,1,5677.93,0
1,3,24,7,2,74,2,20,1,45,45,1,2626.8,0
1,4,25,1,2,55.5,1.5,30,0,45,45,1,3090.02,0
1,4,25,2,2,55.5,1.5,30,0,-45,-45,1,1922.2,0
1,4,25,3,2,74,2,40,1,45,45,1,2239.68,0
1,4,25,4,2,111,3,30,1,45,45,1,3332.47,0
1,4,25,5,2,55.5,1.5,10,1,-45,-45,1,1455.29,0
1,4,25,6,2,92.5,2.5,20,1,45,45,1,5489.27,0
1,4,26,1,2,111,3,40,0,-45,-45,1,8122.61,0
1,4,26,2,2,111,3,40,0,-45,-45,1,2603,0
1,4,26,3,2,111,3,40,0,45,45,1,1685.58,0
1,4,26,4,2,74,2,30,1,-45,-45,1,5518.07,0
1,4,26,5,2,92.5,2.5,40,1,45,45,1,7991.56,0
1,4,26,6,2,111,3,10,1,45,45,1,2952.55,0
1,4,26,7,2,55.5,1.5,20,1,45,45,1,1809.3,0
1,4,27,1,1,55.5,1.5,30,0,45,45,1,1389.09,0
1,4,27,2,1,55.5,1.5,30,0,45,45,1,1709.07,0
1,4,27,3,1,55.5,1.5,30,0,-45,-45,1,1206.08,0
1,4,27,4,1,55.5,1.5,30,0,45,45,1,2124.54,0
1,4,27,5,1,55.5,1.5,20,1,-45,-45,1,1758.48,0
1,4,27,6,1,55.5,1.5,30,1,-45,-45,1,1235.93,0
1,4,27,7,1,55.5,1.5,40,1,45,45,1,1477.99,0
1,4,27,8,1,55.5,1.5,10,1,-45,-45,1,1167.63,0
1,4,28,1,2,74,2,20,0,45,45,1,10333.75,0
1,4,28,2,2,74,2,20,0,45,45,1,2914.12,0
1,4,28,3,2,92.5,2.5,30,1,45,45,1,1832.18,0
1,4,28,4,2,55.5,1.5,40,1,-45,-45,1,9616.88,0
1,4,28,5,2,111,3,20,1,-45,-45,1,2658.93,0
1,4,28,6,2,74,2,10,1,45,45,1,2695.33,0
1,4,29,1,2,74,2,10,0,45,45,1,1693.28,0
1,4,29,2,2,74,2,10,0,45,45,1,1949.27,0
1,4,29,3,2,55.5,1.5,10,1,45,45,1,2065.1,0
1,4,29,4,2,111,3,30,1,-45,-45,1,5700.7,0
1,4,29,5,2,74,2,40,1,45,45,1,8829.17,0
1,4,29,6,2,92.5,2.5,20,1,45,45,1,5300.89,0
1,4,30,1,1,74,2,10,0,45,45,1,2174.93,0
1,4,30,2,1,74,2,10,0,-45,-45,1,1836.89,0
1,4,30,3,1,74,2,10,0,-45,-45,1,1693.14,0
1,4,30,4,1,74,2,40,1,-45,-45,1,3001.56,0
1,4,30,5,1,74,2,10,1,-45,-45,1,2941.59,0
1,4,30,6,1,74,2,20,1,-45,-45,1,1248.99,0
1,4,30,7,1,74,2,30,1,45,45,1,3437.75,0
1,4,31,1,1,74,2,20,0,45,45,1,3904.07,0
1,4,31,2,1,74,2,20,0,-45,-45,1,2676.95,0
1,4,31,3,1,74,2,20,0,-45,-45,1,2765.64,0
1,4,31,4,1,74,2,20,0,45,45,1,2157.44,0
1,4,31,5,1,74,2,10,1,-45,-45,1,2121.77,0
1,4,31,6,1,74,2,40,1,-45,-45,1,2500.14,0
1,4,31,7,1,74,2,20,1,-45,-45,1,3162.16,0
1,4,31,8,1,74,2,30,1,-45,-45,1,3164.94,0
1,4,32,1,2,92.5,2.5,30,0,-45,-45,1,2378.01,0
1,4,32,2,2,92.5,2.5,30,0,-45,-45,1,5056.08,0
1,4,32,3,2,92.5,2.5,30,0,45,45,1,5113.87,0
1,4,32,4,2,92.5,2.5,30,0,45,45,1,4071.92,0
1,4,32,5,2,74,2,10,1,45,45,1,2093.26,0
1,4,32,6,2,111,3,20,1,45,45,1,3310.43,0
1,4,32,7,2,55.5,1.5,40,1,-45,-45,1,1041.95,0
1,4,32,8,2,92.5,2.5,30,1,-45,-45,1,2966.68,0
1,5,33,1,2,55.5,1.5,30,0,-45,-45,1,1437.95,0
1,5,33,2,2,55.5,1.5,30,0,-45,-45,1,3704.29,0
1,5,33,3,2,74,2,10,1,-45,-45,1,2363.27,0
1,5,33,4,2,111,3,20,1,-45,-45,1,4611.68,0
1,5,33,5,2,92.5,2.5,40,1,-45,-45,1,8602.51,0
1,5,33,6,2,55.5,1.5,30,1,45,45,1,1192.48,0
1,5,34,1,1,92.5,2.5,10,0,45,45,1,2206.09,0
1,5,34,2,1,92.5,2.5,10,0,-45,-45,1,2199.09,0
1,5,34,3,1,92.5,2.5,10,0,45,45,1,2021.84,0
1,5,34,4,1,92.5,2.5,30,1,-45,-45,1,8717.1,0
1,5,34,5,1,92.5,2.5,10,1,45,45,1,2836.5,0
1,5,34,6,1,92.5,2.5,40,1,45,45,1,7233.28,0
1,5,34,7,1,92.5,2.5,20,1,45,45,1,2613.29,0
1,5,35,1,1,111,3,30,0,-45,-45,1,5437.24,0
1,5,35,2,1,111,3,30,0,-45,-45,1,2127.79,0
1,5,35,3,1,111,3,40,1,45,45,1,6061.44,0
1,5,35,4,1,111,3,10,1,-45,-45,1,2768.89,0
1,5,35,5,1,111,3,20,1,45,45,1,3337.12,0
1,5,35,6,1,111,3,30,1,-45,-45,1,4249.23,0
1,5,36,1,1,55.5,1.5,30,0,-45,-45,1,3932.64,0
1,5,36,2,1,55.5,1.5,30,0,-45,-45,1,2030.43,0
1,5,36,3,1,55.5,1.5,30,0,45,45,1,1185.77,0
1,5,36,4,1,55.5,1.5,30,0,-45,-45,1,1250.23,0
1,5,36,5,1,55.5,1.5,10,1,-45,-45,1,1271,0
1,5,36,6,1,55.5,1.5,30,1,45,45,1,1276.87,0
1,5,36,7,1,55.5,1.5,20,1,45,45,1,977.18,0
1,5,36,8,1,55.5,1.5,40,1,45,45,1,1166.75,0
1,5,37,1,2,111,3,20,0,-45,-45,1,2719.15,0
1,5,37,2,2,111,3,20,0,45,45,1,5079.79,0
1,5,37,3,2,55.5,1.5,40,1,-45,-45,1,8813.45,0
1,5,37,4,2,74,2,20,1,-45,-45,1,2037.73,0
1,5,37,5,2,92.5,2.5,10,1,45,45,1,3226.32,0
1,5,37,6,2,111,3,30,1,45,45,1,1983.76,0
1,5,38,1,1,74,2,10,0,45,45,1,1239.98,0
1,5,38,2,1,74,2,10,0,-45,-45,1,1500.85,0
1,5,38,3,1,74,2,10,0,-45,-45,1,3191.11,0
1,5,38,4,1,74,2,20,1,45,45,1,1382.39,0
1,5,38,5,1,74,2,10,1,-45,-45,1,1535.33,0
1,5,38,6,1,74,2,40,1,45,45,1,2364.88,0
1,5,38,7,1,74,2,30,1,-45,-45,1,1320.36,0
1,5,39,1,2,111,3,40,0,-45,-45,1,4390.59,0
1,5,39,2,2,111,3,40,0,45,45,1,3831.05,0
1,5,39,3,2,111,3,40,0,45,45,1,2834.3,0
1,5,39,4,2,111,3,40,0,45,45,1,6105.05,0
1,5,39,5,2,92.5,2.5,30,1,-45,-45,1,2277.54,0
1,5,39,6,2,111,3,40,1,45,45,1,2019.87,0
1,5,39,7,2,74,2,10,1,45,45,1,3934.06,0
1,5,39,8,2,55.5,1.5,20,1,-45,-45,1,1459.17,0
1,5,40,1,2,74,2,40,0,45,45,1,1618.12,0
1,5,40,2,2,74,2,40,0,45,45,1,4588.39,0
1,5,40,3,2,74,2,40,0,45,45,1,1775.63,0
1,5,40,4,2,92.5,2.5,30,1,45,45,1,5306.39,0
1,5,40,5,2,55.5,1.5,20,1,-45,-45,1,2150.75,0
1,5,40,6,2,111,3,40,1,45,45,1,4687.96,0
1,5,40,7,2,74,2,10,1,-45,-45,1,2411.52,0
1,6,41,1,2,111,3,10,0,45,45,1,1292.32,0
1,6,41,2,2,111,3,10,0,-45,-45,1,1332,0
1,6,41,3,2,74,2,40,1,45,45,1,2893.3,0
1,6,41,4,2,111,3,20,1,-45,-45,1,1241.68,0
1,6,41,5,2,55.5,1.5,30,1,-45,-45,1,1907.75,0
1,6,41,6,2,92.5,2.5,10,1,-45,-45,1,1209.19,0
1,6,42,1,1,55.5,1.5,40,0,-45,-45,1,2869.08,0
1,6,42,2,1,55.5,1.5,40,0,45,45,1,1991.97,0
1,6,42,3,1,55.5,1.5,40,0,-45,-45,1,2969.5,0
1,6,42,4,1,55.5,1.5,40,0,-45,-45,1,1937.53,0
1,6,42,5,1,55.5,1.5,20,1,-45,-45,1,1646.11,0
1,6,42,6,1,55.5,1.5,30,1,45,45,1,2196.68,0
1,6,42,7,1,55.5,1.5,40,1,-45,-45,1,1218.27,0
1,6,42,8,1,55.5,1.5,10,1,45,45,1,1179.77,0
1,6,43,1,1,92.5,2.5,10,0,45,45,1,2392.98,0
1,6,43,2,1,92.5,2.5,10,0,-45,-45,1,2153.06,0
1,6,43,3,1,92.5,2.5,10,0,45,45,1,931.18,0
1,6,43,4,1,92.5,2.5,30,1,-45,-45,1,3886.71,0
1,6,43,5,1,92.5,2.5,20,1,-45,-45,1,5718.4,0
1,6,43,6,1,92.5,2.5,10,1,45,45,1,2617.29,0
1,6,43,7,1,92.5,2.5,40,1,45,45,1,6716.38,0
1,6,44,1,2,55.5,1.5,40,0,45,45,1,1536.6,0
1,6,44,2,2,55.5,1.5,40,0,-45,-45,1,1802.37,0
1,6,44,3,2,111,3,30,1,45,45,1,1894.86,0
1,6,44,4,2,55.5,1.5,10,1,-45,-45,1,1569,0
1,6,44,5,2,74,2,40,1,45,45,1,1383.65,0
1,6,44,6,2,92.5,2.5,20,1,-45,-45,1,6763.1,0
1,6,45,1,1,111,3,40,0,45,45,1,3902.5,0
1,6,45,2,1,111,3,40,0,-45,-45,1,2362.21,0
1,6,45,3,1,111,3,10,1,45,45,1,1234.7,0
1,6,45,4,1,111,3,40,1,45,45,1,4873.36,0
1,6,45,5,1,111,3,20,1,45,45,1,3195.97,0
1,6,45,6,1,111,3,30,1,-45,-45,1,3539.74,0
1,6,46,1,1,111,3,30,0,45,45,1,1397.48,0
1,6,46,2,1,111,3,30,0,45,45,1,3360.2,0
1,6,46,3,1,111,3,10,1,45,45,1,1131.49,0
1,6,46,4,1,111,3,30,1,45,45,1,2045.69,0
1,6,46,5,1,111,3,20,1,-45,-45,1,1815.92,0
1,6,46,6,1,111,3,40,1,45,45,1,11476.2,0
1,6,47,1,2,92.5,2.5,20,0,-45,-45,1,3540.11,0
1,6,47,2,2,92.5,2.5,20,0,-45,-45,1,3626.4,0
1,6,47,3,2,92.5,2.5,20,0,45,45,1,2479.39,0
1,6,47,4,2,92.5,2.5,20,0,-45,-45,1,2172.65,0
1,6,47,5,2,111,3,20,1,-45,-45,1,4331.42,0
1,6,47,6,2,74,2,30,1,45,45,1,3075.86,0
1,6,47,7,2,55.5,1.5,40,1,-45,-45,1,2678.24,0
1,6,47,8,2,92.5,2.5,10,1,45,45,1,1150.61,0
1,6,48,1,1,55.5,1.5,10,0,45,45,1,1092.46,0
1,6,48,2,1,55.5,1.5,10,0,-45,-45,1,1440.42,0
1,6,48,3,1,55.5,1.5,40,1,45,45,1,981.16,0
1,6,48,4,1,55.5,1.5,20,1,45,45,1,1003.16,0
1,6,48,5,1,55.5,1.5,30,1,45,45,1,1053.44,0
1,6,48,6,1,55.5,1.5,10,1,45,45,1,2224.76,0
1,7,49,1,1,74,2,30,0,-45,-45,1,1592.41,0
1,7,49,2,1,74,2,30,0,45,45,1,3840.76,0
1,7,49,3,1,74,2,40,1,45,45,1,4491.82,0
1,7,49,4,1,74,2,10,1,45,45,1,1151.16,0
1,7,49,5,1,74,2,20,1,-45,-45,1,891.05,0
1,7,49,6,1,74,2,30,1,-45,-45,1,2221.13,0
1,7,50,1,1,92.5,2.5,30,0,-45,-45,1,1355.16,0
1,7,50,2,1,92.5,2.5,30,0,-45,-45,1,4143.59,0
1,7,50,3,1,92.5,2.5,30,0,-45,-45,1,3988.63,0
1,7,50,4,1,92.5,2.5,30,0,-45,45,0,3456.16,0
1,7,50,5,1,92.5,2.5,30,1,45,45,1,1187.55,0
1,7,50,6,1,92.5,2.5,40,1,45,45,1,4609.65,0
1,7,50,7,1,92.5,2.5,20,1,-45,-45,1,1201.81,0
1,7,50,8,1,92.5,2.5,10,1,-45,-45,1,1943.88,0
1,7,51,1,2,55.5,1.5,10,0,-45,-45,1,2460.26,0
1,7,51,2,2,55.5,1.5,10,0,45,45,1,1197.8,0
1,7,51,3,2,74,2,20,1,-45,-45,1,1267.72,0
1,7,51,4,2,55.5,1.5,10,1,-45,-45,1,1196.63,0
1,7,51,5,2,111,3,30,1,-45,45,0,2234.62,0
1,7,51,6,2,92.5,2.5,40,1,45,45,1,1392.78,0
1,7,52,1,2,74,2,10,0,-45,-45,1,4643.9,0
1,7,52,2,2,74,2,10,0,45,45,1,1057.65,0
1,7,52,3,2,55.5,1.5,30,1,45,45,1,1220.21,0
1,7,52,4,2,74,2,20,1,45,45,1,1450.14,0
1,7,52,5,2,111,3,40,1,45,45,1,2225.05,0
1,7,52,6,2,92.5,2.5,10,1,45,45,1,2354.52,0
1,7,53,1,2,92.5,2.5,10,0,-45,-45,1,1502.56,0
1,7,53,2,2,92.5,2.5,10,0,-45,45,0,1736,0
1,7,53,3,2,92.5,2.5,10,0,45,45,1,2022.63,0
1,7,53,4,2,74,2,10,1,45,45,1,4895.82,0
1,7,53,5,2,111,3,20,1,-45,-45,1,1499.63,0
1,7,53,6,2,92.5,2.5,40,1,-45,45,0,4713.26,0
1,7,53,7,2,55.5,1.5,30,1,45,45,1,1563.11,0
1,7,54,1,2,92.5,2.5,10,0,-45,45,0,2251.32,0
1,7,54,2,2,92.5,2.5,10,0,-45,45,0,1351.32,0
1,7,54,3,2,92.5,2.5,10,0,-45,45,0,2369.41,0
1,7,54,4,2,92.5,2.5,10,0,45,45,1,1912.49,0
1,7,54,5,2,55.5,1.5,10,1,45,45,1,1793.99,0
1,7,54,6,2,92.5,2.5,30,1,45,45,1,4088.48,0
1,7,54,7,2,111,3,20,1,45,45,1,2051.6,0
1,7,54,8,2,74,2,40,1,-45,45,0,2852.68,0
1,7,55,1,1,92.5,2.5,30,0,-45,45,0,4269.37,0
1,7,55,2,1,92.5,2.5,30,0,-45,45,0,11671.42,0
1,7,55,3,1,92.5,2.5,30,0,-45,45,0,2077.24,0
1,7,55,4,1,92.5,2.5,10,1,-45,45,0,2706.96,0
1,7,55,5,1,92.5,2.5,40,1,-45,45,0,10185.19,0
1,7,55,6,1,92.5,2.5,20,1,45,45,1,3385.8,0
1,7,55,7,1,92.5,2.5,30,1,-45,45,0,5648.39,0
1,7,56,1,2,74,2,30,0,-45,45,0,4276.72,0
1,7,56,2,2,74,2,30,0,-45,45,0,4998.56,0
1,7,56,3,2,55.5,1.5,40,1,-45,45,0,1038.73,0
1,7,56,4,2,111,3,30,1,45,45,1,5257.59,0
1,7,56,5,2,74,2,20,1,-45,45,0,2257.95,0
1,7,56,6,2,92.5,2.5,10,1,-45,45,0,2382,0
1,8,57,1,2,55.5,1.5,20,0,-45,45,0,3379.96,0
1,8,57,2,2,55.5,1.5,20,0,45,45,1,3890.38,0
1,8,57,3,2,55.5,1.5,20,0,-45,-45,1,2413.41,0
1,8,57,4,2,55.5,1.5,20,0,45,45,1,1288.87,0
1,8,57,5,2,111,3,40,1,45,45,1,6007.23,0
1,8,57,6,2,55.5,1.5,30,1,45,45,1,1643.08,0
1,8,57,7,2,74,2,20,1,-45,-45,1,1745.37,0
1,8,57,8,2,92.5,2.5,10,1,-45,-45,1,2046.7,0
1,8,58,1,1,92.5,2.5,40,0,45,45,1,4100.32,0
1,8,58,2,1,92.5,2.5,40,0,-45,-45,1,4544.17,0
1,8,58,3,1,92.5,2.5,40,0,45,45,1,2407.37,0
1,8,58,4,1,92.5,2.5,10,1,-45,-45,1,1836.89,0
1,8,58,5,1,92.5,2.5,20,1,45,45,1,3074.53,0
1,8,58,6,1,92.5,2.5,30,1,45,45,1,2329.6,0
1,8,58,7,1,92.5,2.5,40,1,-45,-45,1,1759.83,0
1,8,59,1,2,92.5,2.5,40,0,45,45,1,3866.57,0
1,8,59,2,2,92.5,2.5,40,0,45,45,1,4690.66,0
1,8,59,3,2,92.5,2.5,40,0,45,45,1,1676.22,0
1,8,59,4,2,74,2,40,1,-45,-45,1,2970.36,0
1,8,59,5,2,111,3,10,1,45,45,1,2409.4,0
1,8,59,6,2,55.5,1.5,20,1,-45,-45,1,4408.29,0
1,8,59,7,2,92.5,2.5,30,1,-45,-45,1,3726.4,0
1,8,60,1,1,111,3,40,0,-45,-45,1,6312.22,0
1,8,60,2,1,111,3,40,0,-45,-45,1,8819.83,0
1,8,60,3,1,111,3,40,0,45,45,1,3785.05,0
1,8,60,4,1,111,3,40,0,-45,-45,1,2047.65,0
1,8,60,5,1,111,3,40,1,45,45,1,2855.44,0
1,8,60,6,1,111,3,10,1,45,45,1,1376.59,0
1,8,60,7,1,111,3,30,1,45,45,1,3246.48,0
1,8,60,8,1,111,3,20,1,-45,-45,1,1889.52,0
1,8,61,1,1,55.5,1.5,20,0,45,45,1,3854.68,0
1,8,61,2,1,55.5,1.5,20,0,45,45,1,1232.19,0
1,8,61,3,1,55.5,1.5,20,0,-45,-45,1,2392.92,0
1,8,61,4,1,55.5,1.5,20,0,-45,-45,1,3304.36,0
1,8,61,5,1,55.5,1.5,40,1,45,45,1,1911.21,0
1,8,61,6,1,55.5,1.5,30,1,45,45,1,1808.39,0
1,8,61,7,1,55.5,1.5,20,1,-45,-45,1,2193.22,0
1,8,61,8,1,55.5,1.5,10,1,-45,-45,1,1064.25,0
1,8,62,1,2,74,2,30,0,-45,-45,1,7659.38,0
1,8,62,2,2,74,2,30,0,-45,-45,1,4146.56,0
1,8,62,3,2,92.5,2.5,10,1,-45,45,0,4271.44,0
1,8,62,4,2,111,3,30,1,-45,45,0,6635.68,0
1,8,62,5,2,74,2,20,1,-45,-45,1,4458.86,0
1,8,62,6,2,55.5,1.5,40,1,45,45,1,5407.85,0
1,8,63,1,2,92.5,2.5,40,0,45,45,1,3665.13,0
1,8,63,2,2,92.5,2.5,40,0,-45,-45,1,5110.64,0
1,8,63,3,2,74,2,10,1,-45,-45,1,4425.46,0
1,8,63,4,2,92.5,2.5,40,1,-45,-45,1,3052.38,0
1,8,63,5,2,111,3,20,1,45,45,1,5314.94,0
1,8,63,6,2,55.5,1.5,30,1,-45,-45,1,2726.75,0
1,8,64,1,1,92.5,2.5,20,0,-45,-45,1,4257.27,0
1,8,64,2,1,92.5,2.5,20,0,-45,-45,1,7581.62,0
1,8,64,3,1,92.5,2.5,40,1,45,45,1,7483.31,0
1,8,64,4,1,92.5,2.5,10,1,45,45,1,3823.44,0
1,8,64,5,1,92.5,2.5,20,1,-45,-45,1,5235.78,0
1,8,64,6,1,92.5,2.5,30,1,45,45,1,5354.31,0
1,9,65,1,1,111,3,20,0,45,45,1,2464.32,0
1,9,65,2,1,111,3,20,0,-45,-45,1,3748.32,0
1,9,65,3,1,111,3,20,0,45,45,1,4023.26,0
1,9,65,4,1,111,3,20,0,45,45,1,3490.66,0
1,9,65,5,1,111,3,30,1,-45,-45,1,1239.81,0
1,9,65,6,1,111,3,20,1,-45,-45,1,4476.97,0
1,9,65,7,1,111,3,10,1,-45,-45,1,3841.64,0
1,9,65,8,1,111,3,40,1,-45,-45,1,2885.8,0
1,9,66,1,1,111,3,10,0,-45,-45,1,2405.98,0
1,9,66,2,1,111,3,10,0,45,45,1,2590.44,0
1,9,66,3,1,111,3,10,0,-45,-45,1,1900.03,0
1,9,66,4,1,111,3,20,1,-45,-45,1,1762.7,0
1,9,66,5,1,111,3,30,1,45,45,1,4024.38,0
1,9,66,6,1,111,3,10,1,45,45,1,2446.05,0
1,9,66,7,1,111,3,40,1,-45,-45,1,1612.7,0
1,9,67,1,1,92.5,2.5,20,0,45,45,1,1953.44,0
1,9,67,2,1,92.5,2.5,20,0,45,45,1,3952.3,0
1,9,67,3,1,92.5,2.5,10,1,45,45,1,1883.92,0
1,9,67,4,1,92.5,2.5,20,1,-45,-45,1,2808.66,0
1,9,67,5,1,92.5,2.5,40,1,-45,-45,1,1148.85,0
1,9,67,6,1,92.5,2.5,30,1,-45,-45,1,4245.38,0
1,9,68,1,1,55.5,1.5,10,0,-45,-45,1,1610.81,0
1,9,68,2,1,55.5,1.5,10,0,45,45,1,1430.62,0
1,9,68,3,1,55.5,1.5,10,0,-45,-45,1,1445.48,0
1,9,68,4,1,55.5,1.5,30,1,45,45,1,1371.37,0
1,9,68,5,1,55.5,1.5,10,1,45,45,1,2140,0
1,9,68,6,1,55.5,1.5,20,1,45,45,1,2403.13,0
1,9,68,7,1,55.5,1.5,40,1,45,45,1,1720.61,0
1,9,69,1,2,55.5,1.5,40,0,-45,-45,1,5819.51,0
1,9,69,2,2,55.5,1.5,40,0,-45,-45,1,3664.93,0
1,9,69,3,2,55.5,1.5,40,0,45,45,1,1870.92,0
1,9,69,4,2,55.5,1.5,40,0,45,45,1,2454.77,0
1,9,69,5,2,92.5,2.5,10,1,-45,-45,1,5967.6,0
1,9,69,6,2,55.5,1.5,20,1,45,45,1,996.73,0
1,9,69,7,2,111,3,40,1,45,45,1,3756.86,0
1,9,69,8,2,74,2,30,1,45,45,1,3157.25,0
1,9,70,1,1,74,2,40,0,45,45,1,6081.41,0
1,9,70,2,1,74,2,40,0,45,45,1,1582.11,0
1,9,70,3,1,74,2,40,1,45,45,1,4575.5,0
1,9,70,4,1,74,2,30,1,-45,-45,1,2684.3,0
1,9,70,5,1,74,2,10,1,45,45,1,887.48,0
1,9,70,6,1,74,2,20,1,45,45,1,867.39,0
1,9,71,1,2,74,2,40,0,-45,-45,1,1639.64,0
1,9,71,2,2,74,2,40,0,45,45,1,1018.84,0
1,9,71,3,2,74,2,40,0,-45,-45,1,2711.66,0
1,9,71,4,2,92.5,2.5,30,1,-45,-45,1,2493.44,0
1,9,71,5,2,111,3,40,1,45,45,1,6413.99,0
1,9,71,6,2,74,2,20,1,-45,-45,1,2259.78,0
1,9,71,7,2,55.5,1.5,10,1,-45,-45,1,1992.2,0
1,9,72,1,2,111,3,20,0,45,45,1,1839.74,0
1,9,72,2,2,111,3,20,0,45,45,1,1469.2,0
1,9,72,3,2,111,3,20,0,-45,-45,1,2115.45,0
1,9,72,4,2,55.5,1.5,30,1,45,45,1,1937.61,0
1,9,72,5,2,74,2,40,1,-45,-45,1,3035.03,0
1,9,72,6,2,92.5,2.5,20,1,45,45,1,1340.01,0
1,9,72,7,2,111,3,10,1,-45,-45,1,2272.44,0
2,1,1,1,1,74,2,10,0,45,-45,0,6849.7,1
2,1,1,2,1,74,2,10,0,45,45,1,1849.22,1
2,1,1,3,1,74,2,10,0,-45,-45,1,4201.33,1
2,1,1,4,1,74,2,30,1,45,45,1,10046.31,1
2,1,1,5,1,74,2,10,1,45,45,1,2638.38,1
2,1,1,6,1,74,2,20,1,-45,45,0,9544.43,1
2,1,1,7,1,74,2,40,1,-45,-45,1,11395.56,1
2,1,2,1,1,55.5,1.5,10,0,45,45,1,3122.09,1
2,1,2,2,1,55.5,1.5,10,0,-45,-45,1,2346.84,1
2,1,2,3,1,55.5,1.5,10,1,45,45,1,2332.44,1
2,1,2,4,1,55.5,1.5,30,1,45,45,1,3895.9,1
2,1,2,5,1,55.5,1.5,40,1,-45,-45,1,3486.87,1
2,1,2,6,1,55.5,1.5,20,1,45,45,1,1732.07,1
2,1,3,1,1,55.5,1.5,20,0,45,45,1,4489.52,1
2,1,3,2,1,55.5,1.5,20,0,45,45,1,3688.36,1
2,1,3,3,1,55.5,1.5,20,0,45,45,1,2177.62,1
2,1,3,4,1,55.5,1.5,40,1,-45,-45,1,3237.31,1
2,1,3,5,1,55.5,1.5,20,1,-45,-45,1,1889.62,1
2,1,3,6,1,55.5,1.5,30,1,45,45,1,11530.11,1
2,1,3,7,1,55.5,1.5,10,1,45,-45,0,2030.81,1
2,1,4,1,1,74,2,20,0,45,45,1,8595.69,1
2,1,4,2,1,74,2,20,0,-45,-45,1,5555.35,1
2,1,4,3,1,74,2,40,1,-45,-45,1,11881.44,1
2,1,4,4,1,74,2,10,1,45,-45,0,3319.69,1
2,1,4,5,1,74,2,20,1,-45,-45,1,6259.2,1
2,1,4,6,1,74,2,30,1,-45,-45,1,12962.03,1
2,1,5,1,1,74,2,30,0,-45,-45,1,5218.8,1
2,1,5,2,1,74,2,30,0,-45,45,0,6849.81,1
2,1,5,3,1,74,2,30,0,-45,45,0,7772.85,1
2,1,5,4,1,74,2,30,0,45,45,1,13578.47,1
2,1,5,5,1,74,2,30,1,45,45,1,4978.17,1
2,1,5,6,1,74,2,10,1,45,45,1,3981.09,1
2,1,5,7,1,74,2,20,1,45,45,1,2612.42,1
2,1,5,8,1,74,2,40,1,45,45,1,4870.36,1
2,1,6,1,1,55.5,1.5,40,0,-45,-45,1,5060.18,1
2,1,6,2,1,55.5,1.5,40,0,45,45,1,6833.78,1
2,1,6,3,1,55.5,1.5,40,0,45,45,1,2074.57,1
2,1,6,4,1,55.5,1.5,10,1,-45,-45,1,2633.96,1
2,1,6,5,1,55.5,1.5,40,1,-45,-45,1,3389.58,1
2,1,6,6,1,55.5,1.5,30,1,45,45,1,1515.33,1
2,1,6,7,1,55.5,1.5,20,1,45,-45,0,1491.1,1
2,1,7,1,1,74,2,40,0,45,45,1,7885.97,1
2,1,7,2,1,74,2,40,0,-45,-45,1,3515.92,1
2,1,7,3,1,74,2,40,0,45,45,1,7585.4,1
2,1,7,4,1,74,2,40,0,45,-45,0,9649.06,1
2,1,7,5,1,74,2,30,1,-45,45,0,8334.42,1
2,1,7,6,1,74,2,40,1,-45,-45,1,8261.76,1
2,1,7,7,1,74,2,10,1,-45,-45,1,6692.39,1
2,1,7,8,1,74,2,20,1,45,45,1,3128.92,1
2,1,8,1,1,55.5,1.5,30,0,-45,45,0,3790.22,1
2,1,8,2,1,55.5,1.5,30,0,45,45,1,4973.08,1
2,1,8,3,1,55.5,1.5,30,0,45,45,1,5668.15,1
2,1,8,4,1,55.5,1.5,30,0,45,45,1,2752.65,1
2,1,8,5,1,55.5,1.5,40,1,45,45,1,2592.53,1
2,1,8,6,1,55.5,1.5,10,1,-45,-45,1,2017.46,1
2,1,8,7,1,55.5,1.5,20,1,-45,-45,1,1784.21,1
2,1,8,8,1,55.5,1.5,30,1,45,45,1,2998.32,1
2,2,9,1,2,92.5,2.5,10,0,-45,-45,1,2576.58,0
2,2,9,2,2,92.5,2.5,10,0,45,45,1,1666.15,0
2,2,9,3,2,92.5,2.5,10,0,45,45,1,2251.57,0
2,2,9,4,2,92.5,2.5,10,0,45,45,1,4628.55,0
2,2,9,5,2,55.5,1.5,30,1,45,45,1,2097.77,0
2,2,9,6,2,74,2,10,1,45,-45,0,11442.84,0
2,2,9,7,2,111,3,20,1,45,45,1,11519.9,0
2,2,9,8,2,92.5,2.5,40,1,45,-45,0,11779.7,0
2,2,10,1,2,111,3,10,0,45,45,1,4947.02,0
2,2,10,2,2,111,3,10,0,45,-45,0,9618.14,0
2,2,10,3,2,74,2,10,1,45,45,1,1837.85,0
2,2,10,4,2,92.5,2.5,30,1,-45,45,0,6937.32,0
2,2,10,5,2,111,3,40,1,-45,45,0,7421.28,0
2,2,10,6,2,55.5,1.5,20,1,45,45,1,6806.23,0
2,2,11,1,2,74,2,20,0,45,-45,0,4454.34,0
2,2,11,2,2,74,2,20,0,45,45,1,7422.99,0
2,2,11,3,2,74,2,20,0,45,-45,0,14739.19,0
2,2,11,4,2,74,2,20,0,45,45,1,2960.17,0
2,2,11,5,2,55.5,1.5,20,1,45,45,1,2885.73,0
2,2,11,6,2,111,3,10,1,45,45,1,7835.68,0
2,2,11,7,2,74,2,30,1,-45,45,0,5983.98,0
2,2,11,8,2,92.5,2.5,40,1,-45,-45,1,11533.02,0
2,2,12,1,1,111,3,30,0,45,45,1,1458.41,0
2,2,12,2,1,111,3,30,0,45,45,1,8929.7,0
2,2,12,3,1,111,3,30,0,-45,45,0,5533.89,0
2,2,12,4,1,111,3,40,1,-45,45,0,8448.39,0
2,2,12,5,1,111,3,10,1,45,-45,0,5629.53,0
2,2,12,6,1,111,3,30,1,45,-45,0,6550.66,0
2,2,12,7,1,111,3,20,1,-45,-45,1,2754.2,0
2,2,13,1,1,92.5,2.5,40,0,-45,-45,1,11762.83,0
2,2,13,2,1,92.5,2.5,40,0,45,45,1,9778.57,0
2,2,13,3,1,92.5,2.5,40,0,-45,-45,1,5679.62,0
2,2,13,4,1,92.5,2.5,40,0,-45,-45,1,10953.6,0
2,2,13,5,1,92.5,2.5,40,1,-45,-45,1,4601.61,0
2,2,13,6,1,92.5,2.5,10,1,45,-45,0,4179.02,0
2,2,13,7,1,92.5,2.5,30,1,-45,45,0,7529.12,0
2,2,13,8,1,92.5,2.5,20,1,-45,-45,1,5224.28,0
2,2,14,1,1,111,3,20,0,-45,-45,1,5889.99,0
2,2,14,2,1,111,3,20,0,45,-45,0,6233.95,0
2,2,14,3,1,111,3,40,1,45,45,1,3305.49,0
2,2,14,4,1,111,3,30,1,45,-45,0,4322.56,0
2,2,14,5,1,111,3,10,1,45,-45,0,4403.95,0
2,2,14,6,1,111,3,20,1,45,-45,0,4093.48,0
2,2,15,1,2,55.5,1.5,30,0,-45,45,0,6879.22,0
2,2,15,2,2,55.5,1.5,30,0,-45,-45,1,12367.43,0
2,2,15,3,2,55.5,1.5,30,0,-45,-45,1,3499.16,0
2,2,15,4,2,55.5,1.5,30,0,45,45,1,1754.05,0
2,2,15,5,2,92.5,2.5,20,1,45,45,1,3636.35,0
2,2,15,6,2,111,3,30,1,-45,-45,1,6056.11,0
2,2,15,7,2,55.5,1.5,40,1,45,45,1,3061.58,0
2,2,15,8,2,74,2,10,1,45,45,1,2215.59,0
2,2,16,1,1,111,3,10,0,-45,-45,1,7353.83,0
2,2,16,2,1,111,3,10,0,-45,-45,1,4257.24,0
2,2,16,3,1,111,3,10,0,45,45,1,3277.35,0
2,2,16,4,1,111,3,20,1,-45,45,0,8224.22,0
2,2,16,5,1,111,3,40,1,45,45,1,12654.32,0
2,2,16,6,1,111,3,10,1,45,45,1,5098.22,0
2,2,16,7,1,111,3,30,1,-45,-45,1,6501.78,0
2,3,17,1,1,74,2,10,0,-45,-45,1,3174.07,0
2,3,17,2,1,74,2,10,0,-45,-45,1,6368.58,0
2,3,17,3,1,74,2,20,1,-45,-45,1,9261.34,0
2,3,17,4,1,74,2,30,1,45,45,1,6376.63,0
2,3,17,5,1,74,2,10,1,45,45,1,3512.48,0
2,3,17,6,1,74,2,40,1,45,45,1,11683.37,0
2,3,18,1,2,111,3,30,0,45,45,1,8014.9,0
2,3,18,2,2,111,3,30,0,-45,-45,1,3924.67,0
2,3,18,3,2,111,3,30,0,45,45,1,2717.67,0
2,3,18,4,2,55.5,1.5,20,1,45,45,1,2346.47,0
2,3,18,5,2,92.5,2.5,40,1,45,-45,0,8632.19,0
2,3,18,6,2,111,3,10,1,45,45,1,5197.2,0
2,3,18,7,2,74,2,30,1,45,45,1,2659.02,0
2,3,19,1,2,92.5,2.5,30,0,45,45,1,8594.92,0
2,3,19,2,2,92.5,2.5,30,0,45,45,1,3177.86,0
2,3,19,3,2,92.5,2.5,30,0,45,45,1,2797.5,0
2,3,19,4,2,111,3,40,1,-45,-45,1,6821.38,0
2,3,19,5,2,74,2,20,1,-45,-45,1,73.02,0
2,3,19,6,2,92.5,2.5,10,1,-45,-45,1,5149.02,0
2,3,19,7,2,55.5,1.5,30,1,-45,-45,1,3777.18,0
2,3,20,1,1,92.5,2.5,10,0,45,-45,0,5917.71,0
2,3,20,2,1,92.5,2.5,10,0,-45,-45,1,5194.52,0
2,3,20,3,1,92.5,2.5,10,0,-45,-45,1,3770.99,0
2,3,20,4,1,92.5,2.5,40,1,-45,-45,1,14142.26,0
2,3,20,5,1,92.5,2.5,10,1,-45,-45,1,4179.18,0
2,3,20,6,1,92.5,2.5,30,1,-45,-45,1,7907.78,0
2,3,20,7,1,92.5,2.5,20,1,-45,-45,1,8499.15,0
2,3,21,1,2,92.5,2.5,40,0,45,-45,0,10855.23,0
2,3,21,2,2,92.5,2.5,40,0,45,45,1,5632.82,0
2,3,21,3,2,92.5,2.5,40,0,-45,-45,1,5694.57,0
2,3,21,4,2,74,2,20,1,-45,-45,1,6146.48,0
2,3,21,5,2,111,3,30,1,-45,-45,1,4889.5,0
2,3,21,6,2,92.5,2.5,10,1,45,45,1,3140.73,0
2,3,21,7,2,55.5,1.5,40,1,-45,-45,1,2733.58,0
2,3,22,1,1,92.5,2.5,40,0,-45,-45,1,4707.84,0
2,3,22,2,1,92.5,2.5,40,0,45,45,1,8535.31,0
2,3,22,3,1,92.5,2.5,40,0,-45,45,0,14208.74,0
2,3,22,4,1,92.5,2.5,40,0,-45,45,0,13573.85,0
2,3,22,5,1,92.5,2.5,30,1,-45,-45,1,4382.52,0
2,3,22,6,1,92.5,2.5,20,1,45,45,1,6754.63,0
2,3,22,7,1,92.5,2.5,40,1,45,45,1,2853.49,0
2,3,22,8,1,92.5,2.5,10,1,-45,-45,1,4198.95,0
2,3,23,1,2,55.5,1.5,30,0,-45,-45,1,2087.23,0
2,3,23,2,2,55.5,1.5,30,0,45,-45,0,13771.03,0
2,3,23,3,2,55.5,1.5,30,0,45,45,1,6600.72,0
2,3,23,4,2,74,2,40,1,45,45,1,6385.11,0
2,3,23,5,2,111,3,30,1,45,-45,0,8746.71,0
2,3,23,6,2,92.5,2.5,20,1,45,-45,0,7478.44,0
2,3,23,7,2,55.5,1.5,10,1,45,45,1,2277.56,0
2,3,24,1,2,74,2,10,0,45,45,1,2737.55,0
2,3,24,2,2,74,2,10,0,45,45,1,3834.06,0
2,3,24,3,2,74,2,10,0,-45,-45,1,4215.4,0
2,3,24,4,2,55.5,1.5,20,1,45,45,1,3646.48,0
2,3,24,5,2,74,2,30,1,45,45,1,6240.55,0
2,3,24,6,2,92.5,2.5,40,1,45,45,1,10389.8,0
2,3,24,7,2,111,3,10,1,45,45,1,2392.73,0
2,4,25,1,1,55.5,1.5,40,0,-45,-45,1,2937.19,0
2,4,25,2,1,55.5,1.5,40,0,-45,-45,1,2922.41,0
2,4,25,3,1,55.5,1.5,30,1,-45,-45,1,3003.65,0
2,4,25,4,1,55.5,1.5,40,1,-45,-45,1,3091.35,0
2,4,25,5,1,55.5,1.5,20,1,-45,-45,1,2446.14,0
2,4,25,6,1,55.5,1.5,10,1,-45,-45,1,1696.15,0
2,4,26,1,2,55.5,1.5,10,0,45,45,1,1503.45,0
2,4,26,2,2,55.5,1.5,10,0,-45,-45,1,1246.13,0
2,4,26,3,2,55.5,1.5,10,0,-45,-45,1,1717.37,0
2,4,26,4,2,74,2,30,1,45,45,1,3641.46,0
2,4,26,5,2,55.5,1.5,20,1,45,45,1,2389.64,0
2,4,26,6,2,92.5,2.5,40,1,45,45,1,3781.78,0
2,4,26,7,2,111,3,10,1,-45,-45,1,3221.44,0
2,4,27,1,1,74,2,30,0,45,45,1,6956.21,0
2,4,27,2,1,74,2,30,0,45,45,1,2996.25,0
2,4,27,3,1,74,2,20,1,45,45,1,154.36,0
2,4,27,4,1,74,2,40,1,45,45,1,14497.03,0
2,4,27,5,1,74,2,30,1,45,45,1,3752.4,0
2,4,27,6,1,74,2,10,1,-45,-45,1,2060.61,0
2,4,28,1,2,74,2,40,0,45,45,1,4766.61,0
2,4,28,2,2,74,2,40,0,45,45,1,3142.58,0
2,4,28,3,2,74,2,40,0,45,45,1,6159.99,0
2,4,28,4,2,111,3,10,1,45,45,1,2245.23,0
2,4,28,5,2,92.5,2.5,30,1,-45,-45,1,3299.69,0
2,4,28,6,2,55.5,1.5,40,1,-45,-45,1,2301.73,0
2,4,28,7,2,74,2,20,1,45,45,1,3704.27,0
2,4,29,1,2,55.5,1.5,20,0,45,45,1,1340.73,0
2,4,29,2,2,55.5,1.5,20,0,45,45,1,933.93,0
2,4,29,3,2,55.5,1.5,20,0,-45,-45,1,1766.37,0
2,4,29,4,2,55.5,1.5,20,0,-45,-45,1,1812.28,0
2,4,29,5,2,111,3,10,1,45,45,1,3339.03,0
2,4,29,6,2,55.5,1.5,20,1,-45,-45,1,3134.22,0
2,4,29,7,2,92.5,2.5,30,1,45,45,1,8691.49,0
2,4,29,8,2,74,2,40,1,45,45,1,5994.67,0
2,4,30,1,2,74,2,30,0,45,45,1,3470.11,0
2,4,30,2,2,74,2,30,0,-45,-45,1,8893.18,0
2,4,30,3,2,74,2,30,0,45,45,1,3388.42,0
2,4,30,4,2,55.5,1.5,20,1,-45,-45,1,4995.69,0
2,4,30,5,2,92.5,2.5,40,1,-45,-45,1,8579.94,0
2,4,30,6,2,111,3,10,1,-45,-45,1,3477.23,0
2,4,30,7,2,74,2,30,1,45,45,1,10280.99,0
2,4,31,1,1,111,3,10,0,45,45,1,5165.61,0
2,4,31,2,1,111,3,10,0,-45,-45,1,883.95,0
2,4,31,3,1,111,3,10,0,45,45,1,3183.99,0
2,4,31,4,1,111,3,10,0,45,45,1,4016.28,0
2,4,31,5,1,111,3,40,1,-45,45,0,21679.26,0
2,4,31,6,1,111,3,10,1,45,45,1,4987.12,0
2,4,31,7,1,111,3,20,1,-45,-45,1,7549.88,0
2,4,31,8,1,111,3,30,1,-45,45,0,10271.96,0
2,4,32,1,1,55.5,1.5,40,0,45,45,1,8385.48,0
2,4,32,2,1,55.5,1.5,40,0,-45,-45,1,8426.1,0
2,4,32,3,1,55.5,1.5,40,0,-45,-45,1,1957.24,0
2,4,32,4,1,55.5,1.5,40,1,-45,-45,1,1214.17,0
2,4,32,5,1,55.5,1.5,10,1,45,45,1,2020.68,0
2,4,32,6,1,55.5,1.5,20,1,-45,-45,1,5116.39,0
2,4,32,7,1,55.5,1.5,30,1,45,45,1,3125.23,0
2,5,33,1,1,92.5,2.5,20,0,-45,-45,1,1457.74,0
2,5,33,2,1,92.5,2.5,20,0,45,45,1,4444.86,0
2,5,33,3,1,92.5,2.5,20,0,-45,-45,1,13817.37,0
2,5,33,4,1,92.5,2.5,20,1,-45,-45,1,5892.83,0
2,5,33,5,1,92.5,2.5,30,1,45,45,1,8315.94,0
2,5,33,6,1,92.5,2.5,40,1,45,45,1,4946.75,0
2,5,33,7,1,92.5,2.5,10,1,-45,-45,1,3251.68,0
2,5,34,1,2,111,3,40,0,45,45,1,4381.56,0
2,5,34,2,2,111,3,40,0,-45,-45,1,2871.92,0
2,5,34,3,2,111,3,40,0,45,45,1,5379.97,0
2,5,34,4,2,111,3,40,0,45,45,1,3880.84,0
2,5,34,5,2,74,2,30,1,-45,-45,1,2553.23,0
2,5,34,6,2,111,3,40,1,45,45,1,11043.72,0
2,5,34,7,2,92.5,2.5,10,1,-45,-45,1,1769.66,0
2,5,34,8,2,55.5,1.5,20,1,45,45,1,1616.37,0
2,5,35,1,2,55.5,1.5,20,0,-45,-45,1,1671.65,0
2,5,35,2,2,55.5,1.5,20,0,45,45,1,1156.39,0
2,5,35,3,2,92.5,2.5,20,1,-45,-45,1,5377.46,0
2,5,35,4,2,74,2,30,1,-45,-45,1,2144.66,0
2,5,35,5,2,55.5,1.5,10,1,-45,-45,1,1862.45,0
2,5,35,6,2,111,3,40,1,45,45,1,7997.78,0
2,5,36,1,1,55.5,1.5,20,0,-45,-45,1,1917,0
2,5,36,2,1,55.5,1.5,20,0,-45,-45,1,1521.85,0
2,5,36,3,1,55.5,1.5,20,0,45,-45,0,1202.25,0
2,5,36,4,1,55.5,1.5,10,1,-45,-45,1,1218.48,0
2,5,36,5,1,55.5,1.5,40,1,45,45,1,1527.64,0
2,5,36,6,1,55.5,1.5,20,1,45,45,1,2472.94,0
2,5,36,7,1,55.5,1.5,30,1,45,45,1,5017.97,0
2,5,37,1,2,111,3,30,0,-45,-45,1,12011.53,0
2,5,37,2,2,111,3,30,0,-45,-45,1,6583.94,0
2,5,37,3,2,111,3,30,0,-45,-45,1,3598.54,0
2,5,37,4,2,74,2,10,1,45,45,1,4047.04,0
2,5,37,5,2,55.5,1.5,20,1,-45,-45,1,1969.01,0
2,5,37,6,2,92.5,2.5,30,1,45,45,1,9993.9,0
2,5,37,7,2,111,3,40,1,-45,-45,1,6290.86,0
2,5,38,1,2,92.5,2.5,10,0,45,45,1,2179.52,0
2,5,38,2,2,92.5,2.5,10,0,45,45,1,3868.69,0
2,5,38,3,2,92.5,2.5,10,0,-45,-45,1,2937.96,0
2,5,38,4,2,74,2,40,1,45,45,1,2184.89,0
2,5,38,5,2,92.5,2.5,30,1,-45,-45,1,1881.59,0
2,5,38,6,2,111,3,20,1,-45,-45,1,1407.1,0
2,5,38,7,2,55.5,1.5,10,1,45,45,1,1325.46,0
2,5,39,1,1,74,2,40,0,-45,-45,1,6371.9,0
2,5,39,2,1,74,2,40,0,-45,-45,1,1955.29,0
2,5,39,3,1,74,2,40,0,45,45,1,1228.44,0
2,5,39,4,1,74,2,40,0,45,-45,0,1607.31,0
2,5,39,5,1,74,2,40,1,45,45,1,2965.58,0
2,5,39,6,1,74,2,10,1,-45,-45,1,1445.31,0
2,5,39,7,1,74,2,20,1,45,45,1,7366.27,0
2,5,39,8,1,74,2,30,1,45,45,1,3291.85,0
2,5,40,1,2,74,2,30,0,-45,-45,1,3990.42,0
2,5,40,2,2,74,2,30,0,45,45,1,2595.93,0
2,5,40,3,2,92.5,2.5,40,1,45,45,1,1523.72,0
2,5,40,4,2,74,2,30,1,45,45,1,1285.48,0
2,5,40,5,2,55.5,1.5,20,1,45,45,1,1966.64,0
2,5,40,6,2,111,3,10,1,45,45,1,2539.39,0
2,6,41,1,1,55.5,1.5,10,0,45,45,1,1434.74,0
2,6,41,2,1,55.5,1.5,10,0,-45,-45,1,1032.8,0
2,6,41,3,1,55.5,1.5,20,1,-45,-45,1,1515.57,0
2,6,41,4,1,55.5,1.5,40,1,-45,-45,1,5204.33,0
2,6,41,5,1,55.5,1.5,30,1,-45,-45,1,3348.72,0
2,6,41,6,1,55.5,1.5,10,1,45,45,1,1276.44,0
2,6,42,1,1,55.5,1.5,20,0,45,45,1,3525.03,0
2,6,42,2,1,55.5,1.5,20,0,-45,-45,1,1339.37,0
2,6,42,3,1,55.5,1.5,20,0,45,45,1,1612.72,0
2,6,42,4,1,55.5,1.5,20,0,-45,-45,1,1525.03,0
2,6,42,5,1,55.5,1.5,40,1,-45,-45,1,1181.32,0
2,6,42,6,1,55.5,1.5,20,1,-45,-45,1,2345.19,0
2,6,42,7,1,55.5,1.5,30,1,45,45,1,3372.73,0
2,6,42,8,1,55.5,1.5,10,1,45,45,1,1426.82,0
2,6,43,1,1,111,3,40,0,45,45,1,5033.17,0
2,6,43,2,1,111,3,40,0,45,45,1,8949.37,0
2,6,43,3,1,111,3,40,0,-45,-45,1,13500.65,0
2,6,43,4,1,111,3,40,1,-45,-45,1,4253.73,0
2,6,43,5,1,111,3,20,1,45,45,1,6742.9,0
2,6,43,6,1,111,3,30,1,45,45,1,3100.21,0
2,6,43,7,1,111,3,10,1,-45,-45,1,1810.16,0
2,6,44,1,1,74,2,20,0,-45,-45,1,5476.38,0
2,6,44,2,1,74,2,20,0,45,45,1,1265.4,0
2,6,44,3,1,74,2,20,0,45,-45,0,1822.61,0
2,6,44,4,1,74,2,20,0,-45,-45,1,2930.6,0
2,6,44,5,1,74,2,30,1,-45,-45,1,2483.63,0
2,6,44,6,1,74,2,10,1,-45,-45,1,1803.49,0
2,6,44,7,1,74,2,20,1,-45,-45,1,2984.97,0
2,6,44,8,1,74,2,40,1,45,45,1,1185.55,0
2,6,45,1,2,74,2,40,0,-45,-45,1,16062.27,0
2,6,45,2,2,74,2,40,0,-45,-45,1,3634.34,0
2,6,45,3,2,92.5,2.5,20,1,-45,-45,1,3828.53,0
2,6,45,4,2,74,2,30,1,45,45,1,4522.43,0
2,6,45,5,2,111,3,40,1,-45,45,0,23126.21,0
2,6,45,6,2,55.5,1.5,10,1,-45,-45,1,2070.64,0
2,6,46,1,1,111,3,40,0,-45,-45,1,7344.92,0
2,6,46,2,1,111,3,40,0,-45,-45,1,4328.82,0
2,6,46,3,1,111,3,40,0,-45,-45,1,19370.67,0
2,6,46,4,1,111,3,40,0,-45,-45,1,2052.63,0
2,6,46,5,1,111,3,10,1,-45,-45,1,4393.68,0
2,6,46,6,1,111,3,20,1,45,45,1,5121.22,0
2,6,46,7,1,111,3,30,1,45,45,1,9507.99,0
2,6,46,8,1,111,3,40,1,-45,-45,1,2746.64,0
2,6,47,1,1,55.5,1.5,10,0,45,45,1,3034.88,0
2,6,47,2,1,55.5,1.5,10,0,-45,-45,1,3379.25,0
2,6,47,3,1,55.5,1.5,10,0,45,45,1,2540.64,0
2,6,47,4,1,55.5,1.5,10,1,45,45,1,4331.63,0
2,6,47,5,1,55.5,1.5,20,1,-45,-45,1,2214.32,0
2,6,47,6,1,55.5,1.5,40,1,45,45,1,2033.62,0
2,6,47,7,1,55.5,1.5,30,1,45,45,1,2489.58,0
2,6,48,1,2,111,3,20,0,-45,-45,1,6262.29,0
2,6,48,2,2,111,3,20,0,-45,-45,1,5658.75,0
2,6,48,3,2,111,3,20,0,-45,-45,1,2228.14,0
2,6,48,4,2,92.5,2.5,40,1,45,-45,0,15940.29,0
2,6,48,5,2,74,2,30,1,45,45,1,3056.28,0
2,6,48,6,2,111,3,10,1,45,-45,0,1456.34,0
2,6,48,7,2,55.5,1.5,20,1,-45,-45,1,4811.49,0
2,7,49,1,1,92.5,2.5,30,0,45,45,1,12864.3,0
2,7,49,2,1,92.5,2.5,30,0,-45,-45,1,7453.2,0
2,7,49,3,1,92.5,2.5,10,1,-45,-45,1,1609.76,0
2,7,49,4,1,92.5,2.5,30,1,-45,-45,1,5560.06,0
2,7,49,5,1,92.5,2.5,20,1,-45,-45,1,5841.18,0
2,7,49,6,1,92.5,2.5,40,1,-45,-45,1,7491.21,0
2,7,50,1,2,111,3,20,0,-45,-45,1,6519.22,0
2,7,50,2,2,111,3,20,0,-45,-45,1,9687.93,0
2,7,50,3,2,111,3,20,0,45,45,1,8626.89,0
2,7,50,4,2,74,2,40,1,-45,-45,1,3456.92,0
2,7,50,5,2,92.5,2.5,30,1,-45,-45,1,6621.92,0
2,7,50,6,2,111,3,20,1,-45,-45,1,5771.85,0
2,7,50,7,2,55.5,1.5,10,1,-45,45,0,1683.92,0
2,7,51,1,1,74,2,40,0,45,-45,0,4967.84,0
2,7,51,2,1,74,2,40,0,45,45,1,10567.84,0
2,7,51,3,1,74,2,20,1,-45,-45,1,3143.53,0
2,7,51,4,1,74,2,30,1,-45,-45,1,2537.29,0
2,7,51,5,1,74,2,40,1,-45,-45,1,4640.68,0
2,7,51,6,1,74,2,10,1,-45,45,0,3066.21,0
2,7,52,1,2,111,3,40,0,-45,-45,1,4058.11,0
2,7,52,2,2,111,3,40,0,-45,-45,1,9753.86,0
2,7,52,3,2,111,3,40,0,-45,45,0,4804.59,0
2,7,52,4,2,111,3,40,0,-45,-45,1,4928.73,0
2,7,52,5,2,55.5,1.5,10,1,-45,45,0,1837.04,0
2,7,52,6,2,74,2,40,1,45,-45,0,5175.62,0
2,7,52,7,2,111,3,20,1,-45,-45,1,5175.74,0
2,7,52,8,2,92.5,2.5,30,1,45,-45,0,3212.72,0
2,7,53,1,1,111,3,30,0,45,45,1,3957.86,0
2,7,53,2,1,111,3,30,0,-45,-45,1,4549.63,0
2,7,53,3,1,111,3,30,0,45,-45,0,3412.24,0
2,7,53,4,1,111,3,30,1,-45,-45,1,5798.32,0
2,7,53,5,1,111,3,20,1,-45,-45,1,6793.9,0
2,7,53,6,1,111,3,10,1,45,45,1,1745.21,0
2,7,53,7,1,111,3,40,1,45,45,1,3088.63,0
2,7,54,1,1,92.5,2.5,10,0,-45,-45,1,2171.54,0
2,7,54,2,1,92.5,2.5,10,0,45,45,1,1815.38,0
2,7,54,3,1,92.5,2.5,30,1,45,45,1,2797.96,0
2,7,54,4,1,92.5,2.5,20,1,45,45,1,2824.35,0
2,7,54,5,1,92.5,2.5,40,1,45,45,1,14145.47,0
2,7,54,6,1,92.5,2.5,10,1,45,45,1,3026.3,0
2,7,55,1,1,92.5,2.5,30,0,-45,-45,1,6004.56,0
2,7,55,2,1,92.5,2.5,30,0,45,45,1,8652.05,0
2,7,55,3,1,92.5,2.5,30,0,-45,45,0,2296.65,0
2,7,55,4,1,92.5,2.5,30,0,45,45,1,18884.27,0
2,7,55,5,1,92.5,2.5,20,1,45,45,1,1429.84,0
2,7,55,6,1,92.5,2.5,40,1,-45,-45,1,9459.49,0
2,7,55,7,1,92.5,2.5,10,1,45,45,1,5765.35,0
2,7,55,8,1,92.5,2.5,30,1,45,45,1,5902.58,0
2,7,56,1,1,74,2,10,0,-45,-45,1,2824.49,0
2,7,56,2,1,74,2,10,0,45,45,1,1647.94,0
2,7,56,3,1,74,2,10,0,45,45,1,3685.77,0
2,7,56,4,1,74,2,30,1,-45,-45,1,4784.76,0
2,7,56,5,1,74,2,10,1,-45,-45,1,3406.08,0
2,7,56,6,1,74,2,40,1,45,45,1,4219.86,0
2,7,56,7,1,74,2,20,1,45,45,1,3870.83,0
2,8,57,1,2,92.5,2.5,30,0,-45,-45,1,5681.18,0
2,8,57,2,2,92.5,2.5,30,0,-45,-45,1,4370,0
2,8,57,3,2,92.5,2.5,30,0,-45,-45,1,4593.34,0
2,8,57,4,2,74,2,30,1,-45,-45,1,3575,0
2,8,57,5,2,92.5,2.5,20,1,45,45,1,2809.8,0
2,8,57,6,2,55.5,1.5,40,1,45,45,1,3924.82,0
2,8,57,7,2,111,3,10,1,-45,-45,1,1768.9,0
2,8,58,1,2,74,2,20,0,-45,-45,1,1784.11,0
2,8,58,2,2,74,2,20,0,-45,-45,1,14577.8,0
2,8,58,3,2,74,2,20,0,-45,-45,1,1765.74,0
2,8,58,4,2,111,3,10,1,-45,-45,1,1663.51,0
2,8,58,5,2,55.5,1.5,40,1,-45,-45,1,2462.89,0
2,8,58,6,2,92.5,2.5,20,1,-45,-45,1,4369.66,0
2,8,58,7,2,74,2,30,1,-45,-45,1,9271.62,0
2,8,59,1,1,74,2,20,0,-45,-45,1,3129.52,0
2,8,59,2,1,74,2,20,0,45,45,1,1719.46,0
2,8,59,3,1,74,2,20,1,45,-45,0,2289.47,0
2,8,59,4,1,74,2,40,1,-45,-45,1,7080.12,0
2,8,59,5,1,74,2,10,1,45,45,1,2098.6,0
2,8,59,6,1,74,2,30,1,45,45,1,5422.91,0
2,8,60,1,2,74,2,10,0,45,45,1,1671.85,0
2,8,60,2,2,74,2,10,0,-45,-45,1,1784.04,0
2,8,60,3,2,92.5,2.5,40,1,45,45,1,1480.08,0
2,8,60,4,2,74,2,30,1,-45,-45,1,2366.22,0
2,8,60,5,2,55.5,1.5,10,1,45,45,1,1516.08,0
2,8,60,6,2,111,3,20,1,45,45,1,1688.61,0
2,8,61,1,1,74,2,30,0,45,45,1,5258.05,0
2,8,61,2,1,74,2,30,0,45,45,1,4388.24,0
2,8,61,3,1,74,2,30,0,-45,-45,1,2715.96,0
2,8,61,4,1,74,2,30,1,-45,-45,1,2207.05,0
2,8,61,5,1,74,2,10,1,-45,-45,1,1834.89,0
2,8,61,6,1,74,2,20,1,-45,-45,1,1011.29,0
2,8,61,7,1,74,2,40,1,-45,-45,1,896.14,0
2,8,62,1,2,92.5,2.5,20,0,-45,-45,1,1892.88,0
2,8,62,2,2,92.5,2.5,20,0,-45,-45,1,1862,0
2,8,62,3,2,55.5,1.5,40,1,45,45,1,3932.09,0
2,8,62,4,2,74,2,30,1,45,45,1,4173.01,0
2,8,62,5,2,111,3,10,1,45,-45,0,1940.87,0
2,8,62,6,2,92.5,2.5,20,1,-45,-45,1,1901.35,0
2,8,63,1,2,55.5,1.5,40,0,45,45,1,1262.18,0
2,8,63,2,2,55.5,1.5,40,0,45,45,1,3426.73,0
2,8,63,3,2,111,3,30,1,-45,-45,1,4306.48,0
2,8,63,4,2,92.5,2.5,40,1,-45,-45,1,3339.4,0
2,8,63,5,2,74,2,10,1,-45,-45,1,2578.99,0
2,8,63,6,2,55.5,1.5,20,1,45,45,1,2380.43,0
2,8,64,1,1,55.5,1.5,30,0,45,45,1,7568.49,0
2,8,64,2,1,55.5,1.5,30,0,45,45,1,1456.71,0
2,8,64,3,1,55.5,1.5,10,1,45,45,1,2222.72,0
2,8,64,4,1,55.5,1.5,20,1,-45,-45,1,1126.07,0
2,8,64,5,1,55.5,1.5,40,1,-45,-45,1,1806.42,0
2,8,64,6,1,55.5,1.5,30,1,-45,-45,1,1317.14,0
2,9,65,1,1,55.5,1.5,30,0,-45,-45,1,4157.51,0
2,9,65,2,1,55.5,1.5,30,0,-45,-45,1,1558.25,0
2,9,65,3,1,55.5,1.5,30,0,-45,-45,1,1532.11,0
2,9,65,4,1,55.5,1.5,30,0,-45,-45,1,2873.57,0
2,9,65,5,1,55.5,1.5,20,1,-45,-45,1,1527.98,0
2,9,65,6,1,55.5,1.5,10,1,45,45,1,1092.09,0
2,9,65,7,1,55.5,1.5,30,1,45,45,1,2299.1,0
2,9,65,8,1,55.5,1.5,40,1,45,45,1,1020.95,0
2,9,66,1,2,92.5,2.5,40,0,45,45,1,2561.2,0
2,9,66,2,2,92.5,2.5,40,0,45,45,1,2644.44,0
2,9,66,3,2,92.5,2.5,40,0,45,45,1,5247.73,0
2,9,66,4,2,92.5,2.5,40,0,-45,-45,1,3577.67,0
2,9,66,5,2,111,3,10,1,45,45,1,1763.39,0
2,9,66,6,2,55.5,1.5,30,1,-45,-45,1,2722.87,0
2,9,66,7,2,92.5,2.5,40,1,45,45,1,2301.86,0
2,9,66,8,2,74,2,20,1,45,45,1,3658.37,0
2,9,67,1,2,55.5,1.5,10,0,-45,-45,1,1002.15,0
2,9,67,2,2,55.5,1.5,10,0,45,45,1,1125.48,0
2,9,67,3,2,92.5,2.5,40,1,-45,-45,1,4410.93,0
2,9,67,4,2,74,2,30,1,45,45,1,7320.75,0
2,9,67,5,2,55.5,1.5,10,1,-45,-45,1,2364.86,0
2,9,67,6,2,111,3,20,1,45,-45,0,1940.94,0
2,9,68,1,2,92.5,2.5,20,0,45,45,1,4031.99,0
2,9,68,2,2,92.5,2.5,20,0,-45,-45,1,5566.16,0
2,9,68,3,2,111,3,40,1,45,45,1,4034.34,0
2,9,68,4,2,92.5,2.5,20,1,-45,-45,1,2114.93,0
2,9,68,5,2,74,2,30,1,-45,-45,1,8603.76,0
2,9,68,6,2,55.5,1.5,10,1,-45,-45,1,1931.91,0
2,9,69,1,2,55.5,1.5,40,0,45,45,1,1585.6,0
2,9,69,2,2,55.5,1.5,40,0,-45,-45,1,2849.6,0
2,9,69,3,2,55.5,1.5,40,0,-45,-45,1,1769.32,0
2,9,69,4,2,55.5,1.5,40,0,45,45,1,5530.23,0
2,9,69,5,2,74,2,10,1,-45,-45,1,1241.04,0
2,9,69,6,2,92.5,2.5,40,1,-45,-45,1,15017.57,0
2,9,69,7,2,55.5,1.5,30,1,45,45,1,1882.33,0
2,9,69,8,2,111,3,20,1,-45,-45,1,2715.86,0
2,9,70,1,1,92.5,2.5,20,0,45,45,1,2000.69,0
2,9,70,2,1,92.5,2.5,20,0,45,45,1,3284.2,0
2,9,70,3,1,92.5,2.5,30,1,-45,-45,1,5064.83,0
2,9,70,4,1,92.5,2.5,20,1,45,45,1,3778.71,0
2,9,70,5,1,92.5,2.5,40,1,-45,-45,1,14746.93,0
2,9,70,6,1,92.5,2.5,10,1,-45,-45,1,2885.58,0
2,9,71,1,2,111,3,10,0,45,45,1,2522.05,0
2,9,71,2,2,111,3,10,0,-45,-45,1,2093.29,0
2,9,71,3,2,111,3,10,0,45,45,1,1334.99,0
2,9,71,4,2,74,2,40,1,45,45,1,2277.75,0
2,9,71,5,2,111,3,20,1,-45,-45,1,1591.61,0
2,9,71,6,2,92.5,2.5,30,1,45,45,1,5545.18,0
2,9,71,7,2,55.5,1.5,10,1,-45,-45,1,1611.33,0
2,9,72,1,1,111,3,20,0,45,45,1,1925.62,0
2,9,72,2,1,111,3,20,0,-45,-45,1,2954.88,0
2,9,72,3,1,111,3,10,1,-45,-45,1,1779.38,0
2,9,72,4,1,111,3,20,1,45,45,1,1886.71,0
2,9,72,5,1,111,3,30,1,-45,-45,1,9333.26,0
2,9,72,6,1,111,3,40,1,45,45,1,1714.88,0
3,1,1,1,1,55.5,1.5,10,0,-45,-45,1,3993.43,1
3,1,1,2,1,55.5,1.5,10,0,45,45,1,1005.59,1
3,1,1,3,1,55.5,1.5,10,0,-45,-45,1,1423.91,1
3,1,1,4,1,55.5,1.5,40,1,45,45,1,1856.96,1
3,1,1,5,1,55.5,1.5,30,1,45,45,1,799.77,1
3,1,1,6,1,55.5,1.5,10,1,-45,-45,1,1037.41,1
3,1,1,7,1,55.5,1.5,20,1,45,45,1,1083.43,1
3,1,2,1,1,74,2,10,0,45,45,1,1252.33,1
3,1,2,2,1,74,2,10,0,-45,-45,1,970.29,1
3,1,2,3,1,74,2,40,1,-45,-45,1,3840.97,1
3,1,2,4,1,74,2,30,1,-45,-45,1,1297.27,1
3,1,2,5,1,74,2,10,1,-45,-45,1,1967.1,1
3,1,2,6,1,74,2,20,1,-45,-45,1,4177.46,1
3,1,3,1,1,74,2,30,0,-45,-45,1,921.49,1
3,1,3,2,1,74,2,30,0,-45,-45,1,2434.87,1
3,1,3,3,1,74,2,30,0,-45,-45,1,3270.54,1
3,1,3,4,1,74,2,30,0,45,45,1,827.36,1
3,1,3,5,1,74,2,20,1,-45,-45,1,1921.77,1
3,1,3,6,1,74,2,10,1,45,45,1,1188.68,1
3,1,3,7,1,74,2,30,1,-45,-45,1,2642.91,1
3,1,3,8,1,74,2,40,1,45,45,1,926.78,1
3,1,4,1,1,55.5,1.5,20,0,45,45,1,1335.19,1
3,1,4,2,1,55.5,1.5,20,0,-45,-45,1,1769.09,1
3,1,4,3,1,55.5,1.5,20,0,-45,-45,1,899.1,1
3,1,4,4,1,55.5,1.5,40,1,45,45,1,2372.73,1
3,1,4,5,1,55.5,1.5,10,1,45,45,1,680.32,1
3,1,4,6,1,55.5,1.5,30,1,-45,-45,1,797.79,1
3,1,4,7,1,55.5,1.5,20,1,45,45,1,907.21,1
3,1,5,1,1,74,2,40,0,45,45,1,3715.61,1
3,1,5,2,1,74,2,40,0,-45,-45,1,1493.14,1
3,1,5,3,1,74,2,20,1,-45,-45,1,860.16,1
3,1,5,4,1,74,2,30,1,-45,-45,1,812.02,1
3,1,5,5,1,74,2,40,1,-45,-45,1,3489.81,1
3,1,5,6,1,74,2,10,1,-45,-45,1,2088.03,1
3,1,6,1,1,55.5,1.5,30,0,-45,-45,1,780.07,1
3,1,6,2,1,55.5,1.5,30,0,-45,-45,1,2979.83,1
3,1,6,3,1,55.5,1.5,30,0,-45,-45,1,1105.76,1
3,1,6,4,1,55.5,1.5,30,0,-45,-45,1,1681.59,1
3,1,6,5,1,55.5,1.5,30,1,45,45,1,1396.76,1
3,1,6,6,1,55.5,1.5,20,1,-45,-45,1,1061.61,1
3,1,6,7,1,55.5,1.5,10,1,-45,-45,1,1667.04,1
3,1,6,8,1,55.5,1.5,40,1,45,45,1,1220.24,1
3,1,7,1,1,55.5,1.5,40,0,-45,-45,1,1945.84,1
3,1,7,2,1,55.5,1.5,40,0,-45,-45,1,1254.35,1
3,1,7,3,1,55.5,1.5,40,0,-45,-45,1,1129.46,1
3,1,7,4,1,55.5,1.5,30,1,45,45,1,809.22,1
3,1,7,5,1,55.5,1.5,20,1,-45,-45,1,681.96,1
3,1,7,6,1,55.5,1.5,10,1,-45,-45,1,885.82,1
3,1,7,7,1,55.5,1.5,40,1,45,45,1,2301.89,1
3,1,8,1,1,74,2,20,0,45,45,1,1674.4,1
3,1,8,2,1,74,2,20,0,45,45,1,4874.76,1
3,1,8,3,1,74,2,20,0,45,45,1,2310.62,1
3,1,8,4,1,74,2,40,1,45,45,1,5189.09,1
3,1,8,5,1,74,2,10,1,45,45,1,807.99,1
3,1,8,6,1,74,2,30,1,-45,-45,1,3957.9,1
3,1,8,7,1,74,2,20,1,-45,-45,1,7534.3,1
3,2,9,1,2,111,3,10,0,-45,-45,1,1489.17,0
3,2,9,2,2,111,3,10,0,45,45,1,1164.1,0
3,2,9,3,2,74,2,40,1,45,45,1,2469.94,0
3,2,9,4,2,92.5,2.5,10,1,45,45,1,1412.09,0
3,2,9,5,2,55.5,1.5,30,1,-45,-45,1,3150.86,0
3,2,9,6,2,111,3,20,1,45,45,1,1894.88,0
3,2,10,1,2,74,2,40,0,-45,-45,1,2457.99,0
3,2,10,2,2,74,2,40,0,45,45,1,407.97,0
3,2,10,3,2,74,2,40,0,-45,-45,1,8754.63,0
3,2,10,4,2,92.5,2.5,20,1,-45,-45,1,3967.23,0
3,2,10,5,2,55.5,1.5,10,1,45,45,1,1278.22,0
3,2,10,6,2,111,3,40,1,45,45,1,2047.94,0
3,2,10,7,2,74,2,30,1,-45,-45,1,3828,0
3,2,11,1,2,55.5,1.5,40,0,-45,-45,1,1761.31,0
3,2,11,2,2,55.5,1.5,40,0,45,45,1,1370.63,0
3,2,11,3,2,55.5,1.5,40,0,-45,-45,1,1328.89,0
3,2,11,4,2,111,3,40,1,45,45,1,1547.16,0
3,2,11,5,2,92.5,2.5,30,1,-45,-45,1,2244.87,0
3,2,11,6,2,55.5,1.5,10,1,45,45,1,760.17,0
3,2,11,7,2,74,2,20,1,45,45,1,825.14,0
3,2,12,1,1,92.5,2.5,10,0,45,45,1,3399.34,0
3,2,12,2,1,92.5,2.5,10,0,45,45,1,1677.17,0
3,2,12,3,1,92.5,2.5,10,0,-45,-45,1,1360.64,0
3,2,12,4,1,92.5,2.5,10,0,45,45,1,1995.3,0
3,2,12,5,1,92.5,2.5,10,1,45,45,1,1765.59,0
3,2,12,6,1,92.5,2.5,40,1,45,45,1,13948.7,0
3,2,12,7,1,92.5,2.5,30,1,-45,-45,1,2739.88,0
3,2,12,8,1,92.5,2.5,20,1,45,45,1,2589.54,0
3,2,13,1,1,92.5,2.5,30,0,45,45,1,3602.11,0
3,2,13,2,1,92.5,2.5,30,0,45,45,1,2351.59,0
3,2,13,3,1,92.5,2.5,30,0,45,45,1,4095.51,0
3,2,13,4,1,92.5,2.5,30,0,-45,-45,1,1214.27,0
3,2,13,5,1,92.5,2.5,10,1,45,45,1,1177.56,0
3,2,13,6,1,92.5,2.5,40,1,-45,-45,1,2002.53,0
3,2,13,7,1,92.5,2.5,30,1,45,45,1,1654.84,0
3,2,13,8,1,92.5,2.5,20,1,45,45,1,2304.22,0
3,2,14,1,1,111,3,30,0,-45,-45,1,1328.1,0
3,2,14,2,1,111,3,30,0,45,45,1,1809.88,0
3,2,14,3,1,111,3,30,0,45,45,1,5335.36,0
3,2,14,4,1,111,3,30,0,-45,-45,1,1698.03,0
3,2,14,5,1,111,3,10,1,45,45,1,1878.08,0
3,2,14,6,1,111,3,30,1,-45,-45,1,4400.18,0
3,2,14,7,1,111,3,20,1,-45,-45,1,1861.25,0
3,2,14,8,1,111,3,40,1,-45,-45,1,2604.25,0
3,2,15,1,1,74,2,30,0,45,45,1,1010.63,0
3,2,15,2,1,74,2,30,0,-45,-45,1,1967.35,0
3,2,15,3,1,74,2,30,0,45,45,1,3440.47,0
3,2,15,4,1,74,2,30,0,-45,-45,1,2846.47,0
3,2,15,5,1,74,2,30,1,-45,-45,1,2597.6,0
3,2,15,6,1,74,2,10,1,-45,-45,1,1709.08,0
3,2,15,7,1,74,2,40,1,45,45,1,5090,0
3,2,15,8,1,74,2,20,1,-45,-45,1,2577.88,0
3,2,16,1,1,92.5,2.5,40,0,45,45,1,2063,0
3,2,16,2,1,92.5,2.5,40,0,45,45,1,5545.41,0
3,2,16,3,1,92.5,2.5,40,0,45,45,1,2958.67,0
3,2,16,4,1,92.5,2.5,40,0,-45,-45,1,1160.08,0
3,2,16,5,1,92.5,2.5,30,1,45,45,1,2471.1,0
3,2,16,6,1,92.5,2.5,40,1,45,45,1,2572.62,0
3,2,16,7,1,92.5,2.5,10,1,-45,-45,1,2771.84,0
3,2,16,8,1,92.5,2.5,20,1,45,45,1,2005.11,0
3,3,17,1,2,55.5,1.5,30,0,45,45,1,2194.94,0
3,3,17,2,2,55.5,1.5,30,0,45,45,1,821.02,0
3,3,17,3,2,55.5,1.5,30,0,45,45,1,1061.97,0
3,3,17,4,2,55.5,1.5,30,0,-45,-45,1,1191.08,0
3,3,17,5,2,92.5,2.5,30,1,45,45,1,4412.84,0
3,3,17,6,2,74,2,40,1,-45,-45,1,2538.71,0
3,3,17,7,2,111,3,10,1,-45,-45,1,2191.14,0
3,3,17,8,2,55.5,1.5,20,1,45,45,1,2163.03,0
3,3,18,1,1,55.5,1.5,30,0,45,45,1,1805.29,0
3,3,18,2,1,55.5,1.5,30,0,-45,-45,1,2201.95,0
3,3,18,3,1,55.5,1.5,30,0,45,45,1,1616.46,0
3,3,18,4,1,55.5,1.5,30,0,45,45,1,1689.27,0
3,3,18,5,1,55.5,1.5,30,1,-45,-45,1,1569.73,0
3,3,18,6,1,55.5,1.5,40,1,-45,-45,1,1045.23,0
3,3,18,7,1,55.5,1.5,20,1,-45,-45,1,2072.89,0
3,3,18,8,1,55.5,1.5,10,1,-45,-45,1,1550.58,0
3,3,19,1,1,92.5,2.5,10,0,45,45,1,2375.67,0
3,3,19,2,1,92.5,2.5,10,0,45,45,1,1075.4,0
3,3,19,3,1,92.5,2.5,30,1,-45,-45,1,3728.75,0
3,3,19,4,1,92.5,2.5,40,1,-45,-45,1,1218.02,0
3,3,19,5,1,92.5,2.5,20,1,45,45,1,4169.07,0
3,3,19,6,1,92.5,2.5,10,1,-45,-45,1,2146.95,0
3,3,20,1,2,92.5,2.5,30,0,45,45,1,3393.17,0
3,3,20,2,2,92.5,2.5,30,0,45,45,1,5086.19,0
3,3,20,3,2,92.5,2.5,30,0,45,45,1,5603.52,0
3,3,20,4,2,111,3,10,1,45,45,1,1987.3,0
3,3,20,5,2,55.5,1.5,30,1,-45,-45,1,1465.82,0
3,3,20,6,2,92.5,2.5,40,1,-45,-45,1,3586.41,0
3,3,20,7,2,74,2,20,1,-45,-45,1,1266.77,0
3,3,21,1,1,111,3,40,0,-45,-45,1,1923.24,0
3,3,21,2,1,111,3,40,0,45,45,1,2982.07,0
3,3,21,3,1,111,3,40,0,-45,-45,1,1913.07,0
3,3,21,4,1,111,3,40,1,45,45,1,3942.43,0
3,3,21,5,1,111,3,20,1,-45,-45,1,2659.88,0
3,3,21,6,1,111,3,10,1,-45,-45,1,1239.74,0
3,3,21,7,1,111,3,30,1,45,45,1,827.7,0
3,3,22,1,1,92.5,2.5,40,0,-45,-45,1,806.48,0
3,3,22,2,1,92.5,2.5,40,0,45,45,1,2000.9,0
3,3,22,3,1,92.5,2.5,40,0,-45,-45,1,6732.41,0
3,3,22,4,1,92.5,2.5,20,1,-45,-45,1,868.42,0
3,3,22,5,1,92.5,2.5,30,1,-45,-45,1,2925.94,0
3,3,22,6,1,92.5,2.5,40,1,-45,-45,1,3325.84,0
3,3,22,7,1,92.5,2.5,10,1,-45,-45,1,1194.66,0
3,3,23,1,1,55.5,1.5,40,0,45,45,1,1390.07,0
3,3,23,2,1,55.5,1.5,40,0,-45,-45,1,1329.1,0
3,3,23,3,1,55.5,1.5,40,0,45,45,1,2707.14,0
3,3,23,4,1,55.5,1.5,40,0,-45,-45,1,1179.35,0
3,3,23,5,1,55.5,1.5,40,1,-45,-45,1,956.19,0
3,3,23,6,1,55.5,1.5,10,1,45,45,1,2179.18,0
3,3,23,7,1,55.5,1.5,30,1,45,45,1,1308.08,0
3,3,23,8,1,55.5,1.5,20,1,-45,-45,1,2118.84,0
3,3,24,1,1,74,2,10,0,-45,-45,1,1297.04,0
3,3,24,2,1,74,2,10,0,-45,-45,1,891.84,0
3,3,24,3,1,74,2,10,0,-45,-45,1,1806.34,0
3,3,24,4,1,74,2,10,1,-45,-45,1,1558.68,0
3,3,24,5,1,74,2,40,1,-45,-45,1,2625.57,0
3,3,24,6,1,74,2,20,1,-45,-45,1,1692.52,0
3,3,24,7,1,74,2,30,1,45,45,1,1101.65,0
3,4,25,1,2,92.5,2.5,10,0,-45,-45,1,1262.69,0
3,4,25,2,2,92.5,2.5,10,0,-45,-45,1,2425.77,0
3,4,25,3,2,74,2,20,1,45,45,1,2407.85,0
3,4,25,4,2,55.5,1.5,10,1,45,45,1,1403.47,0
3,4,25,5,2,92.5,2.5,30,1,45,45,1,4365.43,0
3,4,25,6,2,111,3,40,1,-45,-45,1,1066.96,0
3,4,26,1,2,74,2,10,0,-45,-45,1,1424.16,0
3,4,26,2,2,74,2,10,0,45,45,1,997.31,0
3,4,26,3,2,74,2,10,0,45,45,1,1110.77,0
3,4,26,4,2,74,2,10,0,-45,-45,1,1998.08,0
3,4,26,5,2,55.5,1.5,10,1,-45,-45,1,1368.37,0
3,4,26,6,2,74,2,20,1,-45,-45,1,1238.96,0
3,4,26,7,2,92.5,2.5,40,1,45,45,1,3689.79,0
3,4,26,8,2,111,3,30,1,-45,-45,1,2628.32,0
3,4,27,1,2,92.5,2.5,30,0,45,45,1,2501.61,0
3,4,27,2,2,92.5,2.5,30,0,-45,-45,1,1812.51,0
3,4,27,3,2,74,2,40,1,45,45,1,5435.98,0
3,4,27,4,2,92.5,2.5,30,1,45,45,1,3203.56,0
3,4,27,5,2,55.5,1.5,10,1,-45,-45,1,896.31,0
3,4,27,6,2,111,3,20,1,45,45,1,3356.08,0
3,4,28,1,2,92.5,2.5,10,0,-45,-45,1,1325.37,0
3,4,28,2,2,92.5,2.5,10,0,45,45,1,1206.39,0
3,4,28,3,2,92.5,2.5,10,0,-45,-45,1,1851.11,0
3,4,28,4,2,92.5,2.5,10,0,-45,-45,1,1427.66,0
3,4,28,5,2,74,2,30,1,45,45,1,5521.06,0
3,4,28,6,2,111,3,40,1,45,45,1,1615.14,0
3,4,28,7,2,55.5,1.5,10,1,-45,-45,1,1125.38,0
3,4,28,8,2,92.5,2.5,20,1,-45,-45,1,3514.52,0
3,4,29,1,1,74,2,20,0,-45,-45,1,2012.45,0
3,4,29,2,1,74,2,20,0,-45,-45,1,1571.51,0
3,4,29,3,1,74,2,20,1,45,45,1,2650.74,0
3,4,29,4,1,74,2,10,1,-45,-45,1,2047.35,0
3,4,29,5,1,74,2,30,1,-45,-45,1,4533.64,0
3,4,29,6,1,74,2,40,1,45,45,1,13971.63,0
3,4,30,1,2,111,3,20,0,-45,-45,1,696.29,0
3,4,30,2,2,111,3,20,0,45,45,1,2637.86,0
3,4,30,3,2,111,3,20,0,45,45,1,1441.76,0
3,4,30,4,2,111,3,20,0,45,45,1,1457.39,0
3,4,30,5,2,92.5,2.5,20,1,45,45,1,1141.08,0
3,4,30,6,2,111,3,30,1,-45,-45,1,994.21,0
3,4,30,7,2,74,2,40,1,-45,-45,1,1689.85,0
3,4,30,8,2,55.5,1.5,10,1,-45,-45,1,1039.1,0
3,4,31,1,1,74,2,10,0,-45,-45,1,1522.54,0
3,4,31,2,1,74,2,10,0,-45,-45,1,1254.91,0
3,4,31,3,1,74,2,40,1,-45,-45,1,1197.19,0
3,4,31,4,1,74,2,10,1,-45,-45,1,816.32,0
3,4,31,5,1,74,2,20,1,-45,-45,1,1375.2,0
3,4,31,6,1,74,2,30,1,-45,-45,1,2609.77,0
3,4,32,1,1,111,3,30,0,-45,-45,1,6181.54,0
3,4,32,2,1,111,3,30,0,-45,-45,1,2038.63,0
3,4,32,3,1,111,3,30,0,-45,-45,1,2559.99,0
3,4,32,4,1,111,3,20,1,-45,-45,1,1586.63,0
3,4,32,5,1,111,3,30,1,45,45,1,1336.96,0
3,4,32,6,1,111,3,40,1,-45,-45,1,3874.56,0
3,4,32,7,1,111,3,10,1,-45,-45,1,1372.61,0
3,5,33,1,1,111,3,40,0,45,45,1,993.11,0
3,5,33,2,1,111,3,40,0,45,45,1,2842.15,0
3,5,33,3,1,111,3,30,1,45,45,1,1387.22,0
3,5,33,4,1,111,3,40,1,-45,-45,1,4904.54,0
3,5,33,5,1,111,3,10,1,-45,-45,1,1171.82,0
3,5,33,6,1,111,3,20,1,-45,-45,1,2588.47,0
3,5,34,1,2,92.5,2.5,20,0,-45,-45,1,2697.4,0
3,5,34,2,2,92.5,2.5,20,0,-45,-45,1,1003.8,0
3,5,34,3,2,92.5,2.5,20,0,45,45,1,1142.11,0
3,5,34,4,2,111,3,20,1,45,45,1,973.93,0
3,5,34,5,2,92.5,2.5,30,1,-45,-45,1,4669.26,0
3,5,34,6,2,74,2,40,1,-45,-45,1,1023.68,0
3,5,34,7,2,55.5,1.5,10,1,45,45,1,1420.55,0
3,5,35,1,1,74,2,30,0,45,45,1,949.23,0
3,5,35,2,1,74,2,30,0,45,45,1,3143.34,0
3,5,35,3,1,74,2,30,0,45,45,1,1135.76,0
3,5,35,4,1,74,2,30,0,45,45,1,1328.34,0
3,5,35,5,1,74,2,10,1,45,45,1,1441.95,0
3,5,35,6,1,74,2,30,1,45,45,1,1727.15,0
3,5,35,7,1,74,2,40,1,45,45,1,8367.05,0
3,5,35,8,1,74,2,20,1,-45,-45,1,2791.2,0
3,5,36,1,2,55.5,1.5,30,0,45,45,1,2135.32,0
3,5,36,2,2,55.5,1.5,30,0,-45,-45,1,702.58,0
3,5,36,3,2,55.5,1.5,30,0,45,45,1,604.76,0
3,5,36,4,2,74,2,40,1,-45,-45,1,3997.34,0
3,5,36,5,2,55.5,1.5,30,1,-45,-45,1,1463.16,0
3,5,36,6,2,111,3,20,1,45,45,1,1658.54,0
3,5,36,7,2,92.5,2.5,10,1,45,45,1,1317.61,0
3,5,37,1,1,111,3,20,0,45,45,1,1819.58,0
3,5,37,2,1,111,3,20,0,-45,-45,1,1030.06,0
3,5,37,3,1,111,3,20,0,-45,-45,1,766.34,0
3,5,37,4,1,111,3,20,0,45,45,1,1420.3,0
3,5,37,5,1,111,3,20,1,-45,-45,1,721.86,0
3,5,37,6,1,111,3,40,1,45,45,1,1032.01,0
3,5,37,7,1,111,3,10,1,45,45,1,1098.81,0
3,5,37,8,1,111,3,30,1,-45,-45,1,1048.62,0
3,5,38,1,2,111,3,20,0,-45,-45,1,1882.62,0
3,5,38,2,2,111,3,20,0,45,45,1,1549.84,0
3,5,38,3,2,92.5,2.5,10,1,-45,-45,1,1214.74,0
3,5,38,4,2,55.5,1.5,30,1,-45,-45,1,2144.17,0
3,5,38,5,2,111,3,20,1,-45,-45,1,1573.92,0
3,5,38,6,2,74,2,40,1,45,45,1,2857.34,0
3,5,39,1,2,55.5,1.5,10,0,45,45,1,1733.95,0
3,5,39,2,2,55.5,1.5,10,0,-45,-45,1,1036.06,0
3,5,39,3,2,111,3,30,1,45,45,1,3829.3,0
3,5,39,4,2,92.5,2.5,20,1,45,45,1,3056.41,0
3,5,39,5,2,74,2,40,1,45,45,1,2458.67,0
3,5,39,6,2,55.5,1.5,10,1,45,45,1,914.65,0
3,5,40,1,2,55.5,1.5,20,0,45,45,1,986.88,0
3,5,40,2,2,55.5,1.5,20,0,45,45,1,926.2,0
3,5,40,3,2,55.5,1.5,20,0,45,45,1,968.21,0
3,5,40,4,2,55.5,1.5,20,0,45,45,1,1376.63,0
3,5,40,5,2,111,3,40,1,-45,-45,1,1647.01,0
3,5,40,6,2,92.5,2.5,10,1,-45,-45,1,1477.72,0
3,5,40,7,2,55.5,1.5,30,1,-45,-45,1,978.98,0
3,5,40,8,2,74,2,20,1,45,45,1,2080.09,0
3,6,41,1,2,111,3,30,0,45,45,1,3227.36,0
3,6,41,2,2,111,3,30,0,-45,-45,1,2298.25,0
3,6,41,3,2,92.5,2.5,40,1,45,45,1,1312.77,0
3,6,41,4,2,111,3,30,1,45,45,1,1449.39,0
3,6,41,5,2,74,2,20,1,45,45,1,2256.19,0
3,6,41,6,2,55.5,1.5,10,1,-45,-45,1,1154.92,0
3,6,42,1,1,111,3,10,0,-45,-45,1,1171.62,0
3,6,42,2,1,111,3,10,0,45,45,1,1084.19,0
3,6,42,3,1,111,3,10,1,45,45,1,1331.5,0
3,6,42,4,1,111,3,40,1,-45,-45,1,2752.36,0
3,6,42,5,1,111,3,20,1,-45,-45,1,1540.49,0
3,6,42,6,1,111,3,30,1,-45,-45,1,756.34,0
3,6,43,1,2,111,3,40,0,-45,-45,1,1148.58,0
3,6,43,2,2,111,3,40,0,45,45,1,1291.34,0
3,6,43,3,2,111,3,40,0,45,45,1,1347.99,0
3,6,43,4,2,92.5,2.5,30,1,-45,-45,1,1975.22,0
3,6,43,5,2,111,3,10,1,-45,-45,1,797.76,0
3,6,43,6,2,74,2,20,1,-45,-45,1,2220.18,0
3,6,43,7,2,55.5,1.5,40,1,-45,-45,1,1992.59,0
3,6,44,1,1,55.5,1.5,10,0,-45,-45,1,658.73,0
3,6,44,2,1,55.5,1.5,10,0,-45,-45,1,3358.77,0
3,6,44,3,1,55.5,1.5,10,0,45,45,1,1324.97,0
3,6,44,4,1,55.5,1.5,10,0,-45,-45,1,1122.53,0
3,6,44,5,1,55.5,1.5,10,1,-45,-45,1,928.76,0
3,6,44,6,1,55.5,1.5,40,1,-45,-45,1,978.73,0
3,6,44,7,1,55.5,1.5,30,1,-45,-45,1,1778.43,0
3,6,44,8,1,55.5,1.5,20,1,-45,-45,1,1444.9,0
3,6,45,1,2,111,3,30,0,45,45,1,6415.05,0
3,6,45,2,2,111,3,30,0,45,45,1,1256.38,0
3,6,45,3,2,111,3,30,0,-45,-45,1,1908.35,0
3,6,45,4,2,111,3,30,0,-45,-45,1,797.87,0
3,6,45,5,2,55.5,1.5,10,1,-45,-45,1,1205.68,0
3,6,45,6,2,111,3,30,1,45,45,1,2248.9,0
3,6,45,7,2,92.5,2.5,20,1,45,45,1,2688,0
3,6,45,8,2,74,2,40,1,-45,-45,1,3234.28,0
3,6,46,1,2,55.5,1.5,20,0,45,45,1,771.65,0
3,6,46,2,2,55.5,1.5,20,0,45,45,1,2423.46,0
3,6,46,3,2,55.5,1.5,20,0,45,45,1,1947.15,0
3,6,46,4,2,55.5,1.5,20,0,45,45,1,1061.78,0
3,6,46,5,2,92.5,2.5,10,1,45,45,1,1154.91,0
3,6,46,6,2,111,3,20,1,-45,-45,1,2472.92,0
3,6,46,7,2,55.5,1.5,40,1,45,45,1,1202.53,0
3,6,46,8,2,74,2,30,1,-45,-45,1,2497.98,0
3,6,47,1,1,55.5,1.5,10,0,45,45,1,829.53,0
3,6,47,2,1,55.5,1.5,10,0,45,45,1,932.22,0
3,6,47,3,1,55.5,1.5,10,0,45,45,1,696.48,0
3,6,47,4,1,55.5,1.5,40,1,45,45,1,1226.98,0
3,6,47,5,1,55.5,1.5,30,1,45,45,1,1892.52,0
3,6,47,6,1,55.5,1.5,20,1,45,45,1,584.1,0
3,6,47,7,1,55.5,1.5,10,1,45,45,1,1052.4,0
3,6,48,1,2,55.5,1.5,10,0,-45,-45,1,1247.48,0
3,6,48,2,2,55.5,1.5,10,0,45,45,1,778.13,0
3,6,48,3,2,111,3,20,1,45,45,1,1171.77,0
3,6,48,4,2,74,2,30,1,-45,-45,1,2561.36,0
3,6,48,5,2,55.5,1.5,10,1,-45,-45,1,826.53,0
3,6,48,6,2,92.5,2.5,40,1,45,45,1,3202.79,0
3,7,49,1,1,55.5,1.5,40,0,-45,-45,1,3614.77,0
3,7,49,2,1,55.5,1.5,40,0,45,45,1,1783.65,0
3,7,49,3,1,55.5,1.5,40,0,-45,-45,1,1910.87,0
3,7,49,4,1,55.5,1.5,40,0,-45,-45,1,3639.32,0
3,7,49,5,1,55.5,1.5,30,1,45,45,1,1201.53,0
3,7,49,6,1,55.5,1.5,20,1,-45,-45,1,746.67,0
3,7,49,7,1,55.5,1.5,40,1,45,45,1,1472.06,0
3,7,49,8,1,55.5,1.5,10,1,-45,-45,1,870.01,0
3,7,50,1,2,111,3,40,0,-45,-45,1,3874.15,0
3,7,50,2,2,111,3,40,0,-45,-45,1,1596.69,0
3,7,50,3,2,92.5,2.5,10,1,-45,-45,1,1134.86,0
3,7,50,4,2,74,2,30,1,45,45,1,2028.01,0
3,7,50,5,2,55.5,1.5,40,1,-45,-45,1,1674.35,0
3,7,50,6,2,111,3,20,1,-45,-45,1,1942.75,0
3,7,51,1,1,92.5,2.5,20,0,45,45,1,2152.99,0
3,7,51,2,1,92.5,2.5,20,0,-45,-45,1,799.64,0
3,7,51,3,1,92.5,2.5,20,0,-45,-45,1,1021.09,0
3,7,51,4,1,92.5,2.5,20,0,-45,-45,1,1987.79,0
3,7,51,5,1,92.5,2.5,10,1,45,45,1,911.11,0
3,7,51,6,1,92.5,2.5,20,1,-45,-45,1,935.11,0
3,7,51,7,1,92.5,2.5,30,1,-45,-45,1,2080.1,0
3,7,51,8,1,92.5,2.5,40,1,45,45,1,2501.44,0
3,7,52,1,2,74,2,20,0,-45,-45,1,1369.29,0
3,7,52,2,2,74,2,20,0,-45,-45,1,1800.01,0
3,7,52,3,2,111,3,20,1,-45,-45,1,2661.58,0
3,7,52,4,2,55.5,1.5,10,1,-45,-45,1,780.38,0
3,7,52,5,2,92.5,2.5,40,1,-45,-45,1,4743.64,0
3,7,52,6,2,74,2,30,1,45,45,1,1113.01,0
3,7,53,1,2,74,2,30,0,-45,-45,1,3529.53,0
3,7,53,2,2,74,2,30,0,-45,-45,1,704.23,0
3,7,53,3,2,111,3,40,1,-45,-45,1,3716.84,0
3,7,53,4,2,55.5,1.5,10,1,-45,-45,1,872.44,0
3,7,53,5,2,92.5,2.5,30,1,-45,-45,1,1535.15,0
3,7,53,6,2,74,2,20,1,45,45,1,1216.58,0
3,7,54,1,1,74,2,40,0,45,45,1,3041.86,0
3,7,54,2,1,74,2,40,0,-45,-45,1,2030.36,0
3,7,54,3,1,74,2,40,0,-45,-45,1,3445.78,0
3,7,54,4,1,74,2,40,1,45,45,1,1219.41,0
3,7,54,5,1,74,2,20,1,-45,-45,1,2506.24,0
3,7,54,6,1,74,2,10,1,45,45,1,1189.1,0
3,7,54,7,1,74,2,30,1,45,45,1,2806.26,0
3,7,55,1,1,74,2,40,0,-45,-45,1,1638.56,0
3,7,55,2,1,74,2,40,0,45,45,1,1737.79,0
3,7,55,3,1,74,2,40,1,45,45,1,1142.26,0
3,7,55,4,1,74,2,30,1,45,45,1,1677.26,0
3,7,55,5,1,74,2,10,1,45,45,1,1497.28,0
3,7,55,6,1,74,2,20,1,45,45,1,1353.17,0
3,7,56,1,2,92.5,2.5,40,0,-45,-45,1,2053.98,0
3,7,56,2,2,92.5,2.5,40,0,-45,-45,1,2199.9,0
3,7,56,3,2,92.5,2.5,40,0,45,45,1,3614.84,0
3,7,56,4,2,92.5,2.5,40,0,-45,-45,1,2748.14,0
3,7,56,5,2,74,2,20,1,-45,-45,1,2049.39,0
3,7,56,6,2,55.5,1.5,40,1,45,45,1,1215.89,0
3,7,56,7,2,92.5,2.5,10,1,-45,-45,1,2507.51,0
3,7,56,8,2,111,3,30,1,45,45,1,975.91,0
3,8,57,1,2,111,3,10,0,-45,-45,1,1319.44,0
3,8,57,2,2,111,3,10,0,-45,-45,1,794.76,0
3,8,57,3,2,111,3,10,0,45,45,1,876.5,0
3,8,57,4,2,111,3,10,0,45,45,1,1028.84,0
3,8,57,5,2,92.5,2.5,30,1,-45,-45,1,3748.79,0
3,8,57,6,2,111,3,40,1,-45,-45,1,6146.51,0
3,8,57,7,2,55.5,1.5,20,1,45,45,1,3438.27,0
3,8,57,8,2,74,2,10,1,-45,-45,1,1552.51,0
3,8,58,1,2,74,2,40,0,-45,-45,1,1705.51,0
3,8,58,2,2,74,2,40,0,45,45,1,2378.26,0
3,8,58,3,2,74,2,40,0,45,45,1,5713.16,0
3,8,58,4,2,92.5,2.5,10,1,45,45,1,2195.36,0
3,8,58,5,2,55.5,1.5,20,1,-45,-45,1,1922.92,0
3,8,58,6,2,111,3,40,1,-45,-45,1,3554.3,0
3,8,58,7,2,74,2,30,1,45,45,1,3167.09,0
3,8,59,1,1,55.5,1.5,20,0,-45,-45,1,957.69,0
3,8,59,2,1,55.5,1.5,20,0,-45,-45,1,1007.55,0
3,8,59,3,1,55.5,1.5,20,0,-45,-45,1,1203.6,0
3,8,59,4,1,55.5,1.5,10,1,-45,-45,1,1171.82,0
3,8,59,5,1,55.5,1.5,20,1,45,45,1,813.37,0
3,8,59,6,1,55.5,1.5,40,1,-45,-45,1,755.63,0
3,8,59,7,1,55.5,1.5,30,1,-45,-45,1,782.95,0
3,8,60,1,2,74,2,30,0,-45,-45,1,2495.35,0
3,8,60,2,2,74,2,30,0,45,45,1,5368.28,0
3,8,60,3,2,92.5,2.5,40,1,-45,-45,1,1724.03,0
3,8,60,4,2,111,3,10,1,45,45,1,851.88,0
3,8,60,5,2,55.5,1.5,20,1,45,45,1,1978.64,0
3,8,60,6,2,74,2,30,1,45,45,1,2598.04,0
3,8,61,1,1,92.5,2.5,20,0,45,45,1,784.87,0
3,8,61,2,1,92.5,2.5,20,0,45,45,1,1291,0
3,8,61,3,1,92.5,2.5,40,1,45,45,1,1802.82,0
3,8,61,4,1,92.5,2.5,10,1,-45,-45,1,777.53,0
3,8,61,5,1,92.5,2.5,30,1,-45,-45,1,1350.69,0
3,8,61,6,1,92.5,2.5,20,1,-45,-45,1,1577.31,0
3,8,62,1,2,74,2,20,0,45,45,1,926.71,0
3,8,62,2,2,74,2,20,0,-45,-45,1,1337.11,0
3,8,62,3,2,74,2,20,0,45,45,1,1507.31,0
3,8,62,4,2,74,2,20,0,45,45,1,797.06,0
3,8,62,5,2,55.5,1.5,20,1,45,45,1,1189.17,0
3,8,62,6,2,111,3,40,1,45,45,1,820.77,0
3,8,62,7,2,92.5,2.5,10,1,-45,-45,1,973.78,0
3,8,62,8,2,74,2,30,1,-45,-45,1,766.61,0
3,8,63,1,1,74,2,20,0,-45,-45,1,1991.3,0
3,8,63,2,1,74,2,20,0,-45,45,0,1175.54,0
3,8,63,3,1,74,2,20,0,45,45,1,1318.26,0
3,8,63,4,1,74,2,20,0,45,45,1,3830.27,0
3,8,63,5,1,74,2,30,1,-45,-45,1,1045.07,0
3,8,63,6,1,74,2,40,1,45,45,1,2658.11,0
3,8,63,7,1,74,2,20,1,-45,-45,1,3372.81,0
3,8,63,8,1,74,2,10,1,45,45,1,3065.33,0
3,8,64,1,1,55.5,1.5,20,0,45,45,1,2866.9,0
3,8,64,2,1,55.5,1.5,20,0,45,45,1,958.9,0
3,8,64,3,1,55.5,1.5,20,0,-45,-45,1,1317.78,0
3,8,64,4,1,55.5,1.5,20,0,45,45,1,1070.8,0
3,8,64,5,1,55.5,1.5,20,1,45,45,1,1792.17,0
3,8,64,6,1,55.5,1.5,40,1,-45,-45,1,2130.4,0
3,8,64,7,1,55.5,1.5,10,1,-45,-45,1,823.3,0
3,8,64,8,1,55.5,1.5,30,1,45,45,1,1189.16,0
3,9,65,1,1,92.5,2.5,30,0,45,45,1,3173.69,0
3,9,65,2,1,92.5,2.5,30,0,-45,-45,1,3198.45,0
3,9,65,3,1,92.5,2.5,30,1,-45,-45,1,3555.74,0
3,9,65,4,1,92.5,2.5,10,1,45,45,1,2418.13,0
3,9,65,5,1,92.5,2.5,40,1,-45,-45,1,2922.08,0
3,9,65,6,1,92.5,2.5,20,1,-45,-45,1,1451.56,0
3,9,66,1,2,55.5,1.5,40,0,-45,-45,1,1095.65,0
3,9,66,2,2,55.5,1.5,40,0,45,45,1,1007.88,0
3,9,66,3,2,74,2,40,1,45,45,1,1477.77,0
3,9,66,4,2,55.5,1.5,20,1,-45,-45,1,2133.88,0
3,9,66,5,2,111,3,30,1,45,45,1,1413.26,0
3,9,66,6,2,92.5,2.5,10,1,-45,-45,1,772.72,0
3,9,67,1,1,55.5,1.5,30,0,45,45,1,866.48,0
3,9,67,2,1,55.5,1.5,30,0,45,45,1,2693.6,0
3,9,67,3,1,55.5,1.5,20,1,45,45,1,2181.54,0
3,9,67,4,1,55.5,1.5,40,1,-45,-45,1,1695.36,0
3,9,67,5,1,55.5,1.5,10,1,45,45,1,1278.25,0
3,9,67,6,1,55.5,1.5,30,1,-45,-45,1,1223.85,0
3,9,68,1,2,92.5,2.5,20,0,-45,-45,1,1759.34,0
3,9,68,2,2,92.5,2.5,20,0,-45,-45,1,1782.61,0
3,9,68,3,2,92.5,2.5,20,0,45,45,1,3151.2,0
3,9,68,4,2,92.5,2.5,20,0,45,45,1,3479.4,0
3,9,68,5,2,74,2,10,1,45,45,1,773.06,0
3,9,68,6,2,55.5,1.5,30,1,-45,-45,1,2283.07,0
3,9,68,7,2,92.5,2.5,40,1,-45,-45,1,781.56,0
3,9,68,8,2,111,3,20,1,-45,-45,1,766.7,0
3,9,69,1,2,92.5,2.5,40,0,-45,-45,1,1166.83,0
3,9,69,2,2,92.5,2.5,40,0,-45,-45,1,970.15,0
3,9,69,3,2,92.5,2.5,40,0,45,45,1,3131.31,0
3,9,69,4,2,74,2,10,1,45,45,1,2348.15,0
3,9,69,5,2,111,3,20,1,-45,-45,1,2059.17,0
3,9,69,6,2,92.5,2.5,40,1,45,45,1,2729.99,0
3,9,69,7,2,55.5,1.5,30,1,-45,-45,1,1989.16,0
3,9,70,1,1,111,3,20,0,-45,-45,1,938.59,0
3,9,70,2,1,111,3,20,0,-45,-45,1,1171.21,0
3,9,70,3,1,111,3,20,0,45,45,1,1867.51,0
3,9,70,4,1,111,3,10,1,45,45,1,1106.47,0
3,9,70,5,1,111,3,30,1,45,45,1,2096.31,0
3,9,70,6,1,111,3,20,1,-45,-45,1,2686.17,0
3,9,70,7,1,111,3,40,1,45,45,1,1168.15,0
3,9,71,1,1,111,3,10,0,45,45,1,882,0
3,9,71,2,1,111,3,10,0,-45,-45,1,2148.4,0
3,9,71,3,1,111,3,20,1,45,45,1,1366.04,0
3,9,71,4,1,111,3,30,1,-45,-45,1,910.63,0
3,9,71,5,1,111,3,40,1,45,45,1,1388.49,0
3,9,71,6,1,111,3,10,1,-45,-45,1,1341.61,0
3,9,72,1,2,74,2,10,0,45,45,1,806.46,0
3,9,72,2,2,74,2,10,0,45,45,1,1685.73,0
3,9,72,3,2,111,3,20,1,45,45,1,1073.99,0
3,9,72,4,2,74,2,10,1,45,45,1,671.24,0
3,9,72,5,2,55.5,1.5,40,1,-45,-45,1,1009.84,0
3,9,72,6,2,92.5,2.5,30,1,-45,-45,1,1639.73,0
4,1,1,1,1,55.5,1.5,30,0,45,45,1,2899.65,1
4,1,1,2,1,55.5,1.5,30,0,45,45,1,1732.55,1
4,1,1,3,1,55.5,1.5,30,0,-45,-45,1,1195.66,1
4,1,1,4,1,55.5,1.5,30,1,45,45,1,2850.05,1
4,1,1,5,1,55.5,1.5,20,1,-45,-45,1,1072.26,1
4,1,1,6,1,55.5,1.5,40,1,-45,-45,1,2226.48,1
4,1,1,7,1,55.5,1.5,10,1,45,45,1,1196.63,1
4,1,2,1,1,74,2,40,0,-45,-45,1,3097.51,1
4,1,2,2,1,74,2,40,0,-45,-45,1,2947.72,1
4,1,2,3,1,74,2,40,1,-45,-45,1,1321.42,1
4,1,2,4,1,74,2,10,1,-45,-45,1,1524.54,1
4,1,2,5,1,74,2,20,1,45,45,1,1974.69,1
4,1,2,6,1,74,2,30,1,-45,-45,1,1898.8,1
4,1,3,1,1,74,2,20,0,45,45,1,1141.71,1
4,1,3,2,1,74,2,20,0,-45,-45,1,1848.08,1
4,1,3,3,1,74,2,20,0,45,45,1,2397.58,1
4,1,3,4,1,74,2,40,1,45,45,1,1094.65,1
4,1,3,5,1,74,2,20,1,45,45,1,2341.73,1
4,1,3,6,1,74,2,30,1,45,45,1,958.15,1
4,1,3,7,1,74,2,10,1,-45,-45,1,1008.75,1
4,1,4,1,1,74,2,30,0,-45,-45,1,7127.64,1
4,1,4,2,1,74,2,30,0,45,45,1,1961.01,1
4,1,4,3,1,74,2,30,0,-45,-45,1,6583.23,1
4,1,4,4,1,74,2,30,0,-45,-45,1,2279.86,1
4,1,4,5,1,74,2,30,1,45,45,1,1746.71,1
4,1,4,6,1,74,2,20,1,45,45,1,1373.39,1
4,1,4,7,1,74,2,10,1,-45,-45,1,1603.97,1
4,1,4,8,1,74,2,40,1,-45,-45,1,3888.91,1
4,1,5,1,1,55.5,1.5,20,0,45,45,1,1289.38,1
4,1,5,2,1,55.5,1.5,20,0,45,45,1,1860.69,1
4,1,5,3,1,55.5,1.5,20,0,-45,-45,1,1891.97,1
4,1,5,4,1,55.5,1.5,20,0,-45,-45,1,1429.42,1
4,1,5,5,1,55.5,1.5,10,1,45,45,1,1042.44,1
4,1,5,6,1,55.5,1.5,30,1,-45,-45,1,3875.26,1
4,1,5,7,1,55.5,1.5,20,1,45,45,1,1573.12,1
4,1,5,8,1,55.5,1.5,40,1,-45,-45,1,962.54,1
4,1,6,1,1,55.5,1.5,40,0,45,45,1,3532.25,1
4,1,6,2,1,55.5,1.5,40,0,45,45,1,3667.78,1
4,1,6,3,1,55.5,1.5,10,1,-45,-45,1,1279.49,1
4,1,6,4,1,55.5,1.5,20,1,45,45,1,885.26,1
4,1,6,5,1,55.5,1.5,30,1,-45,-45,1,1713.59,1
4,1,6,6,1,55.5,1.5,40,1,-45,-45,1,1072.73,1
4,1,7,1,1,74,2,10,0,45,45,1,937.01,1
4,1,7,2,1,74,2,10,0,45,45,1,2355.26,1
4,1,7,3,1,74,2,40,1,45,45,1,2304.65,1
4,1,7,4,1,74,2,20,1,45,45,1,1289.75,1
4,1,7,5,1,74,2,10,1,45,45,1,2830.04,1
4,1,7,6,1,74,2,30,1,45,45,1,2820.27,1
4,1,8,1,1,55.5,1.5,10,0,-45,-45,1,906.25,1
4,1,8,2,1,55.5,1.5,10,0,-45,-45,1,804.59,1
4,1,8,3,1,55.5,1.5,10,1,45,45,1,872.59,1
4,1,8,4,1,55.5,1.5,40,1,-45,-45,1,1404.99,1
4,1,8,5,1,55.5,1.5,30,1,-45,-45,1,1311.13,1
4,1,8,6,1,55.5,1.5,20,1,45,45,1,1654.17,1
4,2,9,1,2,55.5,1.5,20,0,45,45,1,2351.94,0
4,2,9,2,2,55.5,1.5,20,0,-45,-45,1,1142.17,0
4,2,9,3,2,111,3,20,1,-45,-45,1,1255.81,0
4,2,9,4,2,55.5,1.5,10,1,-45,-45,1,1088.02,0
4,2,9,5,2,74,2,40,1,-45,-45,1,2215.16,0
4,2,9,6,2,92.5,2.5,30,1,45,45,1,2924.9,0
4,2,10,1,2,92.5,2.5,10,0,45,45,1,2610.92,0
4,2,10,2,2,92.5,2.5,10,0,45,45,1,2162.23,0
4,2,10,3,2,92.5,2.5,10,0,-45,-45,1,1342.49,0
4,2,10,4,2,74,2,20,1,-45,-45,1,3731.95,0
4,2,10,5,2,92.5,2.5,10,1,45,45,1,930.58,0
4,2,10,6,2,111,3,40,1,45,45,1,2306.59,0
4,2,10,7,2,55.5,1.5,30,1,-45,-45,1,2238.76,0
4,2,11,1,1,55.5,1.5,30,0,45,45,1,1121.83,0
4,2,11,2,1,55.5,1.5,30,0,45,45,1,1126.29,0
4,2,11,3,1,55.5,1.5,30,0,45,45,1,981.94,0
4,2,11,4,1,55.5,1.5,10,1,-45,-45,1,1247.41,0
4,2,11,5,1,55.5,1.5,30,1,45,45,1,1452.1,0
4,2,11,6,1,55.5,1.5,20,1,45,45,1,668.58,0
4,2,11,7,1,55.5,1.5,40,1,-45,-45,1,883.74,0
4,2,12,1,2,55.5,1.5,10,0,-45,-45,1,984.02,0
4,2,12,2,2,55.5,1.5,10,0,-45,-45,1,751.79,0
4,2,12,3,2,92.5,2.5,30,1,-45,-45,1,1844.37,0
4,2,12,4,2,111,3,20,1,-45,-45,1,1498.09,0
4,2,12,5,2,74,2,40,1,45,45,1,670.97,0
4,2,12,6,2,55.5,1.5,10,1,-45,-45,1,849.34,0
4,2,13,1,2,74,2,10,0,45,45,1,1879.88,0
4,2,13,2,2,74,2,10,0,45,45,1,1666.53,0
4,2,13,3,2,74,2,10,0,-45,-45,1,1661.36,0
4,2,13,4,2,74,2,10,0,45,45,1,1931.15,0
4,2,13,5,2,111,3,30,1,-45,-45,1,2236.38,0
4,2,13,6,2,74,2,10,1,45,45,1,2353.01,0
4,2,13,7,2,92.5,2.5,20,1,-45,-45,1,6033.66,0
4,2,13,8,2,55.5,1.5,40,1,-45,-45,1,1414.88,0
4,2,14,1,2,92.5,2.5,30,0,45,45,1,3421.42,0
4,2,14,2,2,92.5,2.5,30,0,-45,-45,1,854.28,0
4,2,14,3,2,92.5,2.5,30,0,45,45,1,3897.72,0
4,2,14,4,2,92.5,2.5,30,0,-45,-45,1,4693.32,0
4,2,14,5,2,74,2,20,1,45,45,1,2613.73,0
4,2,14,6,2,111,3,30,1,-45,-45,1,3947.3,0
4,2,14,7,2,55.5,1.5,40,1,45,45,1,1786.36,0
4,2,14,8,2,92.5,2.5,10,1,45,45,1,1237.53,0
4,2,15,1,1,92.5,2.5,40,0,-45,-45,1,4467.4,0
4,2,15,2,1,92.5,2.5,40,0,-45,45,0,6954.97,0
4,2,15,3,1,92.5,2.5,40,0,45,45,1,3371,0
4,2,15,4,1,92.5,2.5,40,0,-45,-45,1,6628.84,0
4,2,15,5,1,92.5,2.5,10,1,-45,-45,1,2161.03,0
4,2,15,6,1,92.5,2.5,30,1,45,45,1,1215.97,0
4,2,15,7,1,92.5,2.5,20,1,45,45,1,1962.39,0
4,2,15,8,1,92.5,2.5,40,1,-45,-45,1,2110.08,0
4,2,16,1,2,74,2,10,0,45,45,1,2127.69,0
4,2,16,2,2,74,2,10,0,45,45,1,1924.23,0
4,2,16,3,2,74,2,10,0,45,45,1,1591.74,0
4,2,16,4,2,111,3,10,1,-45,-45,1,1007.41,0
4,2,16,5,2,74,2,30,1,45,45,1,1164.99,0
4,2,16,6,2,55.5,1.5,20,1,-45,-45,1,1036.88,0
4,2,16,7,2,92.5,2.5,40,1,-45,-45,1,4152.68,0
4,3,17,1,2,74,2,20,0,-45,-45,1,1270.18,0
4,3,17,2,2,74,2,20,0,-45,-45,1,1328.62,0
4,3,17,3,2,74,2,20,0,45,45,1,2320.12,0
4,3,17,4,2,111,3,40,1,-45,-45,1,2329.31,0
4,3,17,5,2,74,2,20,1,45,45,1,1383.85,0
4,3,17,6,2,55.5,1.5,10,1,-45,-45,1,1645.4,0
4,3,17,7,2,92.5,2.5,30,1,-45,-45,1,3970.72,0
4,3,18,1,2,55.5,1.5,40,0,45,45,1,2159.4,0
4,3,18,2,2,55.5,1.5,40,0,45,45,1,1921.04,0
4,3,18,3,2,55.5,1.5,40,0,-45,-45,1,2299.84,0
4,3,18,4,2,92.5,2.5,20,1,-45,-45,1,1743.1,0
4,3,18,5,2,74,2,40,1,45,45,1,5564.78,0
4,3,18,6,2,111,3,30,1,-45,-45,1,2341.62,0
4,3,18,7,2,55.5,1.5,10,1,-45,45,0,726.5,0
4,3,19,1,2,111,3,30,0,-45,-45,1,5192.47,0
4,3,19,2,2,111,3,30,0,45,45,1,5960.33,0
4,3,19,3,2,111,3,30,0,45,45,1,2117.52,0
4,3,19,4,2,55.5,1.5,20,1,-45,-45,1,2810.35,0
4,3,19,5,2,111,3,30,1,45,45,1,4517.9,0
4,3,19,6,2,92.5,2.5,10,1,-45,-45,1,1513.31,0
4,3,19,7,2,74,2,40,1,-45,-45,1,3765.42,0
4,3,20,1,2,74,2,40,0,45,45,1,1121.08,0
4,3,20,2,2,74,2,40,0,45,45,1,6294.09,0
4,3,20,3,2,74,2,40,0,45,45,1,972.3,0
4,3,20,4,2,74,2,40,0,-45,-45,1,3885.18,0
4,3,20,5,2,111,3,30,1,-45,-45,1,9978.94,0
4,3,20,6,2,92.5,2.5,40,1,45,45,1,4048.24,0
4,3,20,7,2,74,2,20,1,-45,-45,1,2540.07,0
4,3,20,8,2,55.5,1.5,10,1,45,45,1,4240.53,0
4,3,21,1,2,92.5,2.5,40,0,45,45,1,4802.17,0
4,3,21,2,2,92.5,2.5,40,0,45,45,1,4346.87,0
4,3,21,3,2,92.5,2.5,40,0,-45,-45,1,3283.67,0
4,3,21,4,2,74,2,40,1,-45,-45,1,2698.53,0
4,3,21,5,2,92.5,2.5,20,1,45,-45,0,2771.91,0
4,3,21,6,2,55.5,1.5,10,1,-45,-45,1,2644.73,0
4,3,21,7,2,111,3,30,1,45,45,1,2236.19,0
4,3,22,1,2,92.5,2.5,10,0,45,45,1,997.82,0
4,3,22,2,2,92.5,2.5,10,0,-45,-45,1,1481.12,0
4,3,22,3,2,92.5,2.5,10,0,45,45,1,2005.17,0
4,3,22,4,2,92.5,2.5,10,0,45,45,1,2536.43,0
4,3,22,5,2,111,3,40,1,45,45,1,4450.98,0
4,3,22,6,2,74,2,10,1,45,45,1,3486.3,0
4,3,22,7,2,55.5,1.5,30,1,45,45,1,6938.86,0
4,3,22,8,2,92.5,2.5,20,1,45,45,1,2501.34,0
4,3,23,1,1,111,3,40,0,-45,-45,1,4763.75,0
4,3,23,2,1,111,3,40,0,45,45,1,2855.92,0
4,3,23,3,1,111,3,30,1,45,45,1,1057.87,0
4,3,23,4,1,111,3,10,1,45,45,1,1804.55,0
4,3,23,5,1,111,3,20,1,45,45,1,4451.6,0
4,3,23,6,1,111,3,40,1,45,45,1,1425.38,0
4,3,24,1,2,111,3,20,0,45,-45,0,1505.59,0
4,3,24,2,2,111,3,20,0,-45,-45,1,2482.68,0
4,3,24,3,2,111,3,20,0,-45,-45,1,3064.13,0
4,3,24,4,2,74,2,20,1,-45,-45,1,2230.87,0
4,3,24,5,2,92.5,2.5,10,1,-45,-45,1,1420.73,0
4,3,24,6,2,111,3,40,1,-45,-45,1,1109.06,0
4,3,24,7,2,55.5,1.5,30,1,45,45,1,1261.7,0
4,4,25,1,1,55.5,1.5,40,0,-45,-45,1,3431.01,0
4,4,25,2,1,55.5,1.5,40,0,45,45,1,3307.64,0
4,4,25,3,1,55.5,1.5,30,1,45,45,1,2471.16,0
4,4,25,4,1,55.5,1.5,20,1,-45,-45,1,1250.65,0
4,4,25,5,1,55.5,1.5,10,1,45,45,1,1694.04,0
4,4,25,6,1,55.5,1.5,40,1,45,45,1,1573.3,0
4,4,26,1,2,55.5,1.5,40,0,-45,-45,1,1354.11,0
4,4,26,2,2,55.5,1.5,40,0,45,45,1,1522.48,0
4,4,26,3,2,111,3,30,1,-45,-45,1,4707.43,0
4,4,26,4,2,92.5,2.5,20,1,45,45,1,1549.8,0
4,4,26,5,2,55.5,1.5,10,1,45,45,1,747.65,0
4,4,26,6,2,74,2,40,1,-45,-45,1,3793.12,0
4,4,27,1,1,92.5,2.5,30,0,-45,-45,1,2819.41,0
4,4,27,2,1,92.5,2.5,30,0,45,45,1,4826.06,0
4,4,27,3,1,92.5,2.5,20,1,-45,-45,1,3839.78,0
4,4,27,4,1,92.5,2.5,30,1,45,45,1,2472.36,0
4,4,27,5,1,92.5,2.5,10,1,-45,-45,1,1891.23,0
4,4,27,6,1,92.5,2.5,40,1,45,45,1,6397.14,0
4,4,28,1,1,55.5,1.5,10,0,45,45,1,1195.48,0
4,4,28,2,1,55.5,1.5,10,0,45,45,1,1992.68,0
4,4,28,3,1,55.5,1.5,10,1,45,45,1,1202.5,0
4,4,28,4,1,55.5,1.5,30,1,-45,-45,1,1702.63,0
4,4,28,5,1,55.5,1.5,20,1,-45,-45,1,1066.78,0
4,4,28,6,1,55.5,1.5,40,1,45,45,1,1349.38,0
4,4,29,1,1,92.5,2.5,10,0,-45,-45,1,1703.69,0
4,4,29,2,1,92.5,2.5,10,0,45,45,1,1626.24,0
4,4,29,3,1,92.5,2.5,10,1,45,45,1,1218.41,0
4,4,29,4,1,92.5,2.5,30,1,-45,-45,1,2238.35,0
4,4,29,5,1,92.5,2.5,20,1,45,45,1,5105.96,0
4,4,29,6,1,92.5,2.5,40,1,-45,-45,1,1011.43,0
4,4,30,1,1,92.5,2.5,10,0,45,45,1,1716.43,0
4,4,30,2,1,92.5,2.5,10,0,45,45,1,1786.03,0
4,4,30,3,1,92.5,2.5,10,0,45,45,1,3076.52,0
4,4,30,4,1,92.5,2.5,10,0,-45,-45,1,2289.65,0
4,4,30,5,1,92.5,2.5,40,1,-45,-45,1,6486.16,0
4,4,30,6,1,92.5,2.5,10,1,-45,-45,1,2672.62,0
4,4,30,7,1,92.5,2.5,30,1,-45,-45,1,4012.77,0
4,4,30,8,1,92.5,2.5,20,1,-45,-45,1,1695.86,0
4,4,31,1,1,74,2,40,0,-45,-45,1,5650.36,0
4,4,31,2,1,74,2,40,0,45,45,1,6015.7,0
4,4,31,3,1,74,2,40,0,45,45,1,1723.74,0
4,4,31,4,1,74,2,10,1,-45,-45,1,1042.18,0
4,4,31,5,1,74,2,20,1,-45,-45,1,930.47,0
4,4,31,6,1,74,2,30,1,45,45,1,950.64,0
4,4,31,7,1,74,2,40,1,-45,-45,1,2463.62,0
4,4,32,1,2,92.5,2.5,20,0,45,45,1,3135.84,0
4,4,32,2,2,92.5,2.5,20,0,45,45,1,2516.98,0
4,4,32,3,2,92.5,2.5,20,0,45,45,1,2238.03,0
4,4,32,4,2,74,2,10,1,-45,-45,1,1600.26,0
4,4,32,5,2,92.5,2.5,40,1,45,45,1,686.33,0
4,4,32,6,2,55.5,1.5,20,1,-45,-45,1,5553.39,0
4,4,32,7,2,111,3,30,1,-45,-45,1,1140.63,0
4,5,33,1,1,74,2,20,0,-45,-45,1,4351.17,0
4,5,33,2,1,74,2,20,0,-45,-45,1,1197.95,0
4,5,33,3,1,74,2,30,1,-45,-45,1,795.4,0
4,5,33,4,1,74,2,20,1,45,45,1,1700.4,0
4,5,33,5,1,74,2,40,1,45,45,1,3258.7,0
4,5,33,6,1,74,2,10,1,45,45,1,1224.63,0
4,5,34,1,1,55.5,1.5,40,0,-45,-45,1,998.42,0
4,5,34,2,1,55.5,1.5,40,0,-45,-45,1,2282.63,0
4,5,34,3,1,55.5,1.5,30,1,45,45,1,896.22,0
4,5,34,4,1,55.5,1.5,20,1,45,45,1,2259.58,0
4,5,34,5,1,55.5,1.5,10,1,45,45,1,901.8,0
4,5,34,6,1,55.5,1.5,40,1,-45,-45,1,1707.5,0
4,5,35,1,2,55.5,1.5,30,0,45,45,1,2331.31,0
4,5,35,2,2,55.5,1.5,30,0,45,45,1,958.39,0
4,5,35,3,2,92.5,2.5,10,1,45,45,1,1227.09,0
4,5,35,4,2,55.5,1.5,40,1,-45,-45,1,2603.04,0
4,5,35,5,2,111,3,20,1,-45,-45,1,1439.91,0
4,5,35,6,2,74,2,30,1,-45,-45,1,1205.9,0
4,5,36,1,1,74,2,40,0,45,45,1,1513.8,0
4,5,36,2,1,74,2,40,0,-45,-45,1,1139.57,0
4,5,36,3,1,74,2,40,0,-45,-45,1,6213.98,0
4,5,36,4,1,74,2,40,0,-45,-45,1,1682.37,0
4,5,36,5,1,74,2,30,1,45,45,1,1630.1,0
4,5,36,6,1,74,2,20,1,-45,-45,1,1464.49,0
4,5,36,7,1,74,2,40,1,-45,-45,1,1391.3,0
4,5,36,8,1,74,2,10,1,45,45,1,1271.26,0
4,5,37,1,1,74,2,10,0,45,45,1,1360.85,0
4,5,37,2,1,74,2,10,0,45,45,1,2235.35,0
4,5,37,3,1,74,2,40,1,45,45,1,1622.59,0
4,5,37,4,1,74,2,10,1,45,45,1,1159.03,0
4,5,37,5,1,74,2,20,1,-45,-45,1,1112.21,0
4,5,37,6,1,74,2,30,1,-45,-45,1,1179.48,0
4,5,38,1,1,111,3,20,0,-45,-45,1,1650.1,0
4,5,38,2,1,111,3,20,0,-45,-45,1,1731.41,0
4,5,38,3,1,111,3,10,1,-45,-45,1,1095.8,0
4,5,38,4,1,111,3,30,1,-45,-45,1,1571.47,0
4,5,38,5,1,111,3,40,1,45,45,1,2265.68,0
4,5,38,6,1,111,3,20,1,-45,-45,1,3644.29,0
4,5,39,1,2,74,2,30,0,45,45,1,1058.73,0
4,5,39,2,2,74,2,30,0,45,45,1,1287.01,0
4,5,39,3,2,92.5,2.5,10,1,45,45,1,1819.36,0
4,5,39,4,2,111,3,30,1,45,45,1,2486.88,0
4,5,39,5,2,55.5,1.5,40,1,-45,-45,1,6631.1,0
4,5,39,6,2,74,2,20,1,-45,-45,1,2536.28,0
4,5,40,1,1,55.5,1.5,20,0,-45,-45,1,10864.45,0
4,5,40,2,1,55.5,1.5,20,0,45,45,1,1091.06,0
4,5,40,3,1,55.5,1.5,20,0,-45,-45,1,1640.34,0
4,5,40,4,1,55.5,1.5,40,1,45,45,1,1044.28,0
4,5,40,5,1,55.5,1.5,10,1,-45,-45,1,1214.68,0
4,5,40,6,1,55.5,1.5,30,1,45,45,1,1001.35,0
4,5,40,7,1,55.5,1.5,20,1,-45,-45,1,1157.75,0
4,6,41,1,2,74,2,30,0,-45,-45,1,2153.39,0
4,6,41,2,2,74,2,30,0,45,45,1,3939.63,0
4,6,41,3,2,111,3,10,1,45,45,1,999.48,0
4,6,41,4,2,55.5,1.5,20,1,45,45,1,995.91,0
4,6,41,5,2,74,2,40,1,-45,-45,1,1177.46,0
4,6,41,6,2,92.5,2.5,30,1,-45,-45,1,1808.39,0
4,6,42,1,1,74,2,30,0,-45,-45,1,4039.45,0
4,6,42,2,1,74,2,30,0,45,45,1,3333.03,0
4,6,42,3,1,74,2,30,0,45,45,1,7429.03,0
4,6,42,4,1,74,2,30,0,-45,-45,1,2229.35,0
4,6,42,5,1,74,2,40,1,45,45,1,6910.4,0
4,6,42,6,1,74,2,10,1,45,45,1,1312.67,0
4,6,42,7,1,74,2,20,1,45,45,1,4058.79,0
4,6,42,8,1,74,2,30,1,-45,-45,1,1687.65,0
4,6,43,1,1,55.5,1.5,30,0,-45,-45,1,1725.6,0
4,6,43,2,1,55.5,1.5,30,0,-45,-45,1,1851.4,0
4,6,43,3,1,55.5,1.5,30,0,45,45,1,2335.88,0
4,6,43,4,1,55.5,1.5,30,1,45,45,1,1101.15,0
4,6,43,5,1,55.5,1.5,10,1,-45,-45,1,1172.41,0
4,6,43,6,1,55.5,1.5,40,1,45,45,1,1215.56,0
4,6,43,7,1,55.5,1.5,20,1,45,45,1,783,0
4,6,44,1,1,92.5,2.5,20,0,-45,-45,1,2772.73,0
4,6,44,2,1,92.5,2.5,20,0,45,45,1,1557.15,0
4,6,44,3,1,92.5,2.5,20,0,-45,-45,1,2161.88,0
4,6,44,4,1,92.5,2.5,30,1,45,45,1,3824.89,0
4,6,44,5,1,92.5,2.5,40,1,45,45,1,3672.84,0
4,6,44,6,1,92.5,2.5,10,1,45,45,1,1431.26,0
4,6,44,7,1,92.5,2.5,20,1,-45,-45,1,1937.04,0
4,6,45,1,1,111,3,40,0,45,45,1,2592.73,0
4,6,45,2,1,111,3,40,0,45,45,1,1632.49,0
4,6,45,3,1,111,3,20,1,45,45,1,2012.98,0
4,6,45,4,1,111,3,40,1,45,45,1,3132.5,0
4,6,45,5,1,111,3,10,1,-45,-45,1,1445.35,0
4,6,45,6,1,111,3,30,1,-45,-45,1,1403.56,0
4,6,46,1,2,111,3,10,0,45,45,1,1475.74,0
4,6,46,2,2,111,3,10,0,45,45,1,980.93,0
4,6,46,3,2,111,3,10,0,45,45,1,1278.04,0
4,6,46,4,2,74,2,10,1,-45,-45,1,1432.91,0
4,6,46,5,2,92.5,2.5,20,1,45,45,1,2735.68,0
4,6,46,6,2,55.5,1.5,30,1,45,45,1,3176.57,0
4,6,46,7,2,111,3,40,1,-45,-45,1,2157.45,0
4,6,47,1,2,92.5,2.5,40,0,45,45,1,5073.93,0
4,6,47,2,2,92.5,2.5,40,0,45,45,1,4434.04,0
4,6,47,3,2,92.5,2.5,40,0,-45,-45,1,3538.3,0
4,6,47,4,2,74,2,40,1,-45,-45,1,1967.27,0
4,6,47,5,2,92.5,2.5,30,1,-45,-45,1,7598.56,0
4,6,47,6,2,55.5,1.5,10,1,-45,-45,1,2238.73,0
4,6,47,7,2,111,3,20,1,45,45,1,986.38,0
4,6,48,1,2,111,3,40,0,-45,-45,1,3860.49,0
4,6,48,2,2,111,3,40,0,-45,-45,1,1750.31,0
4,6,48,3,2,55.5,1.5,20,1,45,45,1,779.33,0
4,6,48,4,2,92.5,2.5,40,1,45,45,1,1362.16,0
4,6,48,5,2,111,3,30,1,45,45,1,2732.72,0
4,6,48,6,2,74,2,10,1,-45,-45,1,1408.97,0
4,7,49,1,1,92.5,2.5,20,0,45,45,1,757.87,0
4,7,49,2,1,92.5,2.5,20,0,45,45,1,1528.22,0
4,7,49,3,1,92.5,2.5,20,0,45,45,1,2145.53,0
4,7,49,4,1,92.5,2.5,20,1,-45,-45,1,1218.47,0
4,7,49,5,1,92.5,2.5,30,1,45,45,1,888.98,0
4,7,49,6,1,92.5,2.5,10,1,45,45,1,1181.3,0
4,7,49,7,1,92.5,2.5,40,1,45,45,1,6096.61,0
4,7,50,1,2,55.5,1.5,20,0,-45,-45,1,1259.56,0
4,7,50,2,2,55.5,1.5,20,0,45,45,1,1170.14,0
4,7,50,3,2,55.5,1.5,20,0,45,45,1,873.33,0
4,7,50,4,2,111,3,20,1,45,45,1,1727.52,0
4,7,50,5,2,55.5,1.5,30,1,-45,-45,1,1256.94,0
4,7,50,6,2,92.5,2.5,10,1,-45,-45,1,1144.63,0
4,7,50,7,2,74,2,40,1,-45,-45,1,1985.12,0
4,7,51,1,1,111,3,10,0,45,45,1,1075.58,0
4,7,51,2,1,111,3,10,0,-45,-45,1,1052.66,0
4,7,51,3,1,111,3,20,1,45,45,1,1148.74,0
4,7,51,4,1,111,3,30,1,45,45,1,1670.55,0
4,7,51,5,1,111,3,40,1,-45,-45,1,2919.85,0
4,7,51,6,1,111,3,10,1,45,45,1,1255.64,0
4,7,52,1,1,111,3,10,0,45,45,1,789.57,0
4,7,52,2,1,111,3,10,0,-45,-45,1,2589.59,0
4,7,52,3,1,111,3,10,0,-45,-45,1,1540.19,0
4,7,52,4,1,111,3,10,0,45,45,1,1223.31,0
4,7,52,5,1,111,3,10,1,-45,-45,1,1085.74,0
4,7,52,6,1,111,3,30,1,-45,-45,1,928.55,0
4,7,52,7,1,111,3,20,1,45,45,1,846.26,0
4,7,52,8,1,111,3,40,1,45,45,1,1075.27,0
4,7,53,1,1,74,2,10,0,-45,-45,1,920.56,0
4,7,53,2,1,74,2,10,0,-45,-45,1,1357.59,0
4,7,53,3,1,74,2,30,1,45,45,1,2499.84,0
4,7,53,4,1,74,2,20,1,-45,-45,1,1112.25,0
4,7,53,5,1,74,2,40,1,-45,-45,1,1902.24,0
4,7,53,6,1,74,2,10,1,-45,-45,1,947.57,0
4,7,54,1,1,92.5,2.5,40,0,-45,-45,1,3009.78,0
4,7,54,2,1,92.5,2.5,40,0,45,45,1,1959.63,0
4,7,54,3,1,92.5,2.5,40,0,45,45,1,8391.39,0
4,7,54,4,1,92.5,2.5,10,1,45,45,1,2110.35,0
4,7,54,5,1,92.5,2.5,30,1,45,45,1,1106.08,0
4,7,54,6,1,92.5,2.5,40,1,-45,-45,1,3252.63,0
4,7,54,7,1,92.5,2.5,20,1,-45,-45,1,1943.03,0
4,7,55,1,1,111,3,20,0,45,45,1,1537.5,0
4,7,55,2,1,111,3,20,0,-45,-45,1,739.13,0
4,7,55,3,1,111,3,10,1,45,45,1,1516.53,0
4,7,55,4,1,111,3,20,1,-45,-45,1,927.74,0
4,7,55,5,1,111,3,30,1,-45,-45,1,1778.41,0
4,7,55,6,1,111,3,40,1,-45,-45,1,1118.97,0
4,7,56,1,1,74,2,30,0,45,45,1,7024.21,0
4,7,56,2,1,74,2,30,0,45,45,1,2001.27,0
4,7,56,3,1,74,2,30,0,-45,-45,1,2235.42,0
4,7,56,4,1,74,2,30,1,45,45,1,1891.82,0
4,7,56,5,1,74,2,10,1,-45,-45,1,1039.62,0
4,7,56,6,1,74,2,20,1,-45,-45,1,713.92,0
4,7,56,7,1,74,2,40,1,-45,-45,1,9621.2,0
4,8,57,1,1,111,3,30,0,45,45,1,2923.06,0
4,8,57,2,1,111,3,30,0,45,45,1,741.94,0
4,8,57,3,1,111,3,30,0,45,45,1,1058.28,0
4,8,57,4,1,111,3,20,1,45,45,1,953.37,0
4,8,57,5,1,111,3,40,1,-45,-45,1,1425.07,0
4,8,57,6,1,111,3,30,1,45,45,1,2021.94,0
4,8,57,7,1,111,3,10,1,-45,-45,1,2026.17,0
4,8,58,1,2,74,2,20,0,-45,-45,1,2686.9,0
4,8,58,2,2,74,2,20,0,-45,-45,1,3102.13,0
4,8,58,3,2,74,2,20,0,45,45,1,1957.92,0
4,8,58,4,2,92.5,2.5,10,1,45,45,1,2367.18,0
4,8,58,5,2,111,3,40,1,45,45,1,1573.27,0
4,8,58,6,2,74,2,30,1,-45,-45,1,2134.81,0
4,8,58,7,2,55.5,1.5,20,1,45,45,1,1199.17,0
4,8,59,1,2,111,3,30,0,45,45,1,2608.03,0
4,8,59,2,2,111,3,30,0,-45,-45,1,3178.05,0
4,8,59,3,2,111,3,30,0,45,45,1,1253.72,0
4,8,59,4,2,74,2,40,1,-45,-45,1,8527.21,0
4,8,59,5,2,111,3,10,1,-45,-45,1,2193.87,0
4,8,59,6,2,55.5,1.5,30,1,45,45,1,1431.74,0
4,8,59,7,2,92.5,2.5,20,1,45,45,1,1255.2,0
4,8,60,1,2,55.5,1.5,30,0,45,45,1,836.4,0
4,8,60,2,2,55.5,1.5,30,0,-45,-45,1,828.15,0
4,8,60,3,2,55.5,1.5,30,0,45,45,1,1531.23,0
4,8,60,4,2,74,2,40,1,-45,-45,1,1012.2,0
4,8,60,5,2,111,3,30,1,45,45,1,3668.31,0
4,8,60,6,2,92.5,2.5,20,1,-45,-45,1,1680.96,0
4,8,60,7,2,55.5,1.5,10,1,-45,-45,1,912.5,0
4,8,61,1,2,74,2,40,0,45,45,1,1548.28,0
4,8,61,2,2,74,2,40,0,45,45,1,8938.2,0
4,8,61,3,2,74,2,40,0,-45,-45,1,4516.88,0
4,8,61,4,2,111,3,10,1,-45,-45,1,1032.95,0
4,8,61,5,2,55.5,1.5,40,1,45,45,1,1053.62,0
4,8,61,6,2,92.5,2.5,30,1,45,45,1,1297.9,0
4,8,61,7,2,74,2,20,1,-45,-45,1,3132.29,0
4,8,62,1,1,55.5,1.5,10,0,-45,-45,1,927.33,0
4,8,62,2,1,55.5,1.5,10,0,-45,-45,1,766.31,0
4,8,62,3,1,55.5,1.5,10,0,-45,-45,1,813.61,0
4,8,62,4,1,55.5,1.5,40,1,-45,-45,1,1352.03,0
4,8,62,5,1,55.5,1.5,10,1,-45,-45,1,2676.64,0
4,8,62,6,1,55.5,1.5,30,1,-45,-45,1,985.52,0
4,8,62,7,1,55.5,1.5,20,1,45,45,1,2018.08,0
4,8,63,1,1,74,2,20,0,-45,-45,1,6349.56,0
4,8,63,2,1,74,2,20,0,45,45,1,1018.52,0
4,8,63,3,1,74,2,20,0,45,45,1,899.36,0
4,8,63,4,1,74,2,20,0,-45,-45,1,2261.96,0
4,8,63,5,1,74,2,30,1,-45,-45,1,2382.68,0
4,8,63,6,1,74,2,20,1,45,45,1,4794.65,0
4,8,63,7,1,74,2,10,1,45,45,1,3276.28,0
4,8,63,8,1,74,2,40,1,-45,-45,1,5294.97,0
4,8,64,1,2,92.5,2.5,20,0,-45,-45,1,2257.06,0
4,8,64,2,2,92.5,2.5,20,0,45,45,1,2008.02,0
4,8,64,3,2,74,2,10,1,45,45,1,1693.21,0
4,8,64,4,2,55.5,1.5,40,1,45,45,1,2098.14,0
4,8,64,5,2,92.5,2.5,30,1,45,45,1,2089.14,0
4,8,64,6,2,111,3,20,1,45,45,1,2524.75,0
4,9,65,1,1,55.5,1.5,20,0,-45,-45,1,1045.81,0
4,9,65,2,1,55.5,1.5,20,0,45,45,1,4644.13,0
4,9,65,3,1,55.5,1.5,20,0,-45,-45,1,574.38,0
4,9,65,4,1,55.5,1.5,20,0,45,45,1,2194.21,0
4,9,65,5,1,55.5,1.5,10,1,45,45,1,870.98,0
4,9,65,6,1,55.5,1.5,30,1,-45,-45,1,1036.89,0
4,9,65,7,1,55.5,1.5,20,1,-45,-45,1,1579.36,0
4,9,65,8,1,55.5,1.5,40,1,-45,-45,1,1647.52,0
4,9,66,1,2,111,3,40,0,45,45,1,1812.84,0
4,9,66,2,2,111,3,40,0,45,45,1,1821.16,0
4,9,66,3,2,111,3,40,0,45,45,1,2317.66,0
4,9,66,4,2,55.5,1.5,10,1,45,45,1,1025.13,0
4,9,66,5,2,111,3,20,1,-45,-45,1,872.78,0
4,9,66,6,2,74,2,40,1,-45,-45,1,2658.48,0
4,9,66,7,2,92.5,2.5,30,1,45,45,1,4320.15,0
4,9,67,1,2,111,3,20,0,-45,-45,1,2805.18,0
4,9,67,2,2,111,3,20,0,-45,-45,1,1653.53,0
4,9,67,3,2,111,3,20,0,45,45,1,1526.13,0
4,9,67,4,2,111,3,20,0,45,45,1,1491.61,0
4,9,67,5,2,55.5,1.5,20,1,45,45,1,1008.52,0
4,9,67,6,2,92.5,2.5,40,1,45,45,1,1462.68,0
4,9,67,7,2,111,3,30,1,45,45,1,2669.23,0
4,9,67,8,2,74,2,10,1,45,45,1,1376.29,0
4,9,68,1,2,55.5,1.5,10,0,-45,-45,1,776.19,0
4,9,68,2,2,55.5,1.5,10,0,45,45,1,753.56,0
4,9,68,3,2,55.5,1.5,10,0,-45,-45,1,737.25,0
4,9,68,4,2,55.5,1.5,10,0,-45,-45,1,840,0
4,9,68,5,2,92.5,2.5,10,1,45,45,1,700.47,0
4,9,68,6,2,55.5,1.5,40,1,45,45,1,1251,0
4,9,68,7,2,74,2,30,1,-45,-45,1,973.76,0
4,9,68,8,2,111,3,20,1,45,45,1,4198.91,0
4,9,69,1,1,111,3,30,0,-45,-45,1,1245.14,0
4,9,69,2,1,111,3,30,0,-45,-45,1,903.52,0
4,9,69,3,1,111,3,30,0,-45,-45,1,1860.4,0
4,9,69,4,1,111,3,30,0,45,45,1,3537.85,0
4,9,69,5,1,111,3,30,1,-45,-45,1,1047.1,0
4,9,69,6,1,111,3,40,1,-45,-45,1,1541.84,0
4,9,69,7,1,111,3,10,1,-45,-45,1,1335.06,0
4,9,69,8,1,111,3,20,1,45,45,1,1002.08,0
4,9,70,1,1,92.5,2.5,30,0,45,45,1,879.11,0
4,9,70,2,1,92.5,2.5,30,0,45,45,1,823.11,0
4,9,70,3,1,92.5,2.5,30,1,-45,-45,1,1916.78,0
4,9,70,4,1,92.5,2.5,20,1,-45,-45,1,2096.49,0
4,9,70,5,1,92.5,2.5,10,1,45,45,1,1507.17,0
4,9,70,6,1,92.5,2.5,40,1,-45,-45,1,2785.4,0
4,9,71,1,2,92.5,2.5,30,0,-45,-45,1,1285.15,0
4,9,71,2,2,92.5,2.5,30,0,45,45,1,1375.23,0
4,9,71,3,2,92.5,2.5,30,0,45,45,1,1502.79,0
4,9,71,4,2,111,3,20,1,45,45,1,2043.08,0
4,9,71,5,2,55.5,1.5,30,1,45,45,1,1068.97,0
4,9,71,6,2,92.5,2.5,40,1,45,45,1,1393.09,0
4,9,71,7,2,74,2,10,1,-45,-45,1,879.57,0
4,9,72,1,2,111,3,10,0,45,45,1,1355.51,0
4,9,72,2,2,111,3,10,0,45,45,1,1495,0
4,9,72,3,2,111,3,10,0,45,45,1,906.4,0
4,9,72,4,2,111,3,10,0,45,45,1,850.01,0
4,9,72,5,2,92.5,2.5,40,1,45,45,1,814.57,0
4,9,72,6,2,55.5,1.5,30,1,45,45,1,1262.72,0
4,9,72,7,2,74,2,20,1,45,45,1,5657.02,0
4,9,72,8,2,111,3,10,1,-45,-45,1,969.14,0
5,1,1,1,1,55.5,1.5,20,0,-45,-45,1,2490.27,1
5,1,1,2,1,55.5,1.5,20,0,45,45,1,1850.4,1
5,1,1,3,1,55.5,1.5,20,0,45,45,1,2593.17,1
5,1,1,4,1,55.5,1.5,40,1,-45,-45,1,3066.66,1
5,1,1,5,1,55.5,1.5,10,1,45,45,1,1058.12,1
5,1,1,6,1,55.5,1.5,20,1,45,45,1,919.06,1
5,1,1,7,1,55.5,1.5,30,1,45,45,1,2455.6,1
5,1,2,1,1,74,2,10,0,-45,-45,1,2224.64,1
5,1,2,2,1,74,2,10,0,-45,-45,1,3104.87,1
5,1,2,3,1,74,2,10,0,-45,-45,1,1507.61,1
5,1,2,4,1,74,2,10,0,45,45,1,3468.17,1
5,1,2,5,1,74,2,20,1,-45,-45,1,1569.53,1
5,1,2,6,1,74,2,10,1,-45,-45,1,2281.03,1
5,1,2,7,1,74,2,40,1,45,45,1,5004.93,1
5,1,2,8,1,74,2,30,1,-45,-45,1,1050.85,1
5,1,3,1,1,55.5,1.5,10,0,-45,-45,1,1535.33,1
5,1,3,2,1,55.5,1.5,10,0,-45,-45,1,3683.14,1
5,1,3,3,1,55.5,1.5,10,0,-45,-45,1,1119.89,1
5,1,3,4,1,55.5,1.5,10,0,-45,-45,1,1758.66,1
5,1,3,5,1,55.5,1.5,20,1,45,45,1,2405.85,1
5,1,3,6,1,55.5,1.5,40,1,45,45,1,2270.17,1
5,1,3,7,1,55.5,1.5,10,1,45,45,1,3747.16,1
5,1,3,8,1,55.5,1.5,30,1,-45,-45,1,1569.54,1
5,1,4,1,1,74,2,40,0,-45,-45,1,1407.09,1
5,1,4,2,1,74,2,40,0,45,45,1,2329.64,1
5,1,4,3,1,74,2,40,0,45,45,1,4944.46,1
5,1,4,4,1,74,2,40,0,45,45,1,4512.51,1
5,1,4,5,1,74,2,30,1,-45,-45,1,7073.24,1
5,1,4,6,1,74,2,20,1,-45,-45,1,2624.84,1
5,1,4,7,1,74,2,10,1,45,45,1,1636.58,1
5,1,4,8,1,74,2,40,1,-45,-45,1,7258.4,1
5,1,5,1,1,74,2,20,0,45,45,1,4351.24,1
5,1,5,2,1,74,2,20,0,45,45,1,3919.4,1
5,1,5,3,1,74,2,20,0,-45,-45,1,4517.4,1
5,1,5,4,1,74,2,40,1,45,45,1,6154.96,1
5,1,5,5,1,74,2,30,1,-45,-45,1,3163.42,1
5,1,5,6,1,74,2,10,1,-45,-45,1,1642.9,1
5,1,5,7,1,74,2,20,1,45,45,1,4591.92,1
5,1,6,1,1,74,2,30,0,-45,-45,1,2101.7,1
5,1,6,2,1,74,2,30,0,45,45,1,10952.21,1
5,1,6,3,1,74,2,40,1,45,45,1,5417.33,1
5,1,6,4,1,74,2,10,1,45,45,1,1636.23,1
5,1,6,5,1,74,2,30,1,-45,-45,1,1829.36,1
5,1,6,6,1,74,2,20,1,45,45,1,2035.63,1
5,1,7,1,1,55.5,1.5,40,0,45,45,1,3115.21,1
5,1,7,2,1,55.5,1.5,40,0,45,45,1,1260.37,1
5,1,7,3,1,55.5,1.5,30,1,45,45,1,912.3,1
5,1,7,4,1,55.5,1.5,40,1,-45,-45,1,1082.43,1
5,1,7,5,1,55.5,1.5,20,1,-45,-45,1,1617.22,1
5,1,7,6,1,55.5,1.5,10,1,45,45,1,1935.02,1
5,1,8,1,1,55.5,1.5,30,0,-45,-45,1,1234.28,1
5,1,8,2,1,55.5,1.5,30,0,-45,-45,1,1180.07,1
5,1,8,3,1,55.5,1.5,30,0,-45,-45,1,2420.54,1
5,1,8,4,1,55.5,1.5,40,1,-45,-45,1,953.79,1
5,1,8,5,1,55.5,1.5,20,1,-45,-45,1,2361.53,1
5,1,8,6,1,55.5,1.5,10,1,-45,-45,1,818.94,1
5,1,8,7,1,55.5,1.5,30,1,-45,-45,1,2738.74,1
5,2,9,1,1,111,3,20,0,-45,-45,1,6461.79,0
5,2,9,2,1,111,3,20,0,45,45,1,2810.27,0
5,2,9,3,1,111,3,20,0,45,45,1,5956.5,0
5,2,9,4,1,111,3,10,1,-45,-45,1,1256.06,0
5,2,9,5,1,111,3,30,1,45,45,1,8026.57,0
5,2,9,6,1,111,3,20,1,-45,-45,1,7552.35,0
5,2,9,7,1,111,3,40,1,-45,-45,1,2352.86,0
5,2,10,1,2,74,2,30,0,-45,-45,1,4941.97,0
5,2,10,2,2,74,2,30,0,45,45,1,3904.57,0
5,2,10,3,2,74,2,30,0,45,45,1,3851.6,0
5,2,10,4,2,74,2,30,0,45,45,1,2552.81,0
5,2,10,5,2,92.5,2.5,30,1,45,45,1,2802.79,0
5,2,10,6,2,111,3,20,1,-45,-45,1,4701.27,0
5,2,10,7,2,74,2,40,1,-45,-45,1,2232.15,0
5,2,10,8,2,55.5,1.5,10,1,45,45,1,1368.06,0
5,2,11,1,1,55.5,1.5,30,0,45,45,1,1390.38,0
5,2,11,2,1,55.5,1.5,30,0,45,45,1,1929.01,0
5,2,11,3,1,55.5,1.5,40,1,45,45,1,5088.36,0
5,2,11,4,1,55.5,1.5,20,1,-45,-45,1,2227.33,0
5,2,11,5,1,55.5,1.5,30,1,-45,-45,1,3460.91,0
5,2,11,6,1,55.5,1.5,10,1,45,45,1,945.32,0
5,2,12,1,2,55.5,1.5,20,0,-45,-45,1,900.79,0
5,2,12,2,2,55.5,1.5,20,0,-45,-45,1,1489.12,0
5,2,12,3,2,111,3,30,1,45,-45,0,22674.34,0
5,2,12,4,2,55.5,1.5,10,1,45,45,1,1190.6,0
5,2,12,5,2,92.5,2.5,40,1,45,-45,0,31242.92,0
5,2,12,6,2,74,2,20,1,-45,-45,1,4935.87,0
5,2,13,1,1,55.5,1.5,40,0,-45,-45,1,7857.92,0
5,2,13,2,1,55.5,1.5,40,0,-45,-45,1,5755.01,0
5,2,13,3,1,55.5,1.5,40,0,45,45,1,11665.52,0
5,2,13,4,1,55.5,1.5,10,1,-45,-45,1,2673.04,0
5,2,13,5,1,55.5,1.5,30,1,-45,-45,1,1169.82,0
5,2,13,6,1,55.5,1.5,40,1,45,45,1,5185.45,0
5,2,13,7,1,55.5,1.5,20,1,45,45,1,4633.97,0
5,2,14,1,1,55.5,1.5,10,0,45,45,1,2092.23,0
5,2,14,2,1,55.5,1.5,10,0,45,45,1,1947.88,0
5,2,14,3,1,55.5,1.5,10,0,45,45,1,2220.4,0
5,2,14,4,1,55.5,1.5,10,0,45,45,1,1794.94,0
5,2,14,5,1,55.5,1.5,40,1,-45,-45,1,5419.93,0
5,2,14,6,1,55.5,1.5,30,1,-45,-45,1,3048.37,0
5,2,14,7,1,55.5,1.5,10,1,45,45,1,1893.08,0
5,2,14,8,1,55.5,1.5,20,1,45,45,1,1655.26,0
5,2,15,1,1,111,3,40,0,45,45,1,17100.48,0
5,2,15,2,1,111,3,40,0,45,45,1,12095.24,0
5,2,15,3,1,111,3,40,1,-45,-45,1,7128.22,0
5,2,15,4,1,111,3,20,1,-45,-45,1,5937.97,0
5,2,15,5,1,111,3,10,1,-45,-45,1,3131.14,0
5,2,15,6,1,111,3,30,1,-45,-45,1,4540.17,0
5,2,16,1,2,92.5,2.5,10,0,45,45,1,5206,0
5,2,16,2,2,92.5,2.5,10,0,45,45,1,3627.3,0
5,2,16,3,2,92.5,2.5,10,0,-45,-45,1,3971.73,0
5,2,16,4,2,92.5,2.5,10,0,45,45,1,2739.67,0
5,2,16,5,2,111,3,20,1,-45,-45,1,4170.05,0
5,2,16,6,2,55.5,1.5,10,1,45,45,1,2282.71,0
5,2,16,7,2,74,2,40,1,45,45,1,6687.21,0
5,2,16,8,2,92.5,2.5,30,1,-45,-45,1,11858.34,0
5,3,17,1,2,111,3,10,0,-45,-45,1,3975.69,0
5,3,17,2,2,111,3,10,0,-45,-45,1,2456.48,0
5,3,17,3,2,111,3,10,0,-45,-45,1,1462.14,0
5,3,17,4,2,111,3,10,0,-45,-45,1,2111.35,0
5,3,17,5,2,55.5,1.5,20,1,-45,-45,1,5331.47,0
5,3,17,6,2,111,3,10,1,-45,-45,1,1801.26,0
5,3,17,7,2,92.5,2.5,30,1,45,45,1,5978.68,0
5,3,17,8,2,74,2,40,1,-45,-45,1,2764.77,0
5,3,18,1,2,111,3,40,0,45,45,1,3939.25,0
5,3,18,2,2,111,3,40,0,45,45,1,5755.85,0
5,3,18,3,2,55.5,1.5,20,1,-45,-45,1,4345.98,0
5,3,18,4,2,92.5,2.5,30,1,-45,-45,1,5262.72,0
5,3,18,5,2,74,2,40,1,45,45,1,6023.35,0
5,3,18,6,2,111,3,10,1,-45,-45,1,5348.3,0
5,3,19,1,2,74,2,30,0,-45,-45,1,3936.13,0
5,3,19,2,2,74,2,30,0,45,45,1,5802.05,0
5,3,19,3,2,55.5,1.5,20,1,45,45,1,3519.2,0
5,3,19,4,2,74,2,30,1,-45,-45,1,4591.49,0
5,3,19,5,2,111,3,10,1,-45,-45,1,4393.23,0
5,3,19,6,2,92.5,2.5,40,1,45,45,1,7988.34,0
5,3,20,1,1,111,3,30,0,45,45,1,5399.19,0
5,3,20,2,1,111,3,30,0,-45,-45,1,13370.26,0
5,3,20,3,1,111,3,30,0,45,45,1,6356.72,0
5,3,20,4,1,111,3,30,0,-45,-45,1,4779.99,0
5,3,20,5,1,111,3,20,1,45,45,1,1869.08,0
5,3,20,6,1,111,3,10,1,45,45,1,1879.88,0
5,3,20,7,1,111,3,40,1,-45,-45,1,6716.42,0
5,3,20,8,1,111,3,30,1,45,45,1,7067.02,0
5,3,21,1,2,92.5,2.5,40,0,-45,-45,1,5441.17,0
5,3,21,2,2,92.5,2.5,40,0,-45,-45,1,17156.82,0
5,3,21,3,2,92.5,2.5,40,0,-45,-45,1,8557.22,0
5,3,21,4,2,55.5,1.5,20,1,-45,-45,1,7075.56,0
5,3,21,5,2,111,3,30,1,-45,-45,1,9088.49,0
5,3,21,6,2,74,2,40,1,-45,-45,1,9752.57,0
5,3,21,7,2,92.5,2.5,10,1,45,45,1,2264.67,0
5,3,22,1,1,92.5,2.5,10,0,-45,-45,1,2256.22,0
5,3,22,2,1,92.5,2.5,10,0,45,45,1,2353.47,0
5,3,22,3,1,92.5,2.5,10,0,-45,-45,1,2805.55,0
5,3,22,4,1,92.5,2.5,10,0,45,45,1,2380.12,0
5,3,22,5,1,92.5,2.5,20,1,-45,-45,1,6042.11,0
5,3,22,6,1,92.5,2.5,10,1,45,45,1,1986.24,0
5,3,22,7,1,92.5,2.5,40,1,45,45,1,6079.01,0
5,3,22,8,1,92.5,2.5,30,1,-45,-45,1,9112.36,0
5,3,23,1,1,74,2,10,0,-45,-45,1,5478.63,0
5,3,23,2,1,74,2,10,0,45,45,1,2530.8,0
5,3,23,3,1,74,2,10,0,45,45,1,2452.75,0
5,3,23,4,1,74,2,10,0,-45,-45,1,4017.66,0
5,3,23,5,1,74,2,40,1,45,45,1,9949.69,0
5,3,23,6,1,74,2,30,1,-45,-45,1,11923.01,0
5,3,23,7,1,74,2,10,1,-45,-45,1,1781.03,0
5,3,23,8,1,74,2,20,1,-45,-45,1,6148.07,0
5,3,24,1,1,92.5,2.5,20,0,45,45,1,6487.62,0
5,3,24,2,1,92.5,2.5,20,0,45,45,1,11817.45,0
5,3,24,3,1,92.5,2.5,20,0,45,45,1,4328.63,0
5,3,24,4,1,92.5,2.5,20,1,45,45,1,4463.12,0
5,3,24,5,1,92.5,2.5,10,1,-45,-45,1,2659.92,0
5,3,24,6,1,92.5,2.5,40,1,-45,-45,1,9595.05,0
5,3,24,7,1,92.5,2.5,30,1,-45,-45,1,8328.27,0
5,4,25,1,1,55.5,1.5,10,0,45,45,1,1894.59,0
5,4,25,2,1,55.5,1.5,10,0,45,45,1,1578.2,0
5,4,25,3,1,55.5,1.5,10,0,45,45,1,1403.97,0
5,4,25,4,1,55.5,1.5,10,1,-45,-45,1,1858.52,0
5,4,25,5,1,55.5,1.5,20,1,45,45,1,1719.04,0
5,4,25,6,1,55.5,1.5,30,1,45,45,1,2692.38,0
5,4,25,7,1,55.5,1.5,40,1,-45,-45,1,3380.71,0
5,4,26,1,2,92.5,2.5,30,0,-45,-45,1,7773.6,0
5,4,26,2,2,92.5,2.5,30,0,45,45,1,1214.75,0
5,4,26,3,2,92.5,2.5,30,0,45,45,1,3680.24,0
5,4,26,4,2,92.5,2.5,30,0,-45,-45,1,2572.16,0
5,4,26,5,2,55.5,1.5,20,1,45,45,1,4996.18,0
5,4,26,6,2,74,2,30,1,-45,-45,1,8819.52,0
5,4,26,7,2,92.5,2.5,40,1,45,45,1,3760.29,0
5,4,26,8,2,111,3,10,1,45,45,1,1371.24,0
5,4,27,1,1,92.5,2.5,30,0,-45,-45,1,3784.11,0
5,4,27,2,1,92.5,2.5,30,0,45,45,1,2047.75,0
5,4,27,3,1,92.5,2.5,10,1,-45,-45,1,2194.13,0
5,4,27,4,1,92.5,2.5,40,1,45,45,1,10372.84,0
5,4,27,5,1,92.5,2.5,30,1,-45,-45,1,2509.62,0
5,4,27,6,1,92.5,2.5,20,1,45,45,1,4311.29,0
5,4,28,1,2,92.5,2.5,20,0,45,45,1,6483.96,0
5,4,28,2,2,92.5,2.5,20,0,45,45,1,3322.92,0
5,4,28,3,2,111,3,40,1,-45,-45,1,11395.73,0
5,4,28,4,2,74,2,10,1,45,45,1,3774.25,0
5,4,28,5,2,55.5,1.5,30,1,-45,-45,1,3972.25,0
5,4,28,6,2,92.5,2.5,20,1,-45,-45,1,3843.97,0
5,4,29,1,2,92.5,2.5,10,0,-45,-45,1,3252.2,0
5,4,29,2,2,92.5,2.5,10,0,-45,-45,1,2717.12,0
5,4,29,3,2,92.5,2.5,10,0,-45,-45,1,2033.82,0
5,4,29,4,2,74,2,10,1,-45,-45,1,1959.99,0
5,4,29,5,2,92.5,2.5,30,1,-45,-45,1,4140.92,0
5,4,29,6,2,111,3,20,1,-45,-45,1,1711.34,0
5,4,29,7,2,55.5,1.5,40,1,45,45,1,1787.03,0
5,4,30,1,2,55.5,1.5,20,0,45,45,1,1176.16,0
5,4,30,2,2,55.5,1.5,20,0,-45,-45,1,1755.91,0
5,4,30,3,2,55.5,1.5,20,0,45,45,1,985.07,0
5,4,30,4,2,111,3,20,1,45,45,1,1808.39,0
5,4,30,5,2,55.5,1.5,40,1,-45,-45,1,8537.78,0
5,4,30,6,2,92.5,2.5,10,1,45,45,1,2490.26,0
5,4,30,7,2,74,2,30,1,-45,-45,1,3329.59,0
5,4,31,1,2,92.5,2.5,30,0,45,45,1,5731.17,0
5,4,31,2,2,92.5,2.5,30,0,45,45,1,5470.07,0
5,4,31,3,2,92.5,2.5,30,0,45,45,1,2922.66,0
5,4,31,4,2,92.5,2.5,30,0,-45,-45,1,4674.06,0
5,4,31,5,2,55.5,1.5,30,1,45,45,1,4361.05,0
5,4,31,6,2,111,3,20,1,-45,-45,1,8073.15,0
5,4,31,7,2,74,2,40,1,45,45,1,4060.22,0
5,4,31,8,2,92.5,2.5,10,1,45,45,1,3344.71,0
5,4,32,1,1,111,3,40,0,45,45,1,6214.9,0
5,4,32,2,1,111,3,40,0,45,45,1,6900.6,0
5,4,32,3,1,111,3,40,0,45,45,1,8464.14,0
5,4,32,4,1,111,3,40,0,45,45,1,5907.16,0
5,4,32,5,1,111,3,10,1,-45,-45,1,2779.13,0
5,4,32,6,1,111,3,30,1,-45,-45,1,4035.9,0
5,4,32,7,1,111,3,20,1,-45,-45,1,2328.56,0
5,4,32,8,1,111,3,40,1,-45,-45,1,4504.67,0
5,5,33,1,1,74,2,20,0,-45,-45,1,3565.64,0
5,5,33,2,1,74,2,20,0,-45,-45,1,7493.62,0
5,5,33,3,1,74,2,20,1,-45,-45,1,2008.11,0
5,5,33,4,1,74,2,40,1,45,45,1,2026.6,0
5,5,33,5,1,74,2,10,1,-45,-45,1,2490.7,0
5,5,33,6,1,74,2,30,1,-45,-45,1,4542.38,0
5,5,34,1,2,55.5,1.5,40,0,45,45,1,2596.88,0
5,5,34,2,2,55.5,1.5,40,0,45,45,1,2626.89,0
5,5,34,3,2,55.5,1.5,40,0,-45,-45,1,1383.86,0
5,5,34,4,2,55.5,1.5,40,0,-45,-45,1,960.61,0
5,5,34,5,2,74,2,30,1,45,45,1,752.85,0
5,5,34,6,2,55.5,1.5,20,1,45,45,1,1521.63,0
5,5,34,7,2,111,3,10,1,45,45,1,2644.34,0
5,5,34,8,2,92.5,2.5,40,1,-45,-45,1,2540.83,0
5,5,35,1,1,92.5,2.5,30,0,-45,-45,1,4029.67,0
5,5,35,2,1,92.5,2.5,30,0,-45,-45,1,1450.55,0
5,5,35,3,1,92.5,2.5,30,0,-45,-45,1,2176.04,0
5,5,35,4,1,92.5,2.5,30,0,-45,-45,1,1240.67,0
5,5,35,5,1,92.5,2.5,20,1,-45,-45,1,2419.88,0
5,5,35,6,1,92.5,2.5,30,1,-45,-45,1,3545.15,0
5,5,35,7,1,92.5,2.5,10,1,45,45,1,2407.22,0
5,5,35,8,1,92.5,2.5,40,1,-45,-45,1,3347.05,0
5,5,36,1,2,74,2,40,0,-45,-45,1,3786.65,0
5,5,36,2,2,74,2,40,0,-45,-45,1,1412.13,0
5,5,36,3,2,74,2,40,0,-45,-45,1,3439.41,0
5,5,36,4,2,55.5,1.5,10,1,-45,-45,1,1663.6,0
5,5,36,5,2,111,3,30,1,-45,-45,1,2345.18,0
5,5,36,6,2,74,2,40,1,45,45,1,9777.55,0
5,5,36,7,2,92.5,2.5,20,1,45,45,1,3976.09,0
5,5,37,1,1,111,3,20,0,-45,-45,1,3955.59,0
5,5,37,2,1,111,3,20,0,-45,-45,1,1340.5,0
5,5,37,3,1,111,3,20,0,45,45,1,1597.33,0
5,5,37,4,1,111,3,20,0,45,45,1,3320.38,0
5,5,37,5,1,111,3,30,1,45,45,1,1866.55,0
5,5,37,6,1,111,3,40,1,45,45,1,5622.69,0
5,5,37,7,1,111,3,20,1,-45,-45,1,1653.85,0
5,5,37,8,1,111,3,10,1,45,45,1,1066.36,0
5,5,38,1,1,111,3,10,0,-45,-45,1,1750.15,0
5,5,38,2,1,111,3,10,0,-45,-45,1,1326.11,0
5,5,38,3,1,111,3,10,1,45,45,1,1159.24,0
5,5,38,4,1,111,3,40,1,-45,-45,1,6335.09,0
5,5,38,5,1,111,3,30,1,-45,-45,1,13489.12,0
5,5,38,6,1,111,3,20,1,-45,-45,1,2120.07,0
5,5,39,1,2,111,3,30,0,-45,-45,1,2102.13,0
5,5,39,2,2,111,3,30,0,45,45,1,7778.04,0
5,5,39,3,2,111,3,30,0,-45,-45,1,4831.67,0
5,5,39,4,2,74,2,40,1,45,45,1,11675.6,0
5,5,39,5,2,111,3,20,1,45,45,1,1603.22,0
5,5,39,6,2,92.5,2.5,30,1,-45,-45,1,8511.06,0
5,5,39,7,2,55.5,1.5,10,1,45,45,1,1465.49,0
5,5,40,1,2,55.5,1.5,30,0,45,45,1,2736.23,0
5,5,40,2,2,55.5,1.5,30,0,-45,-45,1,2943.84,0
5,5,40,3,2,55.5,1.5,30,0,45,45,1,2745.36,0
5,5,40,4,2,55.5,1.5,30,0,-45,-45,1,1447.72,0
5,5,40,5,2,111,3,30,1,-45,-45,1,1684.62,0
5,5,40,6,2,92.5,2.5,10,1,-45,-45,1,1004.4,0
5,5,40,7,2,74,2,20,1,-45,-45,1,1378.61,0
5,5,40,8,2,55.5,1.5,40,1,-45,-45,1,9286.44,0
5,6,41,1,1,74,2,20,0,45,45,1,1663.39,0
5,6,41,2,1,74,2,20,0,-45,-45,1,2237.34,0
5,6,41,3,1,74,2,20,0,-45,-45,1,3246.54,0
5,6,41,4,1,74,2,20,0,45,45,1,2250.91,0
5,6,41,5,1,74,2,40,1,-45,-45,1,1505.46,0
5,6,41,6,1,74,2,20,1,45,45,1,3180.28,0
5,6,41,7,1,74,2,10,1,45,45,1,774.06,0
5,6,41,8,1,74,2,30,1,45,45,1,882.48,0
5,6,42,1,2,111,3,20,0,-45,-45,1,4189.04,0
5,6,42,2,2,111,3,20,0,45,45,1,4087.5,0
5,6,42,3,2,55.5,1.5,10,1,-45,-45,1,1494.88,0
5,6,42,4,2,111,3,40,1,-45,-45,1,2689.57,0
5,6,42,5,2,74,2,30,1,45,45,1,5359.76,0
5,6,42,6,2,92.5,2.5,20,1,-45,-45,1,1945.13,0
5,6,43,1,1,111,3,30,0,-45,-45,1,12817.33,0
5,6,43,2,1,111,3,30,0,-45,-45,1,5175.53,0
5,6,43,3,1,111,3,10,1,45,45,1,2549.79,0
5,6,43,4,1,111,3,30,1,45,45,1,7343.37,0
5,6,43,5,1,111,3,20,1,45,45,1,3480.82,0
5,6,43,6,1,111,3,40,1,-45,-45,1,7129.55,0
5,6,44,1,1,55.5,1.5,30,0,-45,-45,1,6594.9,0
5,6,44,2,1,55.5,1.5,30,0,45,45,1,6185.27,0
5,6,44,3,1,55.5,1.5,30,0,-45,-45,1,1338.98,0
5,6,44,4,1,55.5,1.5,30,0,-45,-45,1,5411.4,0
5,6,44,5,1,55.5,1.5,10,1,-45,-45,1,1818.18,0
5,6,44,6,1,55.5,1.5,40,1,-45,-45,1,1581.59,0
5,6,44,7,1,55.5,1.5,30,1,45,45,1,2875.98,0
5,6,44,8,1,55.5,1.5,20,1,45,45,1,1246.05,0
5,6,45,1,1,74,2,40,0,-45,-45,1,5187,0
5,6,45,2,1,74,2,40,0,45,45,1,14529.67,0
5,6,45,3,1,74,2,40,0,-45,-45,1,2266.1,0
5,6,45,4,1,74,2,40,0,-45,-45,1,7083.94,0
5,6,45,5,1,74,2,40,1,45,45,1,3584.17,0
5,6,45,6,1,74,2,10,1,45,45,1,2015.86,0
5,6,45,7,1,74,2,30,1,45,-45,0,3167.38,0
5,6,45,8,1,74,2,20,1,45,45,1,16.85,0
5,6,46,1,1,74,2,10,0,45,45,1,2118.37,0
5,6,46,2,1,74,2,10,0,-45,-45,1,1545.12,0
5,6,46,3,1,74,2,10,0,-45,-45,1,1473.97,0
5,6,46,4,1,74,2,10,0,45,45,1,1983.67,0
5,6,46,5,1,74,2,40,1,-45,-45,1,4716.94,0
5,6,46,6,1,74,2,30,1,-45,-45,1,1953.84,0
5,6,46,7,1,74,2,20,1,-45,-45,1,1384.23,0
5,6,46,8,1,74,2,10,1,-45,-45,1,881.51,0
5,6,47,1,1,74,2,40,0,-45,-45,1,2891.71,0
5,6,47,2,1,74,2,40,0,45,45,1,2126.2,0
5,6,47,3,1,74,2,40,0,-45,-45,1,9991.68,0
5,6,47,4,1,74,2,40,0,-45,-45,1,4919.76,0
5,6,47,5,1,74,2,40,1,45,45,1,3993.06,0
5,6,47,6,1,74,2,30,1,-45,-45,1,4583.46,0
5,6,47,7,1,74,2,20,1,45,45,1,7157.15,0
5,6,47,8,1,74,2,10,1,-45,-45,1,1108.86,0
5,6,48,1,2,111,3,30,0,-45,-45,1,15311.03,0
5,6,48,2,2,111,3,30,0,-45,-45,1,8459.14,0
5,6,48,3,2,111,3,30,0,-45,-45,1,5530.05,0
5,6,48,4,2,92.5,2.5,20,1,-45,-45,1,4693.35,0
5,6,48,5,2,55.5,1.5,10,1,45,45,1,1785.62,0
5,6,48,6,2,111,3,30,1,45,45,1,6042.59,0
5,6,48,7,2,74,2,40,1,45,45,1,7434.61,0
5,7,49,1,2,55.5,1.5,10,0,45,45,1,2492.36,0
5,7,49,2,2,55.5,1.5,10,0,45,45,1,1352.73,0
5,7,49,3,2,55.5,1.5,10,0,-45,-45,1,1602.58,0
5,7,49,4,2,92.5,2.5,40,1,-45,-45,1,7816.41,0
5,7,49,5,2,74,2,20,1,-45,-45,1,1885.08,0
5,7,49,6,2,55.5,1.5,30,1,45,45,1,3104.93,0
5,7,49,7,2,111,3,10,1,45,45,1,879.81,0
5,7,50,1,2,74,2,20,0,45,-45,0,4949.69,0
5,7,50,2,2,74,2,20,0,45,45,1,3819.86,0
5,7,50,3,2,74,2,20,0,45,45,1,2205.7,0
5,7,50,4,2,74,2,20,0,45,45,1,1585.61,0
5,7,50,5,2,111,3,10,1,45,45,1,1802.82,0
5,7,50,6,2,55.5,1.5,20,1,-45,-45,1,1794.22,0
5,7,50,7,2,74,2,40,1,-45,-45,1,4464.86,0
5,7,50,8,2,92.5,2.5,30,1,-45,-45,1,12992.86,0
5,7,51,1,1,92.5,2.5,20,0,45,45,1,3818.94,0
5,7,51,2,1,92.5,2.5,20,0,-45,-45,1,3577.69,0
5,7,51,3,1,92.5,2.5,20,0,45,45,1,4425.97,0
5,7,51,4,1,92.5,2.5,10,1,45,45,1,2232.33,0
5,7,51,5,1,92.5,2.5,20,1,45,45,1,3780.73,0
5,7,51,6,1,92.5,2.5,40,1,45,45,1,3858.5,0
5,7,51,7,1,92.5,2.5,30,1,45,45,1,3422.55,0
5,7,52,1,1,55.5,1.5,20,0,-45,-45,1,2236.99,0
5,7,52,2,1,55.5,1.5,20,0,-45,-45,1,1844.27,0
5,7,52,3,1,55.5,1.5,20,0,45,45,1,1889.72,0
5,7,52,4,1,55.5,1.5,20,0,-45,-45,1,6676.2,0
5,7,52,5,1,55.5,1.5,40,1,-45,-45,1,2909.07,0
5,7,52,6,1,55.5,1.5,10,1,45,45,1,1541.61,0
5,7,52,7,1,55.5,1.5,20,1,45,45,1,2909.34,0
5,7,52,8,1,55.5,1.5,30,1,-45,-45,1,1029.46,0
5,7,53,1,2,74,2,10,0,45,45,1,1379.44,0
5,7,53,2,2,74,2,10,0,-45,-45,1,2361.31,0
5,7,53,3,2,55.5,1.5,30,1,-45,-45,1,1750.77,0
5,7,53,4,2,74,2,10,1,45,45,1,1698.59,0
5,7,53,5,2,111,3,20,1,45,45,1,3055.45,0
5,7,53,6,2,92.5,2.5,40,1,-45,-45,1,2026.54,0
5,7,54,1,2,74,2,40,0,-45,-45,1,9255.51,0
5,7,54,2,2,74,2,40,0,45,45,1,3386.67,0
5,7,54,3,2,111,3,30,1,45,45,1,3105.3,0
5,7,54,4,2,55.5,1.5,10,1,-45,-45,1,1725.94,0
5,7,54,5,2,74,2,20,1,-45,-45,1,1419.8,0
5,7,54,6,2,92.5,2.5,40,1,45,45,1,3514.69,0
5,7,55,1,2,55.5,1.5,30,0,45,45,1,4071.2,0
