"expName","subjectId","subjectGender","subjectAge","session","block","trial","targetOri","targetPos","distrMean","dtype","dsd","targetDist","t_dist_to_prev_d","answer","correctAnswer","rt","correct","prev_correct"
"distr_stats",1,"F",26,1,0,"0",59,11,174,"norm",10,65,NA,"i","i",949.935604476,1,NA
"distr_stats",1,"F",26,1,0,"1",59,24,174,"norm",10,65,NA,"j","j",732.896350745,1,1
"distr_stats",1,"F",26,1,0,"2",59,23,174,"norm",10,65,NA,"i","i",623.737920323,1,1
"distr_stats",1,"F",26,1,0,"3",59,26,174,"norm",10,65,NA,"j","j",795.503561751,1,1
"distr_stats",1,"F",26,1,0,"4",59,7,174,"norm",10,65,NA,"j","j",888.690341396,1,1
"distr_stats",1,"F",26,1,0,"5",59,17,174,"norm",10,65,NA,"i","i",577.098790114,1,1
"distr_stats",1,"F",26,1,0,"6",59,17,174,"norm",10,65,NA,"i","i",576.836396477,1,1
"distr_stats",1,"F",26,1,1,"0",51,14,154,"norm",15,77,57,"j","j",670.536360955,1,1
"distr_stats",1,"F",26,1,1,"1",51,9,154,"norm",15,77,57,"i","i",2811.64924912,1,1
"distr_stats",1,"F",26,1,1,"2",51,14,154,"norm",15,77,57,"j","j",1249.26917819,1,1
"distr_stats",1,"F",26,1,1,"3",51,5,154,"norm",15,77,57,"i","i",1327.0443479,1,1
"distr_stats",1,"F",26,1,1,"4",51,28,154,"norm",15,77,57,"i","i",1013.98642673,1,1
"distr_stats",1,"F",26,1,1,"5",51,12,154,"norm",15,77,57,"j","j",826.759195628,1,1
"distr_stats",1,"F",26,1,2,"0",101,32,174,"norm",5,-73,-53,"j","j",998.734573466,1,1
"distr_stats",1,"F",26,1,2,"1",101,29,174,"norm",5,-73,-53,"i","i",655.550917555,1,1
"distr_stats",1,"F",26,1,2,"2",101,18,174,"norm",5,-73,-53,"j","j",717.747134446,1,1
"distr_stats",1,"F",26,1,2,"3",101,9,174,"norm",5,-73,-53,"i","i",780.359700423,1,1
"distr_stats",1,"F",26,1,2,"4",101,33,174,"norm",5,-73,-53,"i","i",733.1167971,1,1
"distr_stats",1,"F",26,1,2,"5",101,33,174,"norm",5,-73,-53,"i","i",608.127283921,1,1
"distr_stats",1,"F",26,1,3,"0",63,17,154,"norm",10,89,69,"i","i",1045.50579299,1,1
"distr_stats",1,"F",26,1,3,"1",63,33,154,"norm",10,89,69,"i","i",749.362890202,1,1
"distr_stats",1,"F",26,1,3,"2",63,15,154,"norm",10,89,69,"i","i",795.56335894,1,1
"distr_stats",1,"F",26,1,3,"3",63,5,154,"norm",10,89,69,"i","i",670.829099435,1,1
"distr_stats",1,"F",26,1,3,"4",63,12,154,"norm",10,89,69,"j","j",780.308828188,1,1
"distr_stats",1,"F",26,1,4,"0",10,22,114,"norm",5,76,36,"i","i",733.115012109,1,1
"distr_stats",1,"F",26,1,4,"1",10,22,114,"norm",5,76,36,"i","i",608.057223035,1,1
"distr_stats",1,"F",26,1,4,"2",10,14,114,"norm",5,76,36,"j","j",749.05319431,1,1
"distr_stats",1,"F",26,1,4,"3",10,8,114,"norm",5,76,36,"j","j",733.158298135,1,1
"distr_stats",1,"F",26,1,4,"4",10,13,114,"norm",5,76,36,"j","j",686.492393064,1,1
"distr_stats",1,"F",26,1,4,"5",10,5,114,"norm",5,76,36,"i","i",701.881244369,1,1
"distr_stats",1,"F",26,1,4,"6",10,1,114,"norm",5,76,36,"j","j",624.12169333,1,1
"distr_stats",1,"F",26,1,5,"0",122,16,34,"norm",10,88,8,"i","i",826.996599395,1,1
"distr_stats",1,"F",26,1,5,"1",122,22,34,"norm",10,88,8,"i","i",670.382851753,1,1
"distr_stats",1,"F",26,1,5,"2",122,1,34,"norm",10,88,8,"j","j",623.708467976,1,1
"distr_stats",1,"F",26,1,5,"3",122,22,34,"norm",10,88,8,"i","i",639.212004936,1,1
"distr_stats",1,"F",26,1,5,"4",122,35,34,"norm",10,88,8,"i","i",1311.30206843,1,1
"distr_stats",1,"F",26,1,6,"0",108,28,174,"norm",15,-66,74,"i","i",639.592654208,1,1
"distr_stats",1,"F",26,1,6,"1",108,1,174,"norm",15,-66,74,"j","j",686.101926342,1,1
"distr_stats",1,"F",26,1,6,"2",108,34,174,"norm",15,-66,74,"i","i",655.486657889,1,1
"distr_stats",1,"F",26,1,6,"3",108,30,174,"norm",15,-66,74,"i","j",1342.48674892,0,1
"distr_stats",1,"F",26,1,6,"4",108,16,174,"norm",15,-66,74,"i","i",514.472836706,1,0
"distr_stats",1,"F",26,1,7,"0",151,6,34,"norm",5,-63,-23,"j","j",623.604938514,1,1
"distr_stats",1,"F",26,1,7,"1",151,20,34,"norm",5,-63,-23,"j","j",717.783726755,1,1
"distr_stats",1,"F",26,1,7,"2",151,13,34,"norm",5,-63,-23,"j","j",624.007007675,1,1
"distr_stats",1,"F",26,1,7,"3",151,25,34,"norm",5,-63,-23,"j","j",1420.8353469,1,1
"distr_stats",1,"F",26,1,7,"4",151,25,34,"norm",5,-63,-23,"j","j",701.89061557,1,1
"distr_stats",1,"F",26,1,7,"5",151,16,34,"norm",5,-63,-23,"i","i",577.062644051,1,1
"distr_stats",1,"F",26,1,7,"6",151,23,34,"norm",5,-63,-23,"i","i",576.949743388,1,1
"distr_stats",1,"F",26,1,8,"0",6,17,94,"norm",10,-88,-28,"i","i",608.255357005,1,1
"distr_stats",1,"F",26,1,8,"1",6,18,94,"norm",10,-88,-28,"j","j",608.185296119,1,1
"distr_stats",1,"F",26,1,8,"2",6,6,94,"norm",10,-88,-28,"j","j",545.664657164,1,1
"distr_stats",1,"F",26,1,8,"3",6,29,94,"norm",10,-88,-28,"i","i",607.799291875,1,1
"distr_stats",1,"F",26,1,8,"4",6,0,94,"norm",10,-88,-28,"j","j",655.288970166,1,1
"distr_stats",1,"F",26,1,9,"0",38,4,134,"norm",15,84,-56,"i","i",1577.13672117,1,1
"distr_stats",1,"F",26,1,9,"1",38,31,134,"norm",15,84,-56,"j","j",842.559487295,1,1
"distr_stats",1,"F",26,1,9,"2",38,9,134,"norm",15,84,-56,"i","i",1123.35370107,1,1
"distr_stats",1,"F",26,1,9,"3",38,11,134,"norm",15,84,-56,"i","i",1264.37867844,1,1
"distr_stats",1,"F",26,1,9,"4",38,34,134,"norm",15,84,-56,"i","i",717.760968124,1,1
"distr_stats",1,"F",26,1,9,"5",38,30,134,"norm",15,84,-56,"j","j",1139.248151,1,1
"distr_stats",1,"F",26,1,10,"0",177,13,74,"norm",10,-77,43,"j","j",748.852382854,1,1
"distr_stats",1,"F",26,1,10,"1",177,12,74,"norm",10,-77,43,"j","j",576.891284942,1,1
"distr_stats",1,"F",26,1,10,"2",177,19,74,"norm",10,-77,43,"j","j",576.911812335,1,1
"distr_stats",1,"F",26,1,10,"3",177,35,74,"norm",10,-77,43,"i","i",561.165516637,1,1
"distr_stats",1,"F",26,1,10,"4",177,27,74,"norm",10,-77,43,"i","i",576.889499951,1,1
"distr_stats",1,"F",26,1,10,"5",177,18,74,"norm",10,-77,43,"j","j",545.753014205,1,1
"distr_stats",1,"F",26,1,10,"6",177,27,74,"norm",10,-77,43,"i","i",592.594294615,1,1
"distr_stats",1,"F",26,1,11,"0",61,10,174,"norm",15,67,-13,"i","i",655.285400184,1,1
"distr_stats",1,"F",26,1,11,"1",61,12,174,"norm",15,67,-13,"i","j",811.514928572,0,1
"distr_stats",1,"F",26,1,11,"2",61,2,174,"norm",15,67,-13,"j","j",514.273810239,1,0
"distr_stats",1,"F",26,1,11,"3",61,25,174,"norm",15,67,-13,"j","j",780.134345344,1,1
"distr_stats",1,"F",26,1,11,"4",61,32,174,"norm",15,67,-13,"j","j",780.053574514,1,1
"distr_stats",1,"F",26,1,11,"5",61,5,174,"norm",15,67,-13,"i","i",686.509796723,1,1
"distr_stats",1,"F",26,1,12,"0",3,27,74,"norm",10,-71,9,"i","i",1264.4924716,1,1
"distr_stats",1,"F",26,1,12,"1",3,21,74,"norm",10,-71,9,"i","i",624.027535069,1,1
"distr_stats",1,"F",26,1,12,"2",3,20,74,"norm",10,-71,9,"j","j",639.366406633,1,1
"distr_stats",1,"F",26,1,12,"3",3,25,74,"norm",10,-71,9,"j","j",576.79534169,1,1
"distr_stats",1,"F",26,1,12,"4",3,8,74,"norm",10,-71,9,"j","j",607.928703702,1,1
"distr_stats",1,"F",26,1,12,"5",3,31,74,"norm",10,-71,9,"j","j",670.357415635,1,1
"distr_stats",1,"F",26,1,13,"0",96,29,174,"norm",15,-78,22,"i","i",608.23125963,1,1
"distr_stats",1,"F",26,1,13,"1",96,10,174,"norm",15,-78,22,"i","i",576.679317293,1,1
"distr_stats",1,"F",26,1,13,"2",96,22,174,"norm",15,-78,22,"i","i",530.051343275,1,1
"distr_stats",1,"F",26,1,13,"3",96,34,174,"norm",15,-78,22,"i","i",576.888161208,1,1
"distr_stats",1,"F",26,1,13,"4",96,29,174,"norm",15,-78,22,"i","i",858.116127729,1,1
"distr_stats",1,"F",26,1,13,"5",96,17,174,"norm",15,-78,22,"i","i",577.006863091,1,1
"distr_stats",1,"F",26,1,14,"0",81,32,14,"norm",5,67,87,"j","j",638.984864866,1,1
"distr_stats",1,"F",26,1,14,"1",81,1,14,"norm",5,67,87,"j","j",529.911221503,1,1
"distr_stats",1,"F",26,1,14,"2",81,22,14,"norm",5,67,87,"i","i",530.260633438,1,1
"distr_stats",1,"F",26,1,14,"3",81,33,14,"norm",5,67,87,"i","i",561.169086619,1,1
"distr_stats",1,"F",26,1,14,"4",81,11,14,"norm",5,67,87,"i","i",576.951528379,1,1
"distr_stats",1,"F",26,1,14,"5",81,34,14,"norm",5,67,87,"i","i",592.490318905,1,1
"distr_stats",1,"F",26,1,15,"0",113,23,14,"norm",15,-81,-81,"i","i",639.840767919,1,1
"distr_stats",1,"F",26,1,15,"1",113,17,14,"norm",15,-81,-81,"i","i",764.467481733,1,1
"distr_stats",1,"F",26,1,15,"2",113,35,14,"norm",15,-81,-81,"i","i",530.24099854,1,1
"distr_stats",1,"F",26,1,15,"3",113,15,14,"norm",15,-81,-81,"i","i",698.917713514,1,1
"distr_stats",1,"F",26,1,15,"4",113,30,14,"norm",15,-81,-81,"j","j",608.05231431,1,1
"distr_stats",1,"F",26,1,15,"5",113,14,14,"norm",15,-81,-81,"j","j",654.942235717,1,1
"distr_stats",1,"F",26,1,15,"6",113,24,14,"norm",15,-81,-81,"j","j",623.823599878,1,1
"distr_stats",1,"F",26,1,16,"0",108,4,174,"norm",10,-66,-86,"i","i",733.01282139,1,1
"distr_stats",1,"F",26,1,16,"1",108,34,174,"norm",10,-66,-86,"i","i",514.319327503,1,1
"distr_stats",1,"F",26,1,16,"2",108,8,174,"norm",10,-66,-86,"j","j",530.037509597,1,1
"distr_stats",1,"F",26,1,16,"3",108,23,174,"norm",10,-66,-86,"i","i",574.645320359,1,1
"distr_stats",1,"F",26,1,16,"4",108,13,174,"norm",10,-66,-86,"j","j",608.04071187,1,1
"distr_stats",1,"F",26,1,16,"5",108,20,174,"norm",10,-66,-86,"j","j",686.682048329,1,1
"distr_stats",1,"F",26,1,17,"0",113,7,34,"norm",5,79,-61,"j","j",529.717996257,1,1
"distr_stats",1,"F",26,1,17,"1",113,33,34,"norm",5,79,-61,"i","i",545.440640828,1,1
"distr_stats",1,"F",26,1,17,"2",113,7,34,"norm",5,79,-61,"j","j",574.135259259,1,1
"distr_stats",1,"F",26,1,17,"3",113,7,34,"norm",5,79,-61,"j","j",686.52006042,1,1
"distr_stats",1,"F",26,1,17,"4",113,29,34,"norm",5,79,-61,"i","i",467.053665548,1,1
"distr_stats",1,"F",26,1,17,"5",113,29,34,"norm",5,79,-61,"i","i",514.253282846,1,1
"distr_stats",1,"F",26,1,17,"6",113,25,34,"norm",5,79,-61,"j","j",514.382248426,1,1
"distr_stats",1,"F",26,1,18,"0",139,15,74,"norm",15,65,-75,"i","i",1248.92556747,1,1
"distr_stats",1,"F",26,1,18,"1",139,13,74,"norm",15,65,-75,"j","j",607.742172171,1,1
"distr_stats",1,"F",26,1,18,"2",139,30,74,"norm",15,65,-75,"j","j",1920.60686809,1,1
"distr_stats",1,"F",26,1,18,"3",139,8,74,"norm",15,65,-75,"j","j",1092.45417284,1,1
"distr_stats",1,"F",26,1,18,"4",139,30,74,"norm",15,65,-75,"j","j",670.975468674,1,1
"distr_stats",1,"F",26,1,18,"5",139,5,74,"norm",15,65,-75,"i","i",842.440339164,1,1
"distr_stats",1,"F",26,1,18,"6",139,21,74,"norm",15,65,-75,"i","i",623.961490412,1,1
"distr_stats",1,"F",26,1,19,"0",143,25,34,"norm",5,-71,69,"j","j",686.574948885,1,1
"distr_stats",1,"F",26,1,19,"1",143,25,34,"norm",5,-71,69,"j","j",467.465552158,1,1
"distr_stats",1,"F",26,1,19,"2",143,19,34,"norm",5,-71,69,"j","j",545.396462307,1,1
"distr_stats",1,"F",26,1,19,"3",143,30,34,"norm",5,-71,69,"j","j",654.986860485,1,1
"distr_stats",1,"F",26,1,19,"4",143,31,34,"norm",5,-71,69,"j","j",764.411700773,1,1
"distr_stats",1,"F",26,1,20,"0",103,18,174,"norm",15,-71,69,"j","j",530.42574508,1,1
"distr_stats",1,"F",26,1,20,"1",103,7,174,"norm",15,-71,69,"i","j",717.818087827,0,1
"distr_stats",1,"F",26,1,20,"2",103,4,174,"norm",15,-71,69,"j","i",451.887045589,0,0
"distr_stats",1,"F",26,1,20,"3",103,29,174,"norm",15,-71,69,"i","i",467.81362535,1,0
"distr_stats",1,"F",26,1,20,"4",103,15,174,"norm",15,-71,69,"i","i",826.697613448,1,1
"distr_stats",1,"F",26,1,21,"0",163,10,54,"norm",5,-71,-11,"i","i",592.791982338,1,1
"distr_stats",1,"F",26,1,21,"1",163,19,54,"norm",5,-71,-11,"j","j",655.334041182,1,1
"distr_stats",1,"F",26,1,21,"2",163,5,54,"norm",5,-71,-11,"i","i",576.944834663,1,1
"distr_stats",1,"F",26,1,21,"3",163,10,54,"norm",5,-71,-11,"i","i",639.541781972,1,1
"distr_stats",1,"F",26,1,21,"4",163,5,54,"norm",5,-71,-11,"i","i",530.195481276,1,1
"distr_stats",1,"F",26,1,22,"0",15,15,114,"norm",15,81,-39,"i","i",717.616383875,1,1
"distr_stats",1,"F",26,1,22,"1",15,10,114,"norm",15,81,-39,"i","i",608.513734413,1,1
"distr_stats",1,"F",26,1,22,"2",15,19,114,"norm",15,81,-39,"j","j",623.972646604,1,1
"distr_stats",1,"F",26,1,22,"3",15,24,114,"norm",15,81,-39,"j","j",576.841751449,1,1
"distr_stats",1,"F",26,1,22,"4",15,23,114,"norm",15,81,-39,"i","i",592.793321081,1,1
"distr_stats",1,"F",26,1,22,"5",15,22,114,"norm",15,81,-39,"i","i",623.749969011,1,1
"distr_stats",1,"F",26,1,23,"0",142,24,74,"norm",10,68,28,"j","j",561.630506721,1,1
"distr_stats",1,"F",26,1,23,"1",142,28,74,"norm",10,68,28,"i","i",561.593021916,1,1
"distr_stats",1,"F",26,1,23,"2",142,21,74,"norm",10,68,28,"i","i",733.027101316,1,1
"distr_stats",1,"F",26,1,23,"3",142,18,74,"norm",10,68,28,"j","j",592.496566372,1,1
"distr_stats",1,"F",26,1,23,"4",142,27,74,"norm",10,68,28,"i","i",561.747869862,1,1
"distr_stats",1,"F",26,1,23,"5",142,27,74,"norm",10,68,28,"i","i",561.538133451,1,1
"distr_stats",1,"F",26,1,24,"0",36,34,154,"norm",15,62,-38,"i","i",670.595265649,1,1
"distr_stats",1,"F",26,1,24,"1",36,11,154,"norm",15,62,-38,"i","i",1014.43088942,1,1
"distr_stats",1,"F",26,1,24,"2",36,28,154,"norm",15,62,-38,"i","i",1514.52415519,1,1
"distr_stats",1,"F",26,1,24,"3",36,7,154,"norm",15,62,-38,"j","j",639.365514138,1,1
"distr_stats",1,"F",26,1,24,"4",36,19,154,"norm",15,62,-38,"j","j",936.260790517,1,1
"distr_stats",1,"F",26,1,24,"5",36,30,154,"norm",15,62,-38,"i","j",561.470750051,0,1
"distr_stats",1,"F",26,1,25,"0",50,9,154,"norm",5,76,76,"i","i",561.501541141,1,0
"distr_stats",1,"F",26,1,25,"1",50,24,154,"norm",5,76,76,"j","j",655.018097823,1,1
"distr_stats",1,"F",26,1,25,"2",50,33,154,"norm",5,76,76,"i","i",592.549669846,1,1
"distr_stats",1,"F",26,1,25,"3",50,35,154,"norm",5,76,76,"i","i",545.266604232,1,1
"distr_stats",1,"F",26,1,25,"4",50,14,154,"norm",5,76,76,"j","j",764.420625727,1,1
"distr_stats",1,"F",26,1,26,"0",102,30,174,"norm",15,-72,-52,"j","j",498.289218279,1,1
"distr_stats",1,"F",26,1,26,"1",102,18,174,"norm",15,-72,-52,"j","j",561.334644509,1,1
"distr_stats",1,"F",26,1,26,"2",102,0,174,"norm",15,-72,-52,"j","j",593.090522037,1,1
"distr_stats",1,"F",26,1,26,"3",102,22,174,"norm",15,-72,-52,"i","i",561.522068535,1,1
"distr_stats",1,"F",26,1,26,"4",102,22,174,"norm",15,-72,-52,"i","i",498.850597863,1,1
"distr_stats",1,"F",26,1,26,"5",102,18,174,"norm",15,-72,-52,"j","j",701.99459128,1,1
"distr_stats",1,"F",26,1,27,"0",83,21,14,"norm",5,69,89,"i","i",624.109198395,1,1
"distr_stats",1,"F",26,1,27,"1",83,30,14,"norm",5,69,89,"j","j",701.655889289,1,1
"distr_stats",1,"F",26,1,27,"2",83,21,14,"norm",5,69,89,"i","i",561.17845782,1,1
"distr_stats",1,"F",26,1,27,"3",83,24,14,"norm",5,69,89,"j","j",701.625990695,1,1
"distr_stats",1,"F",26,1,27,"4",83,26,14,"norm",5,69,89,"j","j",811.381946763,1,1
"distr_stats",1,"F",26,1,28,"0",148,34,74,"norm",15,74,-46,"i","i",1701.4126843,1,1
"distr_stats",1,"F",26,1,28,"1",148,18,74,"norm",15,74,-46,"j","j",655.539761363,1,1
"distr_stats",1,"F",26,1,28,"2",148,1,74,"norm",15,74,-46,"i","j",701.7982423,0,1
"distr_stats",1,"F",26,1,28,"3",148,18,74,"norm",15,74,-46,"j","j",560.956226474,1,0
"distr_stats",1,"F",26,1,28,"4",148,35,74,"norm",15,74,-46,"i","i",795.364778722,1,1
"distr_stats",1,"F",26,1,28,"5",148,35,74,"norm",15,74,-46,"i","i",1123.62546591,1,1
"distr_stats",1,"F",26,1,28,"6",148,10,74,"norm",15,74,-46,"i","i",1185.93458346,1,1
"distr_stats",1,"F",26,1,29,"0",47,22,154,"norm",10,73,-27,"j","i",1248.9773322,0,1
"distr_stats",1,"F",26,1,29,"1",47,16,154,"norm",10,73,-27,"i","i",498.555181898,1,0
"distr_stats",1,"F",26,1,29,"2",47,28,154,"norm",10,73,-27,"i","i",686.233569408,1,1
"distr_stats",1,"F",26,1,29,"3",47,10,154,"norm",10,73,-27,"i","i",717.849771412,1,1
"distr_stats",1,"F",26,1,29,"4",47,14,154,"norm",10,73,-27,"i","j",2018.62115516,0,1
"distr_stats",1,"F",26,1,30,"0",88,25,154,"norm",5,-66,-66,"j","j",737.672985931,1,0
"distr_stats",1,"F",26,1,30,"1",88,10,154,"norm",5,-66,-66,"i","i",624.127494549,1,1
"distr_stats",1,"F",26,1,30,"2",88,28,154,"norm",5,-66,-66,"i","i",530.216901165,1,1
"distr_stats",1,"F",26,1,30,"3",88,17,154,"norm",5,-66,-66,"i","i",545.694555759,1,1
"distr_stats",1,"F",26,1,30,"4",88,20,154,"norm",5,-66,-66,"j","j",1029.98172864,1,1
"distr_stats",1,"F",26,1,30,"5",88,16,154,"norm",5,-66,-66,"i","i",592.720136461,1,1
"distr_stats",1,"F",26,1,30,"6",88,8,154,"norm",5,-66,-66,"j","j",529.600186869,1,1
"distr_stats",1,"F",26,1,31,"0",117,16,14,"norm",10,-77,-37,"i","i",592.588047147,1,1
"distr_stats",1,"F",26,1,31,"1",117,16,14,"norm",10,-77,-37,"i","i",545.602182489,1,1
"distr_stats",1,"F",26,1,31,"2",117,5,14,"norm",10,-77,-37,"i","i",576.839520211,1,1
"distr_stats",1,"F",26,1,31,"3",117,34,14,"norm",10,-77,-37,"i","i",655.236759187,1,1
"distr_stats",1,"F",26,1,31,"4",117,22,14,"norm",10,-77,-37,"i","i",561.543042176,1,1
"distr_stats",1,"F",26,1,32,"0",86,19,154,"norm",15,-68,72,"j","j",1279.89828032,1,1
"distr_stats",1,"F",26,1,32,"1",86,5,154,"norm",15,-68,72,"i","i",1092.10877714,1,1
"distr_stats",1,"F",26,1,32,"2",86,2,154,"norm",15,-68,72,"j","j",1608.36245645,1,1
"distr_stats",1,"F",26,1,32,"3",86,6,154,"norm",15,-68,72,"j","j",701.475605226,1,1
"distr_stats",1,"F",26,1,32,"4",86,13,154,"norm",15,-68,72,"j","j",842.833483372,1,1
"distr_stats",1,"F",26,1,33,"0",51,11,154,"norm",5,77,77,"i","i",592.802246034,1,1
"distr_stats",1,"F",26,1,33,"1",51,13,154,"norm",5,77,77,"j","j",545.620478643,1,1
"distr_stats",1,"F",26,1,33,"2",51,12,154,"norm",5,77,77,"j","j",530.127205381,1,1
"distr_stats",1,"F",26,1,33,"3",51,22,154,"norm",5,77,77,"i","i",701.829479638,1,1
"distr_stats",1,"F",26,1,33,"4",51,7,154,"norm",5,77,77,"j","j",514.35458107,1,1
"distr_stats",1,"F",26,1,33,"5",51,28,154,"norm",5,77,77,"i","i",576.644063726,1,1
"distr_stats",1,"F",26,1,34,"0",66,33,134,"norm",10,-68,-88,"i","i",3124.13106453,1,1
"distr_stats",1,"F",26,1,34,"1",66,35,134,"norm",10,-68,-88,"i","i",1013.9150271,1,1
"distr_stats",1,"F",26,1,34,"2",66,19,134,"norm",10,-68,-88,"j","j",608.238845841,1,1
"distr_stats",1,"F",26,1,34,"3",66,10,134,"norm",10,-68,-88,"i","i",1530.24546102,1,1
"distr_stats",1,"F",26,1,34,"4",66,10,134,"norm",10,-68,-88,"i","i",592.563949772,1,1
"distr_stats",1,"F",26,1,35,"0",87,35,14,"norm",15,73,-47,"i","i",779.892479101,1,1
"distr_stats",1,"F",26,1,35,"1",87,1,14,"norm",15,73,-47,"j","j",607.953247325,1,1
"distr_stats",1,"F",26,1,35,"2",87,3,14,"norm",15,73,-47,"i","i",1013.98151801,1,1
"distr_stats",1,"F",26,1,35,"3",87,29,14,"norm",15,73,-47,"i","i",592.831698381,1,1
"distr_stats",1,"F",26,1,35,"4",87,4,14,"norm",15,73,-47,"i","i",670.678713966,1,1
"distr_stats",1,"F",26,1,35,"5",87,11,14,"norm",15,73,-47,"i","i",592.394821901,1,1
"distr_stats",1,"F",26,1,36,"0",133,5,54,"norm",5,79,-61,"i","i",670.67603648,1,1
"distr_stats",1,"F",26,1,36,"1",133,23,54,"norm",5,79,-61,"i","i",499.123701444,1,1
"distr_stats",1,"F",26,1,36,"2",133,31,54,"norm",5,79,-61,"j","j",623.943640505,1,1
"distr_stats",1,"F",26,1,36,"3",133,24,54,"norm",5,79,-61,"j","j",608.472233379,1,1
"distr_stats",1,"F",26,1,36,"4",133,25,54,"norm",5,79,-61,"j","j",623.910171929,1,1
"distr_stats",1,"F",26,1,36,"5",133,26,54,"norm",5,79,-61,"j","j",764.4353519,1,1
"distr_stats",1,"F",26,1,37,"0",169,23,54,"norm",10,-65,-65,"i","i",545.6865233,1,1
"distr_stats",1,"F",26,1,37,"1",169,18,54,"norm",10,-65,-65,"j","j",608.058561778,1,1
"distr_stats",1,"F",26,1,37,"2",169,20,54,"norm",10,-65,-65,"j","j",654.819517604,1,1
"distr_stats",1,"F",26,1,37,"3",169,19,54,"norm",10,-65,-65,"j","j",623.762910193,1,1
"distr_stats",1,"F",26,1,37,"4",169,10,54,"norm",10,-65,-65,"i","i",670.782243428,1,1
"distr_stats",1,"F",26,1,38,"0",25,7,94,"norm",5,-69,-29,"j","j",608.133531388,1,1
"distr_stats",1,"F",26,1,38,"1",25,10,94,"norm",5,-69,-29,"i","i",592.70674903,1,1
"distr_stats",1,"F",26,1,38,"2",25,0,94,"norm",5,-69,-29,"j","j",576.954652112,1,1
"distr_stats",1,"F",26,1,38,"3",25,27,94,"norm",5,-69,-29,"i","i",545.695894502,1,1
"distr_stats",1,"F",26,1,38,"4",25,26,94,"norm",5,-69,-29,"j","j",623.691064317,1,1
"distr_stats",1,"F",26,1,38,"5",25,26,94,"norm",5,-69,-29,"j","j",608.254018262,1,1
"distr_stats",1,"F",26,1,39,"0",65,16,174,"norm",15,71,-29,"i","i",1592.75896001,1,1
"distr_stats",1,"F",26,1,39,"1",65,30,174,"norm",15,71,-29,"j","j",670.704150084,1,1
"distr_stats",1,"F",26,1,39,"2",65,12,174,"norm",15,71,-29,"j","j",592.248006414,1,1
"distr_stats",1,"F",26,1,39,"3",65,17,174,"norm",15,71,-29,"i","i",562.036592112,1,1
"distr_stats",1,"F",26,1,39,"4",65,11,174,"norm",15,71,-29,"i","i",670.551979624,1,1
"distr_stats",1,"F",26,1,39,"5",65,21,174,"norm",15,71,-29,"i","i",1608.18841985,1,1
"distr_stats",1,"F",26,1,40,"0",113,21,14,"norm",10,-81,-61,"i","i",593.164152904,1,1
"distr_stats",1,"F",26,1,40,"1",113,17,14,"norm",10,-81,-61,"i","i",576.966254552,1,1
"distr_stats",1,"F",26,1,40,"2",113,10,14,"norm",10,-81,-61,"i","i",639.316873141,1,1
"distr_stats",1,"F",26,1,40,"3",113,5,14,"norm",10,-81,-61,"i","i",874.093579726,1,1
"distr_stats",1,"F",26,1,40,"4",113,4,14,"norm",10,-81,-61,"i","i",576.887268713,1,1
"distr_stats",1,"F",26,1,40,"5",113,10,14,"norm",10,-81,-61,"i","i",920.435508979,1,1
"distr_stats",1,"F",26,1,40,"6",113,7,14,"norm",10,-81,-61,"j","j",558.844582444,1,1
"distr_stats",1,"F",26,1,41,"0",72,25,134,"norm",15,-62,58,"i","j",1826.90377988,0,1
"distr_stats",1,"F",26,1,41,"1",72,3,134,"norm",15,-62,58,"j","i",1701.93256285,0,0
"distr_stats",1,"F",26,1,41,"2",72,8,134,"norm",15,-62,58,"i","j",655.48442665,0,0
"distr_stats",1,"F",26,1,41,"3",72,32,134,"norm",15,-62,58,"j","j",3639.31821188,1,0
"distr_stats",1,"F",26,1,41,"4",72,6,134,"norm",15,-62,58,"j","j",1108.27766939,1,1
"distr_stats",1,"F",26,1,42,"0",29,15,134,"norm",10,75,75,"i","i",764.078800002,1,1
"distr_stats",1,"F",26,1,42,"1",29,33,134,"norm",10,75,75,"i","i",670.344028205,1,1
"distr_stats",1,"F",26,1,42,"2",29,12,134,"norm",10,75,75,"j","j",1030.01162723,1,1
"distr_stats",1,"F",26,1,42,"3",29,31,134,"norm",10,75,75,"j","j",811.654604096,1,1
"distr_stats",1,"F",26,1,42,"4",29,17,134,"norm",10,75,75,"i","i",701.895078047,1,1
"distr_stats",1,"F",26,1,42,"5",29,35,134,"norm",10,75,75,"i","i",998.510110882,1,1
"distr_stats",1,"F",26,1,43,"0",20,33,134,"norm",15,66,66,"i","i",1139.4503012,1,1
"distr_stats",1,"F",26,1,43,"1",20,17,134,"norm",15,66,66,"i","i",874.165425603,1,1
"distr_stats",1,"F",26,1,43,"2",20,25,134,"norm",15,66,66,"j","j",717.932773481,1,1
"distr_stats",1,"F",26,1,43,"3",20,15,134,"norm",15,66,66,"j","i",983.204707893,0,1
"distr_stats",1,"F",26,1,43,"4",20,11,134,"norm",15,66,66,"i","i",999.302646765,1,0
"distr_stats",1,"F",26,1,44,"0",26,12,94,"norm",10,-68,72,"j","j",811.580080733,1,1
"distr_stats",1,"F",26,1,44,"1",26,2,94,"norm",10,-68,72,"j","j",749.226784659,1,1
"distr_stats",1,"F",26,1,44,"2",26,35,94,"norm",10,-68,72,"i","i",624.099380945,1,1
"distr_stats",1,"F",26,1,44,"3",26,31,94,"norm",10,-68,72,"j","j",780.133899096,1,1
"distr_stats",1,"F",26,1,44,"4",26,23,94,"norm",10,-68,72,"i","i",592.94549154,1,1
"distr_stats",1,"F",26,1,44,"5",26,21,94,"norm",10,-68,72,"i","i",655.402317077,1,1
"distr_stats",1,"F",26,1,44,"6",26,3,94,"norm",10,-68,72,"i","i",764.460788018,1,1
"distr_stats",1,"F",26,1,45,"0",0,21,94,"norm",5,86,86,"i","i",686.628052359,1,1
"distr_stats",1,"F",26,1,45,"1",0,23,94,"norm",5,86,86,"i","i",514.255960332,1,1
"distr_stats",1,"F",26,1,45,"2",0,3,94,"norm",5,86,86,"i","i",670.406056632,1,1
"distr_stats",1,"F",26,1,45,"3",0,24,94,"norm",5,86,86,"j","j",608.147811314,1,1
"distr_stats",1,"F",26,1,45,"4",0,13,94,"norm",5,86,86,"j","j",530.509193397,1,1
"distr_stats",1,"F",26,1,45,"5",0,28,94,"norm",5,86,86,"i","i",702.088749541,1,1
"distr_stats",1,"F",26,1,46,"0",102,5,34,"norm",15,68,8,"i","i",1530.35746918,1,1
"distr_stats",1,"F",26,1,46,"1",102,23,34,"norm",15,68,8,"i","i",793.477597276,1,1
"distr_stats",1,"F",26,1,46,"2",102,10,34,"norm",15,68,8,"i","i",638.856791781,1,1
"distr_stats",1,"F",26,1,46,"3",102,26,34,"norm",15,68,8,"j","j",1014.35190358,1,1
"distr_stats",1,"F",26,1,46,"4",102,12,34,"norm",15,68,8,"j","j",1014.35993604,1,1
"distr_stats",1,"F",26,1,47,"0",25,26,94,"norm",10,-69,-9,"j","j",811.742068642,1,1
"distr_stats",1,"F",26,1,47,"1",25,4,94,"norm",10,-69,-9,"i","i",686.638762303,1,1
"distr_stats",1,"F",26,1,47,"2",25,29,94,"norm",10,-69,-9,"i","i",545.669565888,1,1
"distr_stats",1,"F",26,1,47,"3",25,3,94,"norm",10,-69,-9,"i","i",733.050752443,1,1
"distr_stats",1,"F",26,1,47,"4",25,34,94,"norm",10,-69,-9,"i","i",608.023308211,1,1
"distr_stats",1,"F",26,1,47,"5",25,14,94,"norm",10,-69,-9,"j","j",654.566048921,1,1
"distr_stats",1,"F",26,1,48,"0",43,0,134,"norm",15,89,-51,"j","j",951.84643705,1,1
"distr_stats",1,"F",26,1,48,"1",43,25,134,"norm",15,89,-51,"j","j",733.294849925,1,1
"distr_stats",1,"F",26,1,48,"2",43,17,134,"norm",15,89,-51,"i","i",889.232978577,1,1
"distr_stats",1,"F",26,1,48,"3",43,9,134,"norm",15,89,-51,"i","i",811.670222765,1,1
"distr_stats",1,"F",26,1,48,"4",43,27,134,"norm",15,89,-51,"i","i",608.129515159,1,1
"distr_stats",1,"F",26,1,48,"5",43,14,134,"norm",15,89,-51,"j","j",826.843090192,1,1
"distr_stats",1,"F",26,1,48,"6",43,12,134,"norm",15,89,-51,"j","j",795.289809111,1,1
"distr_stats",1,"F",26,1,49,"0",171,0,94,"norm",5,77,37,"j","j",639.454763674,1,1
"distr_stats",1,"F",26,1,49,"1",171,25,94,"norm",5,77,37,"j","j",624.067251112,1,1
"distr_stats",1,"F",26,1,49,"2",171,27,94,"norm",5,77,37,"i","i",655.488889127,1,1
"distr_stats",1,"F",26,1,49,"3",171,1,94,"norm",5,77,37,"j","j",702.056619708,1,1
"distr_stats",1,"F",26,1,49,"4",171,35,94,"norm",5,77,37,"i","i",593.177986582,1,1
"distr_stats",1,"F",26,1,49,"5",171,33,94,"norm",5,77,37,"i","i",655.569659957,1,1
"distr_stats",1,"F",26,1,50,"0",59,27,154,"norm",10,85,-35,"i","i",701.636700639,1,1
"distr_stats",1,"F",26,1,50,"1",59,1,154,"norm",10,85,-35,"j","j",732.669656923,1,1
"distr_stats",1,"F",26,1,50,"2",59,28,154,"norm",10,85,-35,"i","i",561.59793064,1,1
"distr_stats",1,"F",26,1,50,"3",59,3,154,"norm",10,85,-35,"i","i",686.597261269,1,1
"distr_stats",1,"F",26,1,50,"4",59,6,154,"norm",10,85,-35,"j","j",639.287420794,1,1
"distr_stats",1,"F",26,1,51,"0",21,29,114,"norm",5,87,47,"i","i",530.558280641,1,1
"distr_stats",1,"F",26,1,51,"1",21,4,114,"norm",5,87,47,"i","i",686.043914144,1,1
"distr_stats",1,"F",26,1,51,"2",21,19,114,"norm",5,87,47,"j","j",639.329814323,1,1
"distr_stats",1,"F",26,1,51,"3",21,29,114,"norm",5,87,47,"i","i",514.410808278,1,1
"distr_stats",1,"F",26,1,51,"4",21,22,114,"norm",5,87,47,"i","i",592.555917314,1,1
"distr_stats",1,"F",26,1,52,"0",124,24,34,"norm",15,-90,10,"j","j",607.803308104,1,1
"distr_stats",1,"F",26,1,52,"1",124,22,34,"norm",15,-90,10,"i","i",701.970493905,1,1
"distr_stats",1,"F",26,1,52,"2",124,32,34,"norm",15,-90,10,"i","j",1358.15405878,0,1
"distr_stats",1,"F",26,1,52,"3",124,7,34,"norm",15,-90,10,"j","j",655.379558445,1,0
"distr_stats",1,"F",26,1,52,"4",124,1,34,"norm",15,-90,10,"j","j",811.445313933,1,1
"distr_stats",1,"F",26,1,53,"0",129,15,54,"norm",10,75,-85,"i","i",655.126089762,1,1
"distr_stats",1,"F",26,1,53,"1",129,25,54,"norm",10,75,-85,"j","j",1076.31071671,1,1
"distr_stats",1,"F",26,1,53,"2",129,7,54,"norm",10,75,-85,"j","j",639.386487779,1,1
"distr_stats",1,"F",26,1,53,"3",129,3,54,"norm",10,75,-85,"i","i",1139.11516919,1,1
"distr_stats",1,"F",26,1,53,"4",129,22,54,"norm",10,75,-85,"i","i",576.412907427,1,1
"distr_stats",1,"F",26,1,53,"5",129,4,54,"norm",10,75,-85,"i","i",1139.09107181,1,1
"distr_stats",1,"F",26,1,53,"6",129,25,54,"norm",10,75,-85,"j","j",951.689804113,1,1
"distr_stats",1,"F",26,1,54,"0",48,33,134,"norm",5,-86,-6,"i","i",951.803597272,1,1
"distr_stats",1,"F",26,1,54,"1",48,10,134,"norm",5,-86,-6,"i","i",624.141774475,1,1
"distr_stats",1,"F",26,1,54,"2",48,27,134,"norm",5,-86,-6,"i","i",576.955544608,1,1
"distr_stats",1,"F",26,1,54,"3",48,29,134,"norm",5,-86,-6,"i","i",608.136208874,1,1
"distr_stats",1,"F",26,1,54,"4",48,20,134,"norm",5,-86,-6,"j","j",655.477286687,1,1
"distr_stats",1,"F",26,1,55,"0",100,11,174,"norm",10,-74,-34,"i","i",670.609991823,1,1
"distr_stats",1,"F",26,1,55,"1",100,2,174,"norm",10,-74,-34,"j","j",608.10050906,1,1
"distr_stats",1,"F",26,1,55,"2",100,9,174,"norm",10,-74,-34,"i","i",905.492012861,1,1
"distr_stats",1,"F",26,1,55,"3",100,6,174,"norm",10,-74,-34,"j","j",624.145790705,1,1
"distr_stats",1,"F",26,1,55,"4",100,19,174,"norm",10,-74,-34,"j","j",655.243452902,1,1
"distr_stats",1,"F",26,1,56,"0",26,23,134,"norm",15,72,32,"i","i",686.454908259,1,1
"distr_stats",1,"F",26,1,56,"1",26,20,134,"norm",15,72,32,"i","j",936.084076435,0,1
"distr_stats",1,"F",26,1,56,"2",26,34,134,"norm",15,72,32,"i","i",1139.43512878,1,0
"distr_stats",1,"F",26,1,56,"3",26,17,134,"norm",15,72,32,"i","i",2138.97013869,1,1
"distr_stats",1,"F",26,1,56,"4",26,13,134,"norm",15,72,32,"j","j",748.668082561,1,1
"distr_stats",1,"F",26,1,57,"0",43,8,134,"norm",5,89,89,"j","j",702.250291202,1,1
"distr_stats",1,"F",26,1,57,"1",43,15,134,"norm",5,89,89,"i","i",982.933835551,1,1
"distr_stats",1,"F",26,1,57,"2",43,22,134,"norm",5,89,89,"i","i",530.351667965,1,1
"distr_stats",1,"F",26,1,57,"3",43,7,134,"norm",5,89,89,"j","j",639.294114509,1,1
"distr_stats",1,"F",26,1,57,"4",43,17,134,"norm",5,89,89,"i","i",670.684515186,1,1
"distr_stats",1,"F",26,1,58,"0",168,23,54,"norm",15,-66,34,"i","i",718.236221905,1,1
"distr_stats",1,"F",26,1,58,"1",168,14,54,"norm",15,-66,34,"j","j",873.884735811,1,1
"distr_stats",1,"F",26,1,58,"2",168,31,54,"norm",15,-66,34,"j","j",1639.23074734,1,1
"distr_stats",1,"F",26,1,58,"3",168,9,54,"norm",15,-66,34,"j","i",1577.21392202,0,1
"distr_stats",1,"F",26,1,58,"4",168,9,54,"norm",15,-66,34,"i","i",1655.31529878,1,0
"distr_stats",1,"F",26,1,58,"5",168,0,54,"norm",15,-66,34,"j","j",1289.16818341,1,1
"distr_stats",1,"F",26,1,58,"6",168,31,54,"norm",15,-66,34,"j","j",2295.7931765,1,1
"distr_stats",1,"F",26,1,59,"0",152,12,74,"norm",10,78,-82,"j","j",655.344751126,1,1
"distr_stats",1,"F",26,1,59,"1",152,34,74,"norm",10,78,-82,"i","i",639.113830446,1,1
"distr_stats",1,"F",26,1,59,"2",152,31,74,"norm",10,78,-82,"j","j",639.068313182,1,1
"distr_stats",1,"F",26,1,59,"3",152,9,74,"norm",10,78,-82,"i","i",655.436678148,1,1
"distr_stats",1,"F",26,1,59,"4",152,3,74,"norm",10,78,-82,"i","i",811.699675112,1,1
"distr_stats",1,"F",26,1,59,"5",152,30,74,"norm",10,78,-82,"j","j",639.456102418,1,1
"distr_stats",1,"F",26,1,60,"0",31,28,114,"norm",5,-83,-43,"i","i",545.68072208,1,1
"distr_stats",1,"F",26,1,60,"1",31,29,114,"norm",5,-83,-43,"i","i",843.038757305,1,1
"distr_stats",1,"F",26,1,60,"2",31,27,114,"norm",5,-83,-43,"i","i",686.632068588,1,1
"distr_stats",1,"F",26,1,60,"3",31,18,114,"norm",5,-83,-43,"i","j",684.281682049,0,1
"distr_stats",1,"F",26,1,60,"4",31,3,114,"norm",5,-83,-43,"i","i",732.909738176,1,0
"distr_stats",1,"F",26,1,61,"0",44,34,134,"norm",10,-90,-70,"i","i",576.897086161,1,1
"distr_stats",1,"F",26,1,61,"1",44,26,134,"norm",10,-90,-70,"j","j",1795.21662449,1,1
"distr_stats",1,"F",26,1,61,"2",44,13,134,"norm",10,-90,-70,"j","j",702.078039597,1,1
"distr_stats",1,"F",26,1,61,"3",44,21,134,"norm",10,-90,-70,"i","i",623.727210379,1,1
"distr_stats",1,"F",26,1,61,"4",44,12,134,"norm",10,-90,-70,"j","j",779.975481169,1,1
"distr_stats",1,"F",26,1,61,"5",44,23,134,"norm",10,-90,-70,"i","i",655.504061548,1,1
"distr_stats",1,"F",26,1,61,"6",44,2,134,"norm",10,-90,-70,"j","j",749.37672388,1,1
"distr_stats",1,"F",26,1,62,"0",86,0,174,"norm",15,-88,-48,"j","j",639.279388335,1,1
"distr_stats",1,"F",26,1,62,"1",86,20,174,"norm",15,-88,-48,"j","j",1134.74104941,1,1
"distr_stats",1,"F",26,1,62,"2",86,32,174,"norm",15,-88,-48,"j","j",780.276252107,1,1
"distr_stats",1,"F",26,1,62,"3",86,5,174,"norm",15,-88,-48,"i","i",764.335838667,1,1
"distr_stats",1,"F",26,1,62,"4",86,19,174,"norm",15,-88,-48,"j","j",702.319013345,1,1
"distr_stats",1,"F",26,1,63,"0",11,26,74,"norm",5,-63,17,"j","j",764.592431084,1,1
"distr_stats",1,"F",26,1,63,"1",11,24,74,"norm",5,-63,17,"j","j",624.260476359,1,1
"distr_stats",1,"F",26,1,63,"2",11,35,74,"norm",5,-63,17,"i","i",686.595030031,1,1
"distr_stats",1,"F",26,1,63,"3",11,6,74,"norm",5,-63,17,"j","j",670.713967533,1,1
"distr_stats",1,"F",26,1,63,"4",11,24,74,"norm",5,-63,17,"j","j",608.350854009,1,1
"distr_stats",1,"F",26,1,64,"0",116,4,14,"norm",15,-78,42,"i","i",701.650534317,1,1
"distr_stats",1,"F",26,1,64,"1",116,31,14,"norm",15,-78,42,"j","j",826.884144979,1,1
"distr_stats",1,"F",26,1,64,"2",116,18,14,"norm",15,-78,42,"j","j",685.948863388,1,1
"distr_stats",1,"F",26,1,64,"3",116,10,14,"norm",15,-78,42,"i","i",638.814844499,1,1
"distr_stats",1,"F",26,1,64,"4",116,15,14,"norm",15,-78,42,"i","i",811.869249231,1,1
"distr_stats",1,"F",26,1,65,"0",34,7,134,"norm",10,80,20,"j","j",701.883475607,1,1
"distr_stats",1,"F",26,1,65,"1",34,9,134,"norm",10,80,20,"i","i",732.809332447,1,1
"distr_stats",1,"F",26,1,65,"2",34,8,134,"norm",10,80,20,"j","j",1702.08785705,1,1
"distr_stats",1,"F",26,1,65,"3",34,35,134,"norm",10,80,20,"i","i",1576.77749178,1,1
"distr_stats",1,"F",26,1,65,"4",34,8,134,"norm",10,80,20,"j","j",686.621358644,1,1
"distr_stats",1,"F",26,1,66,"0",12,17,74,"norm",5,-62,58,"i","i",639.349895469,1,1
"distr_stats",1,"F",26,1,66,"1",12,14,74,"norm",5,-62,58,"j","j",655.203736858,1,1
"distr_stats",1,"F",26,1,66,"2",12,29,74,"norm",5,-62,58,"i","i",624.065912369,1,1
"distr_stats",1,"F",26,1,66,"3",12,33,74,"norm",5,-62,58,"i","i",686.455800754,1,1
"distr_stats",1,"F",26,1,66,"4",12,28,74,"norm",5,-62,58,"i","i",624.113214624,1,1
"distr_stats",1,"F",26,1,66,"5",12,18,74,"norm",5,-62,58,"j","j",686.73559805,1,1
"distr_stats",1,"F",26,1,67,"0",42,2,114,"norm",15,-72,-32,"j","j",686.878843556,1,1
"distr_stats",1,"F",26,1,67,"1",42,27,114,"norm",15,-72,-32,"i","i",873.591104836,1,1
"distr_stats",1,"F",26,1,67,"2",42,33,114,"norm",15,-72,-32,"i","i",1108.07551919,1,1
"distr_stats",1,"F",26,1,67,"3",42,15,114,"norm",15,-72,-32,"i","i",639.149084013,1,1
"distr_stats",1,"F",26,1,67,"4",42,27,114,"norm",15,-72,-32,"i","i",592.712104003,1,1
"distr_stats",1,"F",26,1,68,"0",61,28,174,"norm",5,67,-53,"i","i",717.803361653,1,1
"distr_stats",1,"F",26,1,68,"1",61,7,174,"norm",5,67,-53,"j","j",655.300572605,1,1
"distr_stats",1,"F",26,1,68,"2",61,25,174,"norm",5,67,-53,"j","j",608.078642923,1,1
"distr_stats",1,"F",26,1,68,"3",61,29,174,"norm",5,67,-53,"i","i",655.497814081,1,1
"distr_stats",1,"F",26,1,68,"4",61,29,174,"norm",5,67,-53,"i","i",576.948850893,1,1
"distr_stats",1,"F",26,1,68,"5",61,7,174,"norm",5,67,-53,"j","j",857.673450028,1,1
"distr_stats",1,"F",26,1,69,"0",108,31,34,"norm",15,74,-66,"j","j",920.394007945,1,1
"distr_stats",1,"F",26,1,69,"1",108,22,34,"norm",15,74,-66,"i","i",639.244581016,1,1
"distr_stats",1,"F",26,1,69,"2",108,12,34,"norm",15,74,-66,"i","j",1077.41160974,0,1
"distr_stats",1,"F",26,1,69,"3",108,11,34,"norm",15,74,-66,"i","i",1170.65595533,1,0
"distr_stats",1,"F",26,1,69,"4",108,0,34,"norm",15,74,-66,"j","j",686.748985481,1,1
"distr_stats",1,"F",26,1,69,"5",108,34,34,"norm",15,74,-66,"i","i",889.307055692,1,1
"distr_stats",1,"F",26,1,69,"6",108,9,34,"norm",15,74,-66,"i","i",624.153823163,1,1
"distr_stats",1,"F",26,1,70,"0",101,4,174,"norm",5,-73,67,"i","i",607.952801077,1,1
"distr_stats",1,"F",26,1,70,"1",101,11,174,"norm",5,-73,67,"i","i",467.661901138,1,1
"distr_stats",1,"F",26,1,70,"2",101,0,174,"norm",5,-73,67,"j","j",748.826054241,1,1
"distr_stats",1,"F",26,1,70,"3",101,16,174,"norm",5,-73,67,"i","i",686.434827113,1,1
"distr_stats",1,"F",26,1,70,"4",101,18,174,"norm",5,-73,67,"j","j",608.166107469,1,1
"distr_stats",1,"F",26,1,70,"5",101,1,174,"norm",5,-73,67,"j","j",592.942814054,1,1
"distr_stats",1,"F",26,1,71,"0",53,20,114,"norm",15,-61,59,"j","j",1623.8387723,1,1
"distr_stats",1,"F",26,1,71,"1",53,18,114,"norm",15,-61,59,"j","j",764.454540551,1,1
"distr_stats",1,"F",26,1,71,"2",53,32,114,"norm",15,-61,59,"j","j",1013.77936781,1,1
"distr_stats",1,"F",26,1,71,"3",53,30,114,"norm",15,-61,59,"j","j",2170.29360222,1,1
"distr_stats",1,"F",26,1,71,"4",53,6,114,"norm",15,-61,59,"i","j",717.913584831,0,1
"distr_stats",1,"F",26,1,71,"5",53,1,114,"norm",15,-61,59,"j","j",732.868237141,1,0
"distr_stats",1,"F",26,1,72,"0",139,9,54,"norm",10,85,25,"j","i",874.11589211,0,1
"distr_stats",1,"F",26,1,72,"1",139,29,54,"norm",10,85,25,"i","i",639.206649964,1,0
"distr_stats",1,"F",26,1,72,"2",139,4,54,"norm",10,85,25,"i","i",624.107859651,1,1
"distr_stats",1,"F",26,1,72,"3",139,8,54,"norm",10,85,25,"j","j",780.138361573,1,1
"distr_stats",1,"F",26,1,72,"4",139,15,54,"norm",10,85,25,"i","i",701.603678311,1,1
"distr_stats",1,"F",26,1,72,"5",139,24,54,"norm",10,85,25,"j","j",639.011193479,1,1
"distr_stats",1,"F",26,1,72,"6",139,3,54,"norm",10,85,25,"i","i",780.582378016,1,1
"distr_stats",1,"F",26,1,73,"0",109,30,34,"norm",5,75,55,"j","j",670.635874189,1,1
"distr_stats",1,"F",26,1,73,"1",109,3,34,"norm",5,75,55,"i","i",686.377261162,1,1
"distr_stats",1,"F",26,1,73,"2",109,30,34,"norm",5,75,55,"j","j",733.014160133,1,1
"distr_stats",1,"F",26,1,73,"3",109,24,34,"norm",5,75,55,"j","j",655.244791645,1,1
"distr_stats",1,"F",26,1,73,"4",109,8,34,"norm",5,75,55,"j","j",624.142666971,1,1
"distr_stats",1,"F",26,1,74,"0",98,15,174,"norm",10,-76,64,"i","i",1139.66940881,1,1
"distr_stats",1,"F",26,1,74,"1",98,5,174,"norm",10,-76,64,"i","i",530.56051188,1,1
"distr_stats",1,"F",26,1,74,"2",98,0,174,"norm",10,-76,64,"j","j",686.75300171,1,1
"distr_stats",1,"F",26,1,74,"3",98,30,174,"norm",10,-76,64,"j","j",655.554041289,1,1
"distr_stats",1,"F",26,1,74,"4",98,27,174,"norm",10,-76,64,"i","i",780.538199496,1,1
"distr_stats",1,"F",26,1,74,"5",98,31,174,"norm",10,-76,64,"j","j",1311.81212953,1,1
"distr_stats",1,"F",26,1,75,"0",157,26,74,"norm",5,83,-17,"j","j",998.495830956,1,1
"distr_stats",1,"F",26,1,75,"1",157,2,74,"norm",5,83,-17,"j","j",576.571325354,1,1
"distr_stats",1,"F",26,1,75,"2",157,32,74,"norm",5,83,-17,"i","j",873.698650527,0,1
"distr_stats",1,"F",26,1,75,"3",157,33,74,"norm",5,83,-17,"i","i",655.373757225,1,0
"distr_stats",1,"F",26,1,75,"4",157,31,74,"norm",5,83,-17,"j","j",655.021221557,1,1
"distr_stats",1,"F",26,1,75,"5",157,7,74,"norm",5,83,-17,"j","j",608.353977743,1,1
"distr_stats",1,"F",26,1,75,"6",157,22,74,"norm",5,83,-17,"i","i",623.982017805,1,1
"distr_stats",1,"F",26,1,76,"0",19,33,94,"norm",15,-75,-55,"i","i",639.407015172,1,1
"distr_stats",1,"F",26,1,76,"1",19,2,94,"norm",15,-75,-55,"j","j",561.746531119,1,1
"distr_stats",1,"F",26,1,76,"2",19,10,94,"norm",15,-75,-55,"i","i",686.250080573,1,1
"distr_stats",1,"F",26,1,76,"3",19,2,94,"norm",15,-75,-55,"j","j",654.810146403,1,1
"distr_stats",1,"F",26,1,76,"4",19,13,94,"norm",15,-75,-55,"j","j",639.394966485,1,1
"distr_stats",1,"F",26,1,77,"0",114,10,174,"norm",10,-60,20,"i","i",592.975390135,1,1
"distr_stats",1,"F",26,1,77,"1",114,19,174,"norm",10,-60,20,"j","j",717.926972261,1,1
"distr_stats",1,"F",26,1,77,"2",114,24,174,"norm",10,-60,20,"j","j",545.650377238,1,1
"distr_stats",1,"F",26,1,77,"3",114,17,174,"norm",10,-60,20,"i","i",530.388260275,1,1
"distr_stats",1,"F",26,1,77,"4",114,9,174,"norm",10,-60,20,"i","i",717.477154598,1,1
"distr_stats",1,"F",26,1,78,"0",66,28,174,"norm",15,72,72,"i","i",717.9001974,1,1
"distr_stats",1,"F",26,1,78,"1",66,28,174,"norm",15,72,72,"i","i",1014.54959131,1,1
"distr_stats",1,"F",26,1,78,"2",66,29,174,"norm",15,72,72,"i","i",624.064573626,1,1
"distr_stats",1,"F",26,1,78,"3",66,1,174,"norm",15,72,72,"j","j",701.722380194,1,1
"distr_stats",1,"F",26,1,78,"4",66,20,174,"norm",15,72,72,"j","j",592.69916282,1,1
"distr_stats",1,"F",26,1,79,"0",167,0,54,"norm",10,-67,-7,"j","j",827.265686747,1,1
"distr_stats",1,"F",26,1,79,"1",167,18,54,"norm",10,-67,-7,"j","j",561.795172116,1,1
"distr_stats",1,"F",26,1,79,"2",167,27,54,"norm",10,-67,-7,"i","i",1030.01251973,1,1
"distr_stats",1,"F",26,1,79,"3",167,26,54,"norm",10,-67,-7,"i","j",998.612301601,0,1
"distr_stats",1,"F",26,1,79,"4",167,23,54,"norm",10,-67,-7,"i","i",1373.81512117,1,0
"distr_stats",1,"F",26,1,79,"5",167,29,54,"norm",10,-67,-7,"i","i",826.619520103,1,1
"distr_stats",1,"F",26,1,79,"6",167,7,54,"norm",10,-67,-7,"j","j",670.605083099,1,1
"distr_stats",1,"F",26,1,80,"0",70,19,134,"norm",5,-64,16,"j","j",561.420770311,1,1
"distr_stats",1,"F",26,1,80,"1",70,6,134,"norm",5,-64,16,"j","j",655.468807981,1,1
"distr_stats",1,"F",26,1,80,"2",70,34,134,"norm",5,-64,16,"i","i",718.022023017,1,1
"distr_stats",1,"F",26,1,80,"3",70,26,134,"norm",5,-64,16,"j","j",1123.99005026,1,1
"distr_stats",1,"F",26,1,80,"4",70,11,134,"norm",5,-64,16,"i","i",1076.53830303,1,1
"distr_stats",1,"F",26,1,80,"5",70,29,134,"norm",5,-64,16,"i","i",889.000929782,1,1
"distr_stats",1,"F",26,1,81,"0",140,22,54,"norm",10,86,6,"i","i",1107.94476862,1,1
"distr_stats",1,"F",26,1,81,"1",140,6,54,"norm",10,86,6,"j","j",1014.52594018,1,1
"distr_stats",1,"F",26,1,81,"2",140,2,54,"norm",10,86,6,"j","j",1076.73242077,1,1
"distr_stats",1,"F",26,1,81,"3",140,20,54,"norm",10,86,6,"j","j",733.125722054,1,1
"distr_stats",1,"F",26,1,81,"4",140,27,54,"norm",10,86,6,"i","i",873.994958988,1,1
"distr_stats",1,"F",26,1,81,"5",140,35,54,"norm",10,86,6,"i","i",905.854812226,1,1
"distr_stats",1,"F",26,1,82,"0",18,28,114,"norm",5,84,-36,"i","i",967.786850489,1,1
"distr_stats",1,"F",26,1,82,"1",18,9,114,"norm",5,84,-36,"i","i",780.244568521,1,1
"distr_stats",1,"F",26,1,82,"2",18,35,114,"norm",5,84,-36,"i","i",623.63082088,1,1
"distr_stats",1,"F",26,1,82,"3",18,25,114,"norm",5,84,-36,"j","j",655.016312832,1,1
"distr_stats",1,"F",26,1,82,"4",18,27,114,"norm",5,84,-36,"i","i",717.972935773,1,1
"distr_stats",1,"F",26,1,82,"5",18,11,114,"norm",5,84,-36,"i","i",715.940277582,1,1
"distr_stats",1,"F",26,1,82,"6",18,6,114,"norm",5,84,-36,"j","j",717.708310897,1,1
"distr_stats",1,"F",26,1,83,"0",10,2,94,"norm",10,-84,76,"j","j",858.077750428,1,1
"distr_stats",1,"F",26,1,83,"1",10,16,94,"norm",10,-84,76,"i","i",561.689857663,1,1
"distr_stats",1,"F",26,1,83,"2",10,19,94,"norm",10,-84,76,"j","j",858.018399486,1,1
"distr_stats",1,"F",26,1,83,"3",10,31,94,"norm",10,-84,76,"j","j",655.454528056,1,1
"distr_stats",1,"F",26,1,83,"4",10,30,94,"norm",10,-84,76,"j","j",592.483178942,1,1
"distr_stats",1,"F",26,1,83,"5",10,9,94,"norm",10,-84,76,"i","i",622.226033178,1,1
"distr_stats",1,"F",26,1,84,"0",45,14,154,"norm",5,71,-49,"j","j",670.625164244,1,1
"distr_stats",1,"F",26,1,84,"1",45,19,154,"norm",5,71,-49,"j","j",576.300899259,1,1
"distr_stats",1,"F",26,1,84,"2",45,19,154,"norm",5,71,-49,"j","j",561.418092825,1,1
"distr_stats",1,"F",26,1,84,"3",45,20,154,"norm",5,71,-49,"j","j",608.067932979,1,1
"distr_stats",1,"F",26,1,84,"4",45,8,154,"norm",5,71,-49,"j","j",561.751886091,1,1
"distr_stats",1,"F",26,1,84,"5",45,29,154,"norm",5,71,-49,"i","i",592.824112171,1,1
"distr_stats",1,"F",26,1,85,"0",157,17,54,"norm",10,-77,3,"i","i",608.005012056,1,1
"distr_stats",1,"F",26,1,85,"1",157,2,54,"norm",10,-77,3,"j","j",655.446495597,1,1
"distr_stats",1,"F",26,1,85,"2",157,5,54,"norm",10,-77,3,"i","i",795.354068778,1,1
"distr_stats",1,"F",26,1,85,"3",157,32,54,"norm",10,-77,3,"j","j",795.27463669,1,1
"distr_stats",1,"F",26,1,85,"4",157,30,54,"norm",10,-77,3,"j","j",592.918270432,1,1
"distr_stats",1,"F",26,1,86,"0",44,9,114,"norm",5,-70,-10,"i","i",888.919266456,1,1
"distr_stats",1,"F",26,1,86,"1",44,8,114,"norm",5,-70,-10,"j","j",858.157628763,1,1
"distr_stats",1,"F",26,1,86,"2",44,4,114,"norm",5,-70,-10,"i","i",702.296254713,1,1
"distr_stats",1,"F",26,1,86,"3",44,29,114,"norm",5,-70,-10,"i","i",592.288168705,1,1
"distr_stats",1,"F",26,1,86,"4",44,9,114,"norm",5,-70,-10,"i","i",686.867687364,1,1
"distr_stats",1,"F",26,1,86,"5",44,32,114,"norm",5,-70,-10,"i","j",842.002123941,0,1
"distr_stats",1,"F",26,1,86,"6",44,10,114,"norm",5,-70,-10,"i","i",514.230077967,1,0
"distr_stats",1,"F",26,1,87,"0",89,13,174,"norm",10,-85,-25,"j","j",779.775562208,1,1
"distr_stats",1,"F",26,1,87,"1",89,3,174,"norm",10,-85,-25,"i","i",1014.25328285,1,1
"distr_stats",1,"F",26,1,87,"2",89,3,174,"norm",10,-85,-25,"i","i",607.838115423,1,1
"distr_stats",1,"F",26,1,87,"3",89,4,174,"norm",10,-85,-25,"i","i",670.380174267,1,1
"distr_stats",1,"F",26,1,87,"4",89,4,174,"norm",10,-85,-25,"i","i",608.037588137,1,1
"distr_stats",1,"F",26,1,88,"0",62,0,154,"norm",15,88,68,"j","j",1498.61542533,1,1
"distr_stats",1,"F",26,1,88,"1",62,22,154,"norm",15,88,68,"i","i",607.963957269,1,1
"distr_stats",1,"F",26,1,88,"2",62,10,154,"norm",15,88,68,"i","i",2014.12476351,1,1
"distr_stats",1,"F",26,1,88,"3",62,27,154,"norm",15,88,68,"i","i",686.196530851,1,1
"distr_stats",1,"F",26,1,88,"4",62,12,154,"norm",15,88,68,"i","j",2311.0387823,0,1
"distr_stats",1,"F",26,1,88,"5",62,16,154,"norm",15,88,68,"i","i",670.504231122,1,0
"distr_stats",1,"F",26,1,88,"6",62,34,154,"norm",15,88,68,"i","i",529.859456772,1,1
"distr_stats",1,"F",26,1,89,"0",138,33,74,"norm",5,64,-16,"i","i",811.386855487,1,1
"distr_stats",1,"F",26,1,89,"1",138,15,74,"norm",5,64,-16,"i","i",607.998318341,1,1
"distr_stats",1,"F",26,1,89,"2",138,18,74,"norm",5,64,-16,"j","j",514.161355824,1,1
"distr_stats",1,"F",26,1,89,"3",138,2,74,"norm",5,64,-16,"j","j",764.002045401,1,1
"distr_stats",1,"F",26,1,89,"4",138,2,74,"norm",5,64,-16,"j","j",732.857973445,1,1
"distr_stats",1,"F",26,1,90,"0",139,4,74,"norm",10,65,65,"i","i",967.477600846,1,1
"distr_stats",1,"F",26,1,90,"1",139,19,74,"norm",10,65,65,"j","j",576.479844579,1,1
"distr_stats",1,"F",26,1,90,"2",139,34,74,"norm",10,65,65,"i","i",639.179875103,1,1
"distr_stats",1,"F",26,1,90,"3",139,22,74,"norm",10,65,65,"i","i",1201.61929698,1,1
"distr_stats",1,"F",26,1,90,"4",139,32,74,"norm",10,65,65,"j","j",873.557190012,1,1
"distr_stats",1,"F",26,1,90,"5",139,28,74,"norm",10,65,65,"i","i",592.315389814,1,1
"distr_stats",1,"F",26,1,90,"6",139,12,74,"norm",10,65,65,"j","j",623.675891896,1,1
"distr_stats",1,"F",26,1,91,"0",179,22,74,"norm",10,-75,-75,"i","i",670.294494712,1,1
"distr_stats",1,"F",26,1,91,"1",179,35,74,"norm",10,-75,-75,"i","i",592.235957726,1,1
"distr_stats",1,"F",26,1,91,"2",179,10,74,"norm",10,-75,-75,"i","i",686.124238726,1,1
"distr_stats",1,"F",26,1,91,"3",179,6,74,"norm",10,-75,-75,"j","j",654.876637308,1,1
"distr_stats",1,"F",26,1,91,"4",179,16,74,"norm",10,-75,-75,"i","i",592.444801641,1,1
"distr_stats",1,"F",26,1,91,"5",179,11,74,"norm",10,-75,-75,"i","i",592.363584563,1,1
"distr_stats",1,"F",26,1,92,"0",98,16,174,"norm",5,-76,24,"i","i",701.73666012,1,1
"distr_stats",1,"F",26,1,92,"1",98,27,174,"norm",5,-76,24,"i","i",686.089877655,1,1
"distr_stats",1,"F",26,1,92,"2",98,35,174,"norm",5,-76,24,"i","i",560.974076382,1,1
"distr_stats",1,"F",26,1,92,"3",98,34,174,"norm",5,-76,24,"i","i",639.177643864,1,1
"distr_stats",1,"F",26,1,92,"4",98,17,174,"norm",5,-76,24,"i","i",592.338148445,1,1
"distr_stats",1,"F",26,1,93,"0",143,11,54,"norm",10,89,-31,"i","i",779.932195144,1,1
"distr_stats",1,"F",26,1,93,"1",143,26,54,"norm",10,89,-31,"j","j",1389.24101103,1,1
"distr_stats",1,"F",26,1,93,"2",143,33,54,"norm",10,89,-31,"i","i",920.561350826,1,1
"distr_stats",1,"F",26,1,93,"3",143,27,54,"norm",10,89,-31,"i","i",3170.52922099,1,1
"distr_stats",1,"F",26,1,93,"4",143,25,54,"norm",10,89,-31,"j","j",904.75882792,1,1
"distr_stats",1,"F",26,1,93,"5",143,31,54,"norm",10,89,-31,"j","j",1045.42368342,1,1
"distr_stats",1,"F",26,1,93,"6",143,25,54,"norm",10,89,-31,"j","j",936.21214952,1,1
"distr_stats",1,"F",26,1,94,"0",98,2,34,"norm",15,64,44,"j","j",811.093224513,1,1
"distr_stats",1,"F",26,1,94,"1",98,8,34,"norm",15,64,44,"j","j",1967.46064343,1,1
"distr_stats",1,"F",26,1,94,"2",98,0,34,"norm",15,64,44,"j","j",1420.48058,1,1
"distr_stats",1,"F",26,1,94,"3",98,22,34,"norm",15,64,44,"i","i",717.379872603,1,1
"distr_stats",1,"F",26,1,94,"4",98,13,34,"norm",15,64,44,"j","j",1186.08363019,1,1
"distr_stats",1,"F",26,1,95,"0",98,16,174,"norm",5,-76,64,"i","i",680.788008948,1,1
"distr_stats",1,"F",26,1,95,"1",98,0,174,"norm",5,-76,64,"j","j",654.871282335,1,1
"distr_stats",1,"F",26,1,95,"2",98,21,174,"norm",5,-76,64,"i","i",858.048744329,1,1
"distr_stats",1,"F",26,1,95,"3",98,33,174,"norm",5,-76,64,"i","i",607.881401448,1,1
"distr_stats",1,"F",26,1,95,"4",98,12,174,"norm",5,-76,64,"j","j",576.631568791,1,1
"distr_stats",1,"F",26,1,96,"0",99,8,174,"norm",15,-75,-75,"j","j",670.457375116,1,1
"distr_stats",1,"F",26,1,96,"1",99,15,174,"norm",15,-75,-75,"i","i",1014.1751895,1,1
"distr_stats",1,"F",26,1,96,"2",99,24,174,"norm",15,-75,-75,"j","j",685.987240688,1,1
"distr_stats",1,"F",26,1,96,"3",99,15,174,"norm",15,-75,-75,"i","i",623.693295555,1,1
"distr_stats",1,"F",26,1,96,"4",99,1,174,"norm",15,-75,-75,"j","j",686.039451667,1,1
"distr_stats",1,"F",26,1,96,"5",99,12,174,"norm",15,-75,-75,"j","j",623.750415259,1,1
"distr_stats",1,"F",26,1,96,"6",99,20,174,"norm",15,-75,-75,"j","j",670.448450162,1,1
"distr_stats",1,"F",26,1,97,"0",31,23,114,"norm",5,-83,37,"i","i",639.165595176,1,1
"distr_stats",1,"F",26,1,97,"1",31,6,114,"norm",5,-83,37,"j","j",873.628589641,1,1
"distr_stats",1,"F",26,1,97,"2",31,14,114,"norm",5,-83,37,"j","j",779.669801507,1,1
"distr_stats",1,"F",26,1,97,"3",31,8,114,"norm",5,-83,37,"j","j",529.980836141,1,1
"distr_stats",1,"F",26,1,97,"4",31,8,114,"norm",5,-83,37,"j","j",576.809621616,1,1
"distr_stats",1,"F",26,1,97,"5",31,12,114,"norm",5,-83,37,"j","j",764.251051608,1,1
"distr_stats",1,"F",26,1,98,"0",59,14,134,"norm",15,-75,-55,"j","j",1920.58366321,1,1
"distr_stats",1,"F",26,1,98,"1",59,27,134,"norm",15,-75,-55,"i","i",1061.45423889,1,1
"distr_stats",1,"F",26,1,98,"2",59,30,134,"norm",15,-75,-55,"j","j",889.206649964,1,1
"distr_stats",1,"F",26,1,98,"3",59,26,134,"norm",15,-75,-55,"j","j",2092.31940604,1,1
"distr_stats",1,"F",26,1,98,"4",59,26,134,"norm",15,-75,-55,"j","j",701.830818381,1,1
"distr_stats",1,"F",26,1,98,"5",59,28,134,"norm",15,-75,-55,"i","i",1389.19727876,1,1
"distr_stats",1,"F",26,1,98,"6",59,30,134,"norm",15,-75,-55,"j","j",842.423828,1,1
"distr_stats",1,"F",26,1,99,"0",98,15,34,"norm",5,64,-36,"i","i",1108.00992078,1,1
"distr_stats",1,"F",26,1,99,"1",98,15,34,"norm",5,64,-36,"i","i",514.176528245,1,1
"distr_stats",1,"F",26,1,99,"2",98,8,34,"norm",5,64,-36,"j","j",670.828206939,1,1
"distr_stats",1,"F",26,1,99,"3",98,14,34,"norm",5,64,-36,"j","j",561.095009503,1,1
"distr_stats",1,"F",26,1,99,"4",98,3,34,"norm",5,64,-36,"i","i",1029.97905115,1,1
"distr_stats",1,"F",26,1,99,"5",98,17,34,"norm",5,64,-36,"i","i",779.812154518,1,1
"distr_stats",1,"F",26,1,100,"0",7,31,114,"norm",15,73,-27,"j","j",936.202778318,1,1
"distr_stats",1,"F",26,1,100,"1",7,14,114,"norm",15,73,-27,"j","j",451.622866961,1,1
"distr_stats",1,"F",26,1,100,"2",7,15,114,"norm",15,73,-27,"i","i",701.593860862,1,1
"distr_stats",1,"F",26,1,100,"3",7,13,114,"norm",15,73,-27,"j","j",545.418774691,1,1
"distr_stats",1,"F",26,1,100,"4",7,7,114,"norm",15,73,-27,"j","j",577.40759351,1,1
"distr_stats",1,"F",26,1,100,"5",7,0,114,"norm",15,73,-27,"j","j",889.40746142,1,1
"distr_stats",1,"F",26,1,101,"0",141,10,34,"norm",10,-73,27,"i","i",795.378166152,1,1
"distr_stats",1,"F",26,1,101,"1",141,0,34,"norm",10,-73,27,"j","j",701.659459271,1,1
"distr_stats",1,"F",26,1,101,"2",141,28,34,"norm",10,-73,27,"j","i",1070.91513599,0,1
"distr_stats",1,"F",26,1,101,"3",141,32,34,"norm",10,-73,27,"j","j",2108.01795324,1,0
"distr_stats",1,"F",26,1,101,"4",141,12,34,"norm",10,-73,27,"j","j",607.891665145,1,1
"distr_stats",1,"F",26,1,102,"0",133,3,54,"norm",15,79,-81,"i","i",951.655443042,1,1
"distr_stats",1,"F",26,1,102,"1",133,14,54,"norm",15,79,-81,"j","j",1670.94066136,1,1
"distr_stats",1,"F",26,1,102,"2",133,29,54,"norm",15,79,-81,"i","i",733.058784902,1,1
"distr_stats",1,"F",26,1,102,"3",133,31,54,"norm",15,79,-81,"j","j",2139.30839443,1,1
"distr_stats",1,"F",26,1,102,"4",133,31,54,"norm",15,79,-81,"j","j",1170.48058,1,1
"distr_stats",1,"F",26,1,102,"5",133,22,54,"norm",15,79,-81,"i","i",686.122453736,1,1
"distr_stats",1,"F",26,1,102,"6",133,29,54,"norm",15,79,-81,"i","i",951.793779823,1,1
"distr_stats",1,"F",26,1,103,"0",170,32,94,"norm",10,76,-64,"j","j",654.794527734,1,1
"distr_stats",1,"F",26,1,103,"1",170,30,94,"norm",10,76,-64,"j","j",545.340235099,1,1
"distr_stats",1,"F",26,1,103,"2",170,1,94,"norm",10,76,-64,"j","j",592.461759053,1,1
"distr_stats",1,"F",26,1,103,"3",170,0,94,"norm",10,76,-64,"j","j",592.389466929,1,1
"distr_stats",1,"F",26,1,103,"4",170,19,94,"norm",10,76,-64,"j","j",639.253952218,1,1
"distr_stats",1,"F",26,1,103,"5",170,29,94,"norm",10,76,-64,"i","i",561.137849281,1,1
"distr_stats",1,"F",26,1,103,"6",170,29,94,"norm",10,76,-64,"i","i",592.335917207,1,1
"distr_stats",1,"F",26,1,104,"0",158,1,54,"norm",5,-76,64,"j","j",576.771690563,1,1
"distr_stats",1,"F",26,1,104,"1",158,26,54,"norm",5,-76,64,"j","j",764.248820369,1,1
"distr_stats",1,"F",26,1,104,"2",158,1,54,"norm",5,-76,64,"j","j",623.720070416,1,1
"distr_stats",1,"F",26,1,104,"3",158,31,54,"norm",5,-76,64,"j","j",592.354659609,1,1
"distr_stats",1,"F",26,1,104,"4",158,33,54,"norm",5,-76,64,"i","i",623.60181478,1,1
"distr_stats",1,"F",26,1,105,"0",65,6,134,"norm",10,-69,11,"j","j",1186.0912164,1,1
"distr_stats",1,"F",26,1,105,"1",65,33,134,"norm",10,-69,11,"i","i",701.839743334,1,1
"distr_stats",1,"F",26,1,105,"2",65,20,134,"norm",10,-69,11,"j","j",1217.43476107,1,1
"distr_stats",1,"F",26,1,105,"3",65,2,134,"norm",10,-69,11,"j","j",545.421898425,1,1
"distr_stats",1,"F",26,1,105,"4",65,34,134,"norm",10,-69,11,"i","i",670.479241252,1,1
"distr_stats",1,"F",26,1,105,"5",65,33,134,"norm",10,-69,11,"i","i",1857.97065098,1,1
"distr_stats",1,"F",26,1,105,"6",65,34,134,"norm",10,-69,11,"i","i",2076.77793803,1,1
"distr_stats",1,"F",26,1,106,"0",50,9,134,"norm",5,-84,-84,"i","i",701.76745121,1,1
"distr_stats",1,"F",26,1,106,"1",50,9,134,"norm",5,-84,-84,"i","i",654.883331023,1,1
"distr_stats",1,"F",26,1,106,"2",50,15,134,"norm",5,-84,-84,"i","i",498.799725627,1,1
"distr_stats",1,"F",26,1,106,"3",50,29,134,"norm",5,-84,-84,"i","i",607.985823406,1,1
"distr_stats",1,"F",26,1,106,"4",50,28,134,"norm",5,-84,-84,"i","i",1264.35636606,1,1
"distr_stats",1,"F",26,1,106,"5",50,28,134,"norm",5,-84,-84,"i","i",701.650980565,1,1
"distr_stats",1,"F",26,1,106,"6",50,2,134,"norm",5,-84,-84,"j","j",779.874629193,1,1
"distr_stats",1,"F",26,1,107,"0",102,3,34,"norm",15,68,-32,"i","i",3811.09322451,1,1
"distr_stats",1,"F",26,1,107,"1",102,11,34,"norm",15,68,-32,"i","i",509.117418277,1,1
"distr_stats",1,"F",26,1,107,"2",102,23,34,"norm",15,68,-32,"i","i",545.421452177,1,1
"distr_stats",1,"F",26,1,107,"3",102,4,34,"norm",15,68,-32,"i","i",545.469200679,1,1
"distr_stats",1,"F",26,1,107,"4",102,7,34,"norm",15,68,-32,"j","j",623.618325945,1,1
"distr_stats",1,"F",26,1,107,"5",102,28,34,"norm",15,68,-32,"i","i",967.20538976,1,1
"distr_stats",1,"F",26,1,108,"0",94,15,14,"norm",10,80,60,"i","i",639.192816285,1,1
"distr_stats",1,"F",26,1,108,"1",94,32,14,"norm",10,80,60,"j","j",795.518287924,1,1
"distr_stats",1,"F",26,1,108,"2",94,33,14,"norm",10,80,60,"i","i",576.63558502,1,1
"distr_stats",1,"F",26,1,108,"3",94,23,14,"norm",10,80,60,"i","i",561.089208283,1,1
"distr_stats",1,"F",26,1,108,"4",94,6,14,"norm",10,80,60,"j","j",561.224867579,1,1
"distr_stats",1,"F",26,1,108,"5",94,7,14,"norm",10,80,60,"j","j",576.724388309,1,1
"distr_stats",1,"F",26,1,108,"6",94,17,14,"norm",10,80,60,"i","i",592.26407133,1,1
"distr_stats",1,"F",26,1,109,"0",129,16,54,"norm",5,75,-65,"i","i",1451.78842485,1,1
"distr_stats",1,"F",26,1,109,"1",129,19,54,"norm",5,75,-65,"j","j",685.929228489,1,1
"distr_stats",1,"F",26,1,109,"2",129,5,54,"norm",5,75,-65,"i","i",685.970283276,1,1
"distr_stats",1,"F",26,1,109,"3",129,4,54,"norm",5,75,-65,"i","i",967.472692121,1,1
"distr_stats",1,"F",26,1,109,"4",129,17,54,"norm",5,75,-65,"i","i",561.134725547,1,1
"distr_stats",1,"F",26,1,110,"0",65,11,154,"norm",15,-89,11,"i","i",873.496946575,1,1
"distr_stats",1,"F",26,1,110,"1",65,21,154,"norm",15,-89,11,"i","i",889.225838614,1,1
"distr_stats",1,"F",26,1,110,"2",65,4,154,"norm",15,-89,11,"i","i",904.900734683,1,1
"distr_stats",1,"F",26,1,110,"3",65,21,154,"norm",15,-89,11,"i","i",842.370278278,1,1
"distr_stats",1,"F",26,1,110,"4",65,14,154,"norm",15,-89,11,"j","j",780.003594773,1,1
"distr_stats",1,"F",26,1,111,"0",160,25,74,"norm",5,86,6,"j","j",576.636923763,1,1
"distr_stats",1,"F",26,1,111,"1",160,31,74,"norm",5,86,6,"j","j",576.617735113,1,1
"distr_stats",1,"F",26,1,111,"2",160,27,74,"norm",5,86,6,"i","i",623.666074447,1,1
"distr_stats",1,"F",26,1,111,"3",160,7,74,"norm",5,86,6,"j","j",686.138072405,1,1
"distr_stats",1,"F",26,1,111,"4",160,29,74,"norm",5,86,6,"i","i",717.507499441,1,1
"distr_stats",1,"F",26,1,111,"5",160,24,74,"norm",5,86,6,"j","j",623.631713375,1,1
"distr_stats",1,"F",26,1,111,"6",160,0,74,"norm",5,86,6,"j","j",576.677532302,1,1
"distr_stats",1,"F",26,1,112,"0",151,34,54,"norm",15,-83,77,"i","i",701.629114429,1,1
"distr_stats",1,"F",26,1,112,"1",151,12,54,"norm",15,-83,77,"j","j",1107.87336899,1,1
"distr_stats",1,"F",26,1,112,"2",151,6,54,"norm",15,-83,77,"j","j",561.162839151,1,1
"distr_stats",1,"F",26,1,112,"3",151,9,54,"norm",15,-83,77,"j","i",670.328855783,0,1
"distr_stats",1,"F",26,1,112,"4",151,32,54,"norm",15,-83,77,"j","j",826.690473485,1,0
"distr_stats",1,"F",26,1,112,"5",151,5,54,"norm",15,-83,77,"i","i",654.763736644,1,1
"distr_stats",1,"F",26,1,113,"0",172,14,54,"norm",10,-62,-62,"j","j",4514.31397253,1,1
"distr_stats",1,"F",26,1,113,"1",172,32,54,"norm",10,-62,-62,"j","j",748.644877682,1,1
"distr_stats",1,"F",26,1,113,"2",172,10,54,"norm",10,-62,-62,"i","i",1014.21713678,1,1
"distr_stats",1,"F",26,1,113,"3",172,30,54,"norm",10,-62,-62,"j","j",623.746399029,1,1
"distr_stats",1,"F",26,1,113,"4",172,29,54,"norm",10,-62,-62,"i","i",608.043835604,1,1
"distr_stats",1,"F",26,1,113,"5",172,20,54,"norm",10,-62,-62,"j","j",686.230891922,1,1
"distr_stats",1,"F",26,1,113,"6",172,19,54,"norm",10,-62,-62,"j","j",998.6703138,1,1
"distr_stats",1,"F",26,1,114,"0",165,20,94,"norm",5,71,-69,"j","j",654.979720522,1,1
"distr_stats",1,"F",26,1,114,"1",165,3,94,"norm",5,71,-69,"i","i",717.250014528,1,1
"distr_stats",1,"F",26,1,114,"2",165,8,94,"norm",5,71,-69,"j","j",529.877752927,1,1
"distr_stats",1,"F",26,1,114,"3",165,23,94,"norm",5,71,-69,"i","i",608.025093201,1,1
"distr_stats",1,"F",26,1,114,"4",165,17,94,"norm",5,71,-69,"i","i",561.036997305,1,1
"distr_stats",1,"F",26,1,114,"5",165,11,94,"norm",5,71,-69,"i","i",576.683779769,1,1
"distr_stats",1,"F",26,1,115,"0",112,14,34,"norm",15,78,18,"j","j",2217.64985245,1,1
"distr_stats",1,"F",26,1,115,"1",112,18,34,"norm",15,78,18,"j","j",717.274558151,1,1
"distr_stats",1,"F",26,1,115,"2",112,27,34,"norm",15,78,18,"i","i",1623.75309274,1,1
"distr_stats",1,"F",26,1,115,"3",112,31,34,"norm",15,78,18,"j","j",795.444210809,1,1
"distr_stats",1,"F",26,1,115,"4",112,12,34,"norm",15,78,18,"j","j",576.740899473,1,1
"distr_stats",1,"F",26,1,116,"0",122,20,14,"norm",10,-72,88,"j","j",1076.68868849,1,1
"distr_stats",1,"F",26,1,116,"1",122,35,14,"norm",10,-72,88,"i","i",576.65298868,1,1
"distr_stats",1,"F",26,1,116,"2",122,23,14,"norm",10,-72,88,"i","i",1373.66428946,1,1
"distr_stats",1,"F",26,1,116,"3",122,21,14,"norm",10,-72,88,"i","i",732.902598213,1,1
"distr_stats",1,"F",26,1,116,"4",122,17,14,"norm",10,-72,88,"i","i",592.324761015,1,1
"distr_stats",1,"F",26,1,116,"5",122,18,14,"norm",10,-72,88,"j","j",639.243688521,1,1
"distr_stats",1,"F",26,1,117,"0",52,3,134,"norm",5,-82,38,"j","i",811.271723585,0,1
"distr_stats",1,"F",26,1,117,"1",52,15,134,"norm",5,-82,38,"i","i",873.570131195,1,0
"distr_stats",1,"F",26,1,117,"2",52,29,134,"norm",5,-82,38,"i","i",576.68556476,1,1
"distr_stats",1,"F",26,1,117,"3",52,31,134,"norm",5,-82,38,"j","j",717.306241736,1,1
"distr_stats",1,"F",26,1,117,"4",52,19,134,"norm",5,-82,38,"j","j",607.891665145,1,1
"distr_stats",1,"F",26,1,118,"0",8,23,114,"norm",10,74,54,"i","i",623.610293486,1,1
"distr_stats",1,"F",26,1,118,"1",8,13,114,"norm",10,74,54,"j","j",592.455065338,1,1
"distr_stats",1,"F",26,1,118,"2",8,26,114,"norm",10,74,54,"j","j",998.790800674,1,1
"distr_stats",1,"F",26,1,118,"3",8,33,114,"norm",10,74,54,"i","i",826.827025276,1,1
"distr_stats",1,"F",26,1,118,"4",8,33,114,"norm",10,74,54,"i","i",576.581142803,1,1
"distr_stats",1,"F",26,1,118,"5",8,19,114,"norm",10,74,54,"j","j",576.683333522,1,1
"distr_stats",1,"F",26,1,119,"0",98,6,14,"norm",5,84,-16,"j","j",607.944322371,1,1
"distr_stats",1,"F",26,1,119,"1",98,6,14,"norm",5,84,-16,"j","j",592.347965894,1,1
"distr_stats",1,"F",26,1,119,"2",98,9,14,"norm",5,84,-16,"i","i",1717.34997401,1,1
"distr_stats",1,"F",26,1,119,"3",98,7,14,"norm",5,84,-16,"j","j",607.939859894,1,1
"distr_stats",1,"F",26,1,119,"4",98,17,14,"norm",5,84,-16,"i","i",592.341272179,1,1
"distr_stats",1,"F",26,1,120,"0",89,14,154,"norm",15,-65,75,"j","j",857.916655015,1,1
"distr_stats",1,"F",26,1,120,"1",89,19,154,"norm",15,-65,75,"j","j",639.128556619,1,1
"distr_stats",1,"F",26,1,120,"2",89,35,154,"norm",15,-65,75,"i","i",576.715909603,1,1
"distr_stats",1,"F",26,1,120,"3",89,28,154,"norm",15,-65,75,"i","i",717.478939589,1,1
"distr_stats",1,"F",26,1,120,"4",89,13,154,"norm",15,-65,75,"j","j",592.323422272,1,1
"distr_stats",1,"F",26,1,120,"5",89,6,154,"norm",15,-65,75,"i","j",1295.47723314,0,1
"distr_stats",1,"F",26,1,120,"6",89,35,154,"norm",15,-65,75,"i","i",639.23610231,1,0
"distr_stats",1,"F",26,1,121,"0",27,31,134,"norm",10,73,53,"j","j",2170.42122905,1,1
"distr_stats",1,"F",26,1,121,"1",27,7,134,"norm",10,73,53,"j","j",576.685118513,1,1
"distr_stats",1,"F",26,1,121,"2",27,28,134,"norm",10,73,53,"i","i",1045.92838954,1,1
"distr_stats",1,"F",26,1,121,"3",27,1,134,"norm",10,73,53,"j","j",607.890772649,1,1
"distr_stats",1,"F",26,1,121,"4",27,26,134,"norm",10,73,53,"j","j",623.598691047,1,1
"distr_stats",1,"F",26,1,121,"5",27,27,134,"norm",10,73,53,"i","i",889.286974546,1,1
"distr_stats",1,"F",26,1,121,"6",27,30,134,"norm",10,73,53,"j","j",576.650757441,1,1
"distr_stats",1,"F",26,1,122,"0",142,32,34,"norm",15,-72,8,"j","j",1467.51106942,1,1
"distr_stats",1,"F",26,1,122,"1",142,35,34,"norm",15,-72,8,"i","i",1248.56856933,1,1
"distr_stats",1,"F",26,1,122,"2",142,33,34,"norm",15,-72,8,"j","i",1154.88600851,0,1
"distr_stats",1,"F",26,1,122,"3",142,19,34,"norm",15,-72,8,"j","j",1045.55755772,1,0
"distr_stats",1,"F",26,1,122,"4",142,20,34,"norm",15,-72,8,"j","j",1076.61461138,1,1
"distr_stats",1,"F",26,1,122,"5",142,12,34,"norm",15,-72,8,"j","j",1811.2297763,1,1
"distr_stats",1,"F",26,1,122,"6",142,4,34,"norm",15,-72,8,"i","i",842.463097796,1,1
"distr_stats",1,"F",26,1,123,"0",170,27,54,"norm",5,-64,-44,"i","i",670.389099221,1,1
"distr_stats",1,"F",26,1,123,"1",170,9,54,"norm",5,-64,-44,"i","i",607.994302111,1,1
"distr_stats",1,"F",26,1,123,"2",170,3,54,"norm",5,-64,-44,"i","i",623.721409159,1,1
"distr_stats",1,"F",26,1,123,"3",170,12,54,"norm",5,-64,-44,"j","j",623.614309715,1,1
"distr_stats",1,"F",26,1,123,"4",170,22,54,"norm",5,-64,-44,"i","i",701.714793984,1,1
"distr_stats",1,"F",26,1,123,"5",170,18,54,"norm",5,-64,-44,"j","j",732.875823352,1,1
"distr_stats",1,"F",26,1,124,"0",25,35,114,"norm",15,-89,-29,"i","i",1670.4131966,1,1
"distr_stats",1,"F",26,1,124,"1",25,28,114,"norm",15,-89,-29,"i","i",1030.03260087,1,1
"distr_stats",1,"F",26,1,124,"2",25,2,114,"norm",15,-89,-29,"j","j",655.018990318,1,1
"distr_stats",1,"F",26,1,124,"3",25,13,114,"norm",15,-89,-29,"j","j",1123.68080062,1,1
"distr_stats",1,"F",26,1,124,"4",25,19,114,"norm",15,-89,-29,"j","j",717.362915192,1,1
"distr_stats",1,"F",26,1,124,"5",25,32,114,"norm",15,-89,-29,"j","j",1092.50102885,1,1
"distr_stats",1,"F",26,1,125,"0",112,35,34,"norm",10,78,-2,"i","i",1232.84369352,1,1
"distr_stats",1,"F",26,1,125,"1",112,0,34,"norm",10,78,-2,"j","j",795.490620568,1,1
"distr_stats",1,"F",26,1,125,"2",112,32,34,"norm",10,78,-2,"j","j",717.478047093,1,1
"distr_stats",1,"F",26,1,125,"3",112,9,34,"norm",10,78,-2,"i","i",1076.76187311,1,1
"distr_stats",1,"F",26,1,125,"4",112,20,34,"norm",10,78,-2,"j","j",608.042496861,1,1
"distr_stats",1,"F",26,1,125,"5",112,18,34,"norm",10,78,-2,"j","j",561.149897968,1,1
"distr_stats",1,"F",26,1,126,"0",78,19,174,"norm",5,84,44,"j","j",608.019738229,1,1
"distr_stats",1,"F",26,1,126,"1",78,10,174,"norm",5,84,44,"i","i",639.202187487,1,1
"distr_stats",1,"F",26,1,126,"2",78,30,174,"norm",5,84,44,"j","j",545.54417029,1,1
"distr_stats",1,"F",26,1,126,"3",78,22,174,"norm",5,84,44,"i","i",514.136812201,1,1
"distr_stats",1,"F",26,1,126,"4",78,23,174,"norm",5,84,44,"i","i",529.889801614,1,1
"distr_stats",1,"F",26,1,126,"5",78,15,174,"norm",5,84,44,"i","i",701.959783961,1,1
"distr_stats",1,"F",26,1,127,"0",60,11,134,"norm",10,-74,66,"i","i",654.823533834,1,1
"distr_stats",1,"F",26,1,127,"1",60,16,134,"norm",10,-74,66,"i","i",826.689134742,1,1
"distr_stats",1,"F",26,1,127,"2",60,27,134,"norm",10,-74,66,"i","i",779.965217473,1,1
"distr_stats",1,"F",26,1,127,"3",60,30,134,"norm",10,-74,66,"j","j",1201.73844511,1,1
"distr_stats",1,"F",26,1,127,"4",60,20,134,"norm",10,-74,66,"j","j",654.829781301,1,1
"distr_stats",1,"F",26,1,127,"5",60,29,134,"norm",10,-74,66,"i","i",1967.57175911,1,1
"distr_stats",1,"F",26,1,128,"0",146,14,74,"norm",5,72,12,"j","j",951.691589104,1,1
"distr_stats",1,"F",26,1,128,"1",146,13,74,"norm",5,72,12,"j","j",545.380397391,1,1
"distr_stats",1,"F",26,1,128,"2",146,24,74,"norm",5,72,12,"j","j",604.372109679,1,1
"distr_stats",1,"F",26,1,128,"3",146,5,74,"norm",5,72,12,"i","i",654.521870401,1,1
"distr_stats",1,"F",26,1,128,"4",146,20,74,"norm",5,72,12,"j","j",1097.39725841,1,1
"distr_stats",1,"F",26,1,129,"0",126,2,54,"norm",10,72,52,"j","j",686.174664714,1,1
"distr_stats",1,"F",26,1,129,"1",126,21,54,"norm",10,72,52,"i","i",904.930633277,1,1
"distr_stats",1,"F",26,1,129,"2",126,33,54,"norm",10,72,52,"i","i",2420.52431227,1,1
"distr_stats",1,"F",26,1,129,"3",126,16,54,"norm",10,72,52,"i","i",639.159793957,1,1
"distr_stats",1,"F",26,1,129,"4",126,29,54,"norm",10,72,52,"i","i",623.639745833,1,1
"distr_stats",1,"F",26,1,129,"5",126,11,54,"norm",10,72,52,"i","i",639.241457283,1,1
"distr_stats",1,"F",26,1,130,"0",155,34,54,"norm",15,-79,-79,"i","i",639.191031294,1,1
"distr_stats",1,"F",26,1,130,"1",155,6,54,"norm",15,-79,-79,"j","j",654.765967883,1,1
"distr_stats",1,"F",26,1,130,"2",155,34,54,"norm",15,-79,-79,"i","i",686.168417247,1,1
"distr_stats",1,"F",26,1,130,"3",155,12,54,"norm",15,-79,-79,"j","j",811.276186062,1,1
"distr_stats",1,"F",26,1,130,"4",155,29,54,"norm",15,-79,-79,"i","i",701.753171284,1,1
"distr_stats",1,"F",26,1,130,"5",155,24,54,"norm",15,-79,-79,"j","j",889.083485603,1,1
"distr_stats",1,"F",26,1,130,"6",155,17,54,"norm",15,-79,-79,"i","i",545.391553583,1,1
"distr_stats",1,"F",26,1,131,"0",66,0,134,"norm",10,-68,12,"j","j",2623.50051656,1,1
"distr_stats",1,"F",26,1,131,"1",66,12,134,"norm",10,-68,12,"j","j",717.434761068,1,1
"distr_stats",1,"F",26,1,131,"2",66,7,134,"norm",10,-68,12,"j","j",951.671061711,1,1
"distr_stats",1,"F",26,1,131,"3",66,1,134,"norm",10,-68,12,"j","j",592.560826038,1,1
"distr_stats",1,"F",26,1,131,"4",66,18,134,"norm",10,-68,12,"j","j",967.424051124,1,1
"distr_stats",1,"F",26,1,132,"0",148,2,74,"norm",5,74,14,"j","j",779.987529857,1,1
"distr_stats",1,"F",26,1,132,"1",148,35,74,"norm",5,74,14,"i","i",545.420113434,1,1
"distr_stats",1,"F",26,1,132,"2",148,27,74,"norm",5,74,14,"i","i",748.614532839,1,1
"distr_stats",1,"F",26,1,132,"3",148,32,74,"norm",5,74,14,"j","j",842.417580532,1,1
"distr_stats",1,"F",26,1,132,"4",148,12,74,"norm",5,74,14,"j","j",545.410295985,1,1
"distr_stats",1,"F",26,1,133,"0",127,28,14,"norm",10,-67,53,"i","i",592.389913176,1,1
"distr_stats",1,"F",26,1,133,"1",127,27,14,"norm",10,-67,53,"i","i",1451.65499679,1,1
"distr_stats",1,"F",26,1,133,"2",127,23,14,"norm",10,-67,53,"i","i",764.190808171,1,1
"distr_stats",1,"F",26,1,133,"3",127,2,14,"norm",10,-67,53,"j","j",686.172433476,1,1
"distr_stats",1,"F",26,1,133,"4",127,12,14,"norm",10,-67,53,"j","j",592.476485226,1,1
"distr_stats",1,"F",26,1,133,"5",127,19,14,"norm",10,-67,53,"j","j",811.157930426,1,1
"distr_stats",1,"F",26,1,134,"0",80,11,174,"norm",15,86,66,"i","i",686.201885823,1,1
"distr_stats",1,"F",26,1,134,"1",80,8,174,"norm",15,86,66,"j","j",764.54512883,1,1
"distr_stats",1,"F",26,1,134,"2",80,10,174,"norm",15,86,66,"i","i",717.444578517,1,1
"distr_stats",1,"F",26,1,134,"3",80,25,174,"norm",15,86,66,"j","j",592.527357462,1,1
"distr_stats",1,"F",26,1,134,"4",80,4,174,"norm",15,86,66,"i","i",623.529522656,1,1
"distr_stats",1,"F",26,1,135,"0",49,23,114,"norm",5,-65,55,"i","i",638.987096104,1,1
"distr_stats",1,"F",26,1,135,"1",49,24,114,"norm",5,-65,55,"j","j",654.901627178,1,1
"distr_stats",1,"F",26,1,135,"2",49,20,114,"norm",5,-65,55,"j","j",1389.20798871,1,1
"distr_stats",1,"F",26,1,135,"3",49,23,114,"norm",5,-65,55,"i","i",639.17452013,1,1
"distr_stats",1,"F",26,1,135,"4",49,13,114,"norm",5,-65,55,"j","j",607.99831834,1,1
"distr_stats",1,"F",26,1,135,"5",49,28,114,"norm",5,-65,55,"i","i",607.952354829,1,1
"distr_stats",1,"F",26,1,136,"0",111,3,34,"norm",15,77,-3,"i","i",2123.63483711,1,1
"distr_stats",1,"F",26,1,136,"1",111,31,34,"norm",15,77,-3,"j","j",655.283615194,1,1
"distr_stats",1,"F",26,1,136,"2",111,7,34,"norm",15,77,-3,"j","j",561.344908205,1,1
"distr_stats",1,"F",26,1,136,"3",111,20,34,"norm",15,77,-3,"j","j",701.692035352,1,1
"distr_stats",1,"F",26,1,136,"4",111,7,34,"norm",15,77,-3,"j","j",654.796758973,1,1
"distr_stats",1,"F",26,1,136,"5",111,35,34,"norm",15,77,-3,"i","i",686.038559172,1,1
"distr_stats",1,"F",26,1,136,"6",111,33,34,"norm",15,77,-3,"i","i",717.455734709,1,1
"distr_stats",1,"F",26,1,137,"0",119,29,14,"norm",10,-75,85,"i","i",686.204117061,1,1
"distr_stats",1,"F",26,1,137,"1",119,4,14,"norm",10,-75,85,"i","i",607.975113461,1,1
"distr_stats",1,"F",26,1,137,"2",119,5,14,"norm",10,-75,85,"i","i",967.478939589,1,1
"distr_stats",1,"F",26,1,137,"3",119,6,14,"norm",10,-75,85,"j","j",1279.9317489,1,1
"distr_stats",1,"F",26,1,137,"4",119,20,14,"norm",10,-75,85,"j","j",873.615648458,1,1
"distr_stats",1,"F",26,1,137,"5",119,12,14,"norm",10,-75,85,"j","j",592.451941604,1,1
"distr_stats",1,"F",26,1,137,"6",119,31,14,"norm",10,-75,85,"j","j",1014.17072703,1,1
"distr_stats",1,"F",26,1,138,"0",140,4,34,"norm",15,-74,-54,"i","i",670.406949128,1,1
"distr_stats",1,"F",26,1,138,"1",140,10,34,"norm",15,-74,-54,"i","i",2342.27612002,1,1
"distr_stats",1,"F",26,1,138,"2",140,18,34,"norm",15,-74,-54,"j","j",811.160607912,1,1
"distr_stats",1,"F",26,1,138,"3",140,30,34,"norm",15,-74,-54,"j","j",639.203079982,1,1
"distr_stats",1,"F",26,1,138,"4",140,3,34,"norm",15,-74,-54,"i","i",773.103713118,1,1
"distr_stats",1,"F",26,1,139,"0",42,6,134,"norm",5,88,8,"j","j",904.879761042,1,1
"distr_stats",1,"F",26,1,139,"1",42,23,134,"norm",5,88,8,"i","i",592.275227522,1,1
"distr_stats",1,"F",26,1,139,"2",42,16,134,"norm",5,88,8,"i","i",701.689357866,1,1
"distr_stats",1,"F",26,1,139,"3",42,1,134,"norm",5,88,8,"j","j",576.64897245,1,1
"distr_stats",1,"F",26,1,139,"4",42,33,134,"norm",5,88,8,"i","i",748.515465854,1,1
"distr_stats",1,"F",26,1,139,"5",42,24,134,"norm",5,88,8,"j","j",811.21505013,1,1
"distr_stats",1,"F",26,1,140,"0",121,12,34,"norm",10,87,-13,"j","j",639.27849584,1,1
"distr_stats",1,"F",26,1,140,"1",121,12,34,"norm",10,87,-13,"j","j",920.426137778,1,1
"distr_stats",1,"F",26,1,140,"2",121,22,34,"norm",10,87,-13,"i","i",529.962986234,1,1
"distr_stats",1,"F",26,1,140,"3",121,20,34,"norm",10,87,-13,"j","j",1311.25119619,1,1
"distr_stats",1,"F",26,1,140,"4",121,25,34,"norm",10,87,-13,"j","j",1061.18738277,1,1
"distr_stats",1,"F",26,1,140,"5",121,32,34,"norm",10,87,-13,"j","j",998.708244853,1,1
"distr_stats",1,"F",26,1,140,"6",121,20,34,"norm",10,87,-13,"j","j",686.039451667,1,1
"distr_stats",1,"F",26,1,141,"0",3,9,94,"norm",15,89,-31,"i","i",623.738812819,1,1
"distr_stats",1,"F",26,1,141,"1",3,11,94,"norm",15,89,-31,"i","i",529.962093739,1,1
"distr_stats",1,"F",26,1,141,"2",3,30,94,"norm",15,89,-31,"j","j",686.496409293,1,1
"distr_stats",1,"F",26,1,141,"3",3,26,94,"norm",15,89,-31,"j","j",717.27277316,1,1
"distr_stats",1,"F",26,1,141,"4",3,25,94,"norm",15,89,-31,"j","j",623.649117035,1,1
"distr_stats",1,"F",26,1,141,"5",3,7,94,"norm",15,89,-31,"j","j",545.421452177,1,1
"distr_stats",1,"F",26,1,142,"0",118,18,34,"norm",5,84,24,"j","j",857.976005957,1,1
"distr_stats",1,"F",26,1,142,"1",118,23,34,"norm",5,84,24,"i","i",545.416989701,1,1
"distr_stats",1,"F",26,1,142,"2",118,6,34,"norm",5,84,24,"j","j",592.459527814,1,1
"distr_stats",1,"F",26,1,142,"3",118,27,34,"norm",5,84,24,"j","i",717.396383768,0,1
"distr_stats",1,"F",26,1,142,"4",118,7,34,"norm",5,84,24,"j","j",498.565445594,1,0
"distr_stats",1,"F",26,1,142,"5",118,22,34,"norm",5,84,24,"i","i",498.59132796,1,1
"distr_stats",1,"F",26,1,143,"0",151,30,54,"norm",10,-83,-63,"j","j",717.501251973,1,1
"distr_stats",1,"F",26,1,143,"1",151,3,54,"norm",10,-83,-63,"i","i",1076.69181223,1,1
"distr_stats",1,"F",26,1,143,"2",151,0,54,"norm",10,-83,-63,"j","j",1076.62710631,1,1
"distr_stats",1,"F",26,1,143,"3",151,3,54,"norm",10,-83,-63,"i","i",1905.01452784,1,1
"distr_stats",1,"F",26,1,143,"4",151,19,54,"norm",10,-83,-63,"j","j",1264.17429701,1,1
"distr_stats",1,"F",26,1,143,"5",151,25,54,"norm",10,-83,-63,"j","j",1107.93138119,1,1
"distr_stats",1,"F",26,1,144,"0",141,11,54,"norm",15,87,87,"i","i",1201.59118338,1,1
"distr_stats",1,"F",26,1,144,"1",141,5,54,"norm",15,87,87,"i","i",4013.94894193,1,1
"distr_stats",1,"F",26,1,144,"2",141,22,54,"norm",15,87,87,"i","i",764.205534344,1,1
"distr_stats",1,"F",26,1,144,"3",141,16,54,"norm",15,87,87,"i","i",904.855663667,1,1
"distr_stats",1,"F",26,1,144,"4",141,27,54,"norm",15,87,87,"i","i",623.558082508,1,1
"distr_stats",1,"F",26,1,145,"0",174,9,74,"norm",5,-80,-60,"i","i",842.618838237,1,1
"distr_stats",1,"F",26,1,145,"1",174,7,74,"norm",5,-80,-60,"j","j",592.298432401,1,1
"distr_stats",1,"F",26,1,145,"2",174,15,74,"norm",5,-80,-60,"i","i",732.971766604,1,1
"distr_stats",1,"F",26,1,145,"3",174,17,74,"norm",5,-80,-60,"i","i",561.06109468,1,1
"distr_stats",1,"F",26,1,145,"4",174,35,74,"norm",5,-80,-60,"i","i",576.706984649,1,1
"distr_stats",1,"F",26,1,146,"0",111,11,34,"norm",10,77,37,"i","i",1389.33784678,1,1
"distr_stats",1,"F",26,1,146,"1",111,12,34,"norm",10,77,37,"j","j",592.199365416,1,1
"distr_stats",1,"F",26,1,146,"2",111,2,34,"norm",10,77,37,"j","j",732.7798801,1,1
"distr_stats",1,"F",26,1,146,"3",111,6,34,"norm",10,77,37,"j","j",561.285557263,1,1
"distr_stats",1,"F",26,1,146,"4",111,20,34,"norm",10,77,37,"j","j",623.60583101,1,1
"distr_stats",1,"F",26,1,146,"5",111,12,34,"norm",10,77,37,"j","j",592.694254095,1,1
"distr_stats",1,"F",26,1,146,"6",111,34,34,"norm",10,77,37,"i","i",654.989537971,1,1
"distr_stats",1,"F",26,1,147,"0",117,32,54,"norm",5,63,83,"j","j",1139.16336394,1,1
"distr_stats",1,"F",26,1,147,"1",117,2,54,"norm",5,63,83,"j","j",561.216388873,1,1
"distr_stats",1,"F",26,1,147,"2",117,5,54,"norm",5,63,83,"i","i",607.976898452,1,1
"distr_stats",1,"F",26,1,147,"3",117,28,54,"norm",5,63,83,"i","i",576.669053596,1,1
"distr_stats",1,"F",26,1,147,"4",117,25,54,"norm",5,63,83,"j","j",1107.88943391,1,1
"distr_stats",1,"F",26,1,147,"5",117,13,54,"norm",5,63,83,"j","j",592.456404081,1,1
"distr_stats",1,"F",26,1,147,"6",117,29,54,"norm",5,63,83,"i","i",592.259162606,1,1
"distr_stats",1,"F",26,1,148,"0",33,29,134,"norm",10,79,-21,"i","i",873.527737665,1,1
"distr_stats",1,"F",26,1,148,"1",33,3,134,"norm",10,79,-21,"i","i",686.128701203,1,1
"distr_stats",1,"F",26,1,148,"2",33,34,134,"norm",10,79,-21,"i","i",1982.94320675,1,1
"distr_stats",1,"F",26,1,148,"3",33,14,134,"norm",10,79,-21,"j","j",748.697088661,1,1
"distr_stats",1,"F",26,1,148,"4",33,8,134,"norm",10,79,-21,"j","j",1686.25989802,1,1
"distr_stats",1,"F",26,1,148,"5",33,9,134,"norm",10,79,-21,"j","i",717.381657594,0,1
"distr_stats",1,"F",26,1,149,"0",31,12,114,"norm",5,-83,77,"j","j",623.693295555,1,0
"distr_stats",1,"F",26,1,149,"1",31,6,114,"norm",5,-83,77,"j","j",576.64138624,1,1
"distr_stats",1,"F",26,1,149,"2",31,35,114,"norm",5,-83,77,"i","i",561.294482217,1,1
"distr_stats",1,"F",26,1,149,"3",31,31,114,"norm",5,-83,77,"j","j",1498.81936053,1,1
"distr_stats",1,"F",26,1,149,"4",31,28,114,"norm",5,-83,77,"i","i",639.210219945,1,1
"distr_stats",1,"F",26,1,149,"5",31,6,114,"norm",5,-83,77,"j","j",685.955557103,1,1
"distr_stats",1,"F",26,1,150,"0",178,30,114,"norm",10,64,64,"j","j",670.447557667,1,1
"distr_stats",1,"F",26,1,150,"1",178,17,114,"norm",10,64,64,"i","i",592.514862527,1,1
"distr_stats",1,"F",26,1,150,"2",178,6,114,"norm",10,64,64,"j","j",795.546847776,1,1
"distr_stats",1,"F",26,1,150,"3",178,22,114,"norm",10,64,64,"i","i",639.178090112,1,1
"distr_stats",1,"F",26,1,150,"4",178,31,114,"norm",10,64,64,"j","j",764.137704697,1,1
"distr_stats",1,"F",26,1,150,"5",178,33,114,"norm",10,64,64,"i","i",873.737920323,1,1
"distr_stats",1,"F",26,1,151,"0",144,25,34,"norm",5,-70,30,"j","j",623.749076515,1,1
"distr_stats",1,"F",26,1,151,"1",144,15,34,"norm",5,-70,30,"i","i",967.547215484,1,1
"distr_stats",1,"F",26,1,151,"2",144,22,34,"norm",5,-70,30,"i","i",561.138295528,1,1
"distr_stats",1,"F",26,1,151,"3",144,22,34,"norm",5,-70,30,"i","i",545.529444117,1,1
"distr_stats",1,"F",26,1,151,"4",144,30,34,"norm",5,-70,30,"j","j",623.517473969,1,1
"distr_stats",1,"F",26,1,151,"5",144,0,34,"norm",5,-70,30,"j","j",623.523721436,1,1
"distr_stats",1,"F",26,1,151,"6",144,11,34,"norm",5,-70,30,"i","i",607.938521151,1,1
"distr_stats",1,"F",26,1,152,"0",88,8,174,"norm",15,-86,54,"j","j",1233.45906907,1,1
"distr_stats",1,"F",26,1,152,"1",88,6,174,"norm",15,-86,54,"j","j",623.665181951,1,1
"distr_stats",1,"F",26,1,152,"2",88,3,174,"norm",15,-86,54,"j","i",982.969981613,0,1
"distr_stats",1,"F",26,1,152,"3",88,14,174,"norm",15,-86,54,"j","j",1061.07939083,1,0
"distr_stats",1,"F",26,1,152,"4",88,27,174,"norm",15,-86,54,"i","i",1358.02420071,1,1
"distr_stats",1,"F",26,1,152,"5",88,29,174,"norm",15,-86,54,"i","i",607.956817306,1,1
"distr_stats",1,"F",26,1,152,"6",88,32,174,"norm",15,-86,54,"j","j",1092.20962911,1,1
"distr_stats",1,"F",26,1,153,"0",81,28,154,"norm",5,-73,87,"i","i",607.865336532,1,1
"distr_stats",1,"F",26,1,153,"1",81,18,154,"norm",5,-73,87,"j","j",529.874629193,1,1
"distr_stats",1,"F",26,1,153,"2",81,31,154,"norm",5,-73,87,"j","j",576.691812228,1,1
"distr_stats",1,"F",26,1,153,"3",81,4,154,"norm",5,-73,87,"i","i",1029.90363529,1,1
"distr_stats",1,"F",26,1,153,"4",81,24,154,"norm",5,-73,87,"j","j",545.528551621,1,1
"distr_stats",1,"F",26,1,154,"0",71,27,174,"norm",10,77,-83,"i","i",1389.25216723,1,1
"distr_stats",1,"F",26,1,154,"1",71,5,174,"norm",10,77,-83,"i","i",592.439000421,1,1
"distr_stats",1,"F",26,1,154,"2",71,17,174,"norm",10,77,-83,"i","i",592.389466929,1,1
"distr_stats",1,"F",26,1,154,"3",71,23,174,"norm",10,77,-83,"i","i",576.701183429,1,1
"distr_stats",1,"F",26,1,154,"4",71,10,174,"norm",10,77,-83,"i","i",623.61921844,1,1
"distr_stats",1,"F",26,1,154,"5",71,24,174,"norm",10,77,-83,"j","j",623.399218333,1,1
"distr_stats",1,"F",26,1,155,"0",57,11,174,"norm",15,63,63,"i","i",639.183445084,1,1
"distr_stats",1,"F",26,1,155,"1",57,24,174,"norm",15,63,63,"j","j",1279.93755012,1,1
"distr_stats",1,"F",26,1,155,"2",57,4,174,"norm",15,63,63,"i","i",1248.54447195,1,1
"distr_stats",1,"F",26,1,155,"3",57,24,174,"norm",15,63,63,"j","j",1045.45849074,1,1
"distr_stats",1,"F",26,1,155,"4",57,31,174,"norm",15,63,63,"j","j",842.417580533,1,1
"distr_stats",1,"F",26,1,156,"0",174,14,94,"norm",5,80,0,"j","j",1029.7764547,1,1
"distr_stats",1,"F",26,1,156,"1",174,35,94,"norm",5,80,0,"i","i",623.60583101,1,1
"distr_stats",1,"F",26,1,156,"2",174,33,94,"norm",5,80,0,"i","i",607.85016411,1,1
"distr_stats",1,"F",26,1,156,"3",174,33,94,"norm",5,80,0,"i","i",639.233424824,1,1
"distr_stats",1,"F",26,1,156,"4",174,28,94,"norm",5,80,0,"i","i",670.527882249,1,1
"distr_stats",1,"F",26,1,156,"5",174,21,94,"norm",5,80,0,"i","i",701.599215834,1,1
"distr_stats",1,"F",26,1,157,"0",148,24,34,"norm",10,-66,54,"j","j",2420.48058,1,1
"distr_stats",1,"F",26,1,157,"1",148,12,34,"norm",10,-66,54,"j","j",686.142088634,1,1
"distr_stats",1,"F",26,1,157,"2",148,10,34,"norm",10,-66,54,"i","i",764.188130684,1,1
"distr_stats",1,"F",26,1,157,"3",148,18,34,"norm",10,-66,54,"j","j",717.465552158,1,1
"distr_stats",1,"F",26,1,157,"4",148,1,34,"norm",10,-66,54,"j","j",857.924687473,1,1
"distr_stats",1,"F",26,1,157,"5",148,15,34,"norm",10,-66,54,"i","i",1217.4668909,1,1
"distr_stats",1,"F",26,1,158,"0",167,33,94,"norm",5,73,-47,"i","i",1107.93718241,1,1
"distr_stats",1,"F",26,1,158,"1",167,35,94,"norm",5,73,-47,"i","i",842.531373692,1,1
"distr_stats",1,"F",26,1,158,"2",167,6,94,"norm",5,73,-47,"j","j",1029.88578538,1,1
"distr_stats",1,"F",26,1,158,"3",167,34,94,"norm",5,73,-47,"i","i",545.414312214,1,1
"distr_stats",1,"F",26,1,158,"4",167,13,94,"norm",5,73,-47,"j","j",545.368794951,1,1
"distr_stats",1,"F",26,1,158,"5",167,10,94,"norm",5,73,-47,"i","i",1014.31709626,1,1
"distr_stats",1,"F",26,1,159,"0",2,3,94,"norm",15,88,88,"i","i",748.565891842,1,1
"distr_stats",1,"F",26,1,159,"1",2,28,94,"norm",15,88,88,"i","i",654.903412169,1,1
"distr_stats",1,"F",26,1,159,"2",2,6,94,"norm",15,88,88,"j","j",576.806497882,1,1
"distr_stats",1,"F",26,1,159,"3",2,6,94,"norm",15,88,88,"j","j",639.174966378,1,1
"distr_stats",1,"F",26,1,159,"4",2,30,94,"norm",15,88,88,"j","j",655.009172869,1,1
"distr_stats",1,"F",26,1,160,"0",170,1,94,"norm",5,76,76,"j","j",748.551165669,1,1
"distr_stats",1,"F",26,1,160,"1",170,6,94,"norm",5,76,76,"j","j",576.751609417,1,1
"distr_stats",1,"F",26,1,160,"2",170,23,94,"norm",5,76,76,"i","i",608.034464403,1,1
"distr_stats",1,"F",26,1,160,"3",170,30,94,"norm",5,76,76,"j","j",774.024768333,1,1
"distr_stats",1,"F",26,1,160,"4",170,14,94,"norm",5,76,76,"j","j",1514.24658913,1,1
"distr_stats",1,"F",26,1,161,"0",5,16,74,"norm",15,-69,-89,"i","i",1748.55161192,1,1
"distr_stats",1,"F",26,1,161,"1",5,6,74,"norm",15,-69,-89,"j","j",732.849048491,1,1
"distr_stats",1,"F",26,1,161,"2",5,21,74,"norm",15,-69,-89,"i","i",654.792742744,1,1
"distr_stats",1,"F",26,1,161,"3",5,33,74,"norm",15,-69,-89,"i","i",623.448305578,1,1
"distr_stats",1,"F",26,1,161,"4",5,2,74,"norm",15,-69,-89,"j","j",1045.40538726,1,1
"distr_stats",1,"F",26,1,161,"5",5,8,74,"norm",15,-69,-89,"j","j",670.414089091,1,1
"distr_stats",1,"F",26,1,162,"0",103,19,174,"norm",10,-71,29,"j","j",654.911890875,1,1
"distr_stats",1,"F",26,1,162,"1",103,11,174,"norm",10,-71,29,"i","i",686.126023717,1,1
"distr_stats",1,"F",26,1,162,"2",103,8,174,"norm",10,-71,29,"j","j",840.521920381,1,1
"distr_stats",1,"F",26,1,162,"3",103,19,174,"norm",10,-71,29,"j","j",592.419365523,1,1
"distr_stats",1,"F",26,1,162,"4",103,22,174,"norm",10,-71,29,"i","i",639.24770475,1,1
"distr_stats",1,"F",26,1,162,"5",103,28,174,"norm",10,-71,29,"i","i",561.109735677,1,1
"distr_stats",1,"F",26,1,163,"0",165,4,54,"norm",15,-69,-9,"i","i",1482.97087411,1,1
"distr_stats",1,"F",26,1,163,"1",165,1,54,"norm",15,-69,-9,"j","j",842.349304637,1,1
"distr_stats",1,"F",26,1,163,"2",165,31,54,"norm",15,-69,-9,"j","j",905.017651575,1,1
"distr_stats",1,"F",26,1,163,"3",165,0,54,"norm",15,-69,-9,"j","j",592.500582602,1,1
"distr_stats",1,"F",26,1,163,"4",165,27,54,"norm",15,-69,-9,"i","i",576.650311194,1,1
"distr_stats",1,"F",26,1,164,"0",94,17,174,"norm",10,-80,40,"i","i",623.709360472,1,1
"distr_stats",1,"F",26,1,164,"1",94,23,174,"norm",10,-80,40,"i","i",639.598455428,1,1
"distr_stats",1,"F",26,1,164,"2",94,34,174,"norm",10,-80,40,"i","i",545.418328444,1,1
"distr_stats",1,"F",26,1,164,"3",94,20,174,"norm",10,-80,40,"j","j",811.28421852,1,1
"distr_stats",1,"F",26,1,164,"4",94,29,174,"norm",10,-80,40,"i","i",514.1948244,1,1
"distr_stats",1,"F",26,1,164,"5",94,10,174,"norm",10,-80,40,"i","i",607.981360929,1,1
"distr_stats",1,"F",26,1,165,"0",51,9,134,"norm",15,-83,57,"i","i",1623.70891422,1,1
"distr_stats",1,"F",26,1,165,"1",51,1,134,"norm",15,-83,57,"j","j",1092.48719517,1,1
"distr_stats",1,"F",26,1,165,"2",51,23,134,"norm",15,-83,57,"i","i",1795.43439336,1,1
"distr_stats",1,"F",26,1,165,"3",51,18,134,"norm",15,-83,57,"j","j",795.522304153,1,1
"distr_stats",1,"F",26,1,165,"4",51,2,134,"norm",15,-83,57,"j","j",842.340379683,1,1
"distr_stats",1,"F",26,1,166,"0",127,20,14,"norm",5,-67,-7,"j","j",732.938744275,1,1
"distr_stats",1,"F",26,1,166,"1",127,9,14,"norm",5,-67,-7,"i","i",686.229106931,1,1
"distr_stats",1,"F",26,1,166,"2",127,10,14,"norm",5,-67,-7,"i","i",529.867042982,1,1
"distr_stats",1,"F",26,1,166,"3",127,29,14,"norm",5,-67,-7,"i","i",592.392144415,1,1
"distr_stats",1,"F",26,1,166,"4",127,32,14,"norm",5,-67,-7,"j","j",561.052615974,1,1
"distr_stats",1,"F",26,1,166,"5",127,19,14,"norm",5,-67,-7,"j","j",623.624127164,1,1
"distr_stats",1,"F",26,1,166,"6",127,27,14,"norm",5,-67,-7,"i","i",514.142167173,1,1
"distr_stats",1,"F",26,1,167,"0",51,24,134,"norm",10,-83,37,"j","j",1373.32692621,1,1
"distr_stats",1,"F",26,1,167,"1",51,1,134,"norm",10,-83,37,"j","j",561.49797116,1,1
"distr_stats",1,"F",26,1,167,"2",51,6,134,"norm",10,-83,37,"j","j",920.329748279,1,1
"distr_stats",1,"F",26,1,167,"3",51,2,134,"norm",10,-83,37,"j","j",592.260501349,1,1
"distr_stats",1,"F",26,1,167,"4",51,19,134,"norm",10,-83,37,"j","j",639.308394435,1,1
"distr_stats",1,"F",26,1,167,"5",51,28,134,"norm",10,-83,37,"i","i",686.068011519,1,1
"distr_stats",1,"F",26,1,168,"0",36,15,154,"norm",15,62,82,"i","i",576.706984649,1,1
"distr_stats",1,"F",26,1,168,"1",36,11,154,"norm",15,62,82,"i","i",1186.04168291,1,1
"distr_stats",1,"F",26,1,168,"2",36,26,154,"norm",15,62,82,"i","j",967.063036749,0,1
"distr_stats",1,"F",26,1,168,"3",36,12,154,"norm",15,62,82,"j","j",1092.63981188,1,0
"distr_stats",1,"F",26,1,168,"4",36,11,154,"norm",15,62,82,"i","i",1951.58761339,1,1
"distr_stats",1,"F",26,1,168,"5",36,11,154,"norm",15,62,82,"i","i",607.9773447,1,1
"distr_stats",1,"F",26,1,169,"0",142,5,54,"norm",10,88,-12,"i","i",1357.92781121,1,1
"distr_stats",1,"F",26,1,169,"1",142,8,54,"norm",10,88,-12,"j","j",967.264740701,1,1
"distr_stats",1,"F",26,1,169,"2",142,24,54,"norm",10,88,-12,"j","j",576.665929862,1,1
"distr_stats",1,"F",26,1,169,"3",142,17,54,"norm",10,88,-12,"i","i",764.49693408,1,1
"distr_stats",1,"F",26,1,169,"4",142,3,54,"norm",10,88,-12,"j","i",748.709583596,0,1
"distr_stats",1,"F",26,1,169,"5",142,19,54,"norm",10,88,-12,"j","j",608.002780818,1,0
"distr_stats",1,"F",26,1,170,"0",59,21,174,"norm",15,65,5,"i","i",764.187238189,1,1
"distr_stats",1,"F",26,1,170,"1",59,4,174,"norm",15,65,5,"i","i",592.339040941,1,1
"distr_stats",1,"F",26,1,170,"2",59,9,174,"norm",15,65,5,"i","i",1279.92282394,1,1
"distr_stats",1,"F",26,1,170,"3",59,6,174,"norm",15,65,5,"j","j",670.377050533,1,1
"distr_stats",1,"F",26,1,170,"4",59,15,174,"norm",15,65,5,"i","i",701.523353728,1,1
"distr_stats",1,"F",26,1,170,"5",59,23,174,"norm",15,65,5,"i","i",1123.96952287,1,1
"distr_stats",1,"F",26,1,171,"0",56,34,134,"norm",10,-78,62,"i","i",1060.92097291,1,1
"distr_stats",1,"F",26,1,171,"1",56,10,134,"norm",10,-78,62,"i","i",592.422935505,1,1
"distr_stats",1,"F",26,1,171,"2",56,32,134,"norm",10,-78,62,"j","j",748.573478053,1,1
"distr_stats",1,"F",26,1,171,"3",56,5,134,"norm",10,-78,62,"i","i",664.781550852,1,1
"distr_stats",1,"F",26,1,171,"4",56,20,134,"norm",10,-78,62,"j","j",764.119408541,1,1
"distr_stats",1,"F",26,1,171,"5",56,27,134,"norm",10,-78,62,"j","i",1030.18387884,0,1
"distr_stats",1,"F",26,1,171,"6",56,7,134,"norm",10,-78,62,"j","j",529.930856401,1,0
"distr_stats",1,"F",26,1,172,"0",39,3,154,"norm",15,65,85,"i","i",702.066437157,1,1
"distr_stats",1,"F",26,1,172,"1",39,7,154,"norm",15,65,85,"j","j",654.713310656,1,1
"distr_stats",1,"F",26,1,172,"2",39,10,154,"norm",15,65,85,"i","i",1139.26109218,1,1
"distr_stats",1,"F",26,1,172,"3",39,23,154,"norm",15,65,85,"i","i",576.711893373,1,1
"distr_stats",1,"F",26,1,172,"4",39,32,154,"norm",15,65,85,"j","j",1107.96529601,1,1
"distr_stats",1,"F",26,1,172,"5",39,30,154,"norm",15,65,85,"j","j",1670.28199978,1,1
"distr_stats",1,"F",26,1,173,"0",66,23,134,"norm",5,-68,-88,"i","i",826.723495813,1,1
"distr_stats",1,"F",26,1,173,"1",66,3,134,"norm",5,-68,-88,"i","i",560.912940449,1,1
"distr_stats",1,"F",26,1,173,"2",66,17,134,"norm",5,-68,-88,"i","i",655.036393978,1,1
"distr_stats",1,"F",26,1,173,"3",66,20,134,"norm",5,-68,-88,"j","j",717.542753007,1,1
"distr_stats",1,"F",26,1,173,"4",66,34,134,"norm",5,-68,-88,"i","i",779.741201136,1,1
"distr_stats",1,"F",26,1,173,"5",66,14,134,"norm",5,-68,-88,"j","j",717.43833105,1,1
"distr_stats",1,"F",26,1,174,"0",63,0,174,"norm",10,69,-71,"j","j",654.820856347,1,1
"distr_stats",1,"F",26,1,174,"1",63,11,174,"norm",10,69,-71,"i","i",638.965676215,1,1
"distr_stats",1,"F",26,1,174,"2",63,23,174,"norm",10,69,-71,"i","i",529.98306738,1,1
"distr_stats",1,"F",26,1,174,"3",63,31,174,"norm",10,69,-71,"j","j",701.724165185,1,1
"distr_stats",1,"F",26,1,174,"4",63,31,174,"norm",10,69,-71,"j","j",732.976675328,1,1
"distr_stats",1,"F",26,1,174,"5",63,31,174,"norm",10,69,-71,"j","j",561.13606429,1,1
"distr_stats",1,"F",26,1,175,"0",34,7,94,"norm",15,-60,40,"j","j",998.636845223,1,1
"distr_stats",1,"F",26,1,175,"1",34,29,94,"norm",15,-60,40,"i","i",545.368794951,1,1
"distr_stats",1,"F",26,1,175,"2",34,3,94,"norm",15,-60,40,"j","i",670.536807203,0,1
"distr_stats",1,"F",26,1,175,"3",34,31,94,"norm",15,-60,40,"j","j",639.159347709,1,0
"distr_stats",1,"F",26,1,175,"4",34,32,94,"norm",15,-60,40,"j","j",701.685341636,1,1
"distr_stats",1,"F",26,1,175,"5",34,10,94,"norm",15,-60,40,"i","i",543.388793987,1,1
"distr_stats",1,"F",26,1,176,"0",142,13,74,"norm",5,68,48,"j","j",561.060648432,1,1
"distr_stats",1,"F",26,1,176,"1",142,26,74,"norm",5,68,48,"j","j",623.57102369,1,1
"distr_stats",1,"F",26,1,176,"2",142,23,74,"norm",5,68,48,"i","i",514.238110425,1,1
"distr_stats",1,"F",26,1,176,"3",142,25,74,"norm",5,68,48,"j","j",655.122966028,1,1
"distr_stats",1,"F",26,1,176,"4",142,5,74,"norm",5,68,48,"i","i",811.180689058,1,1
"distr_stats",1,"F",26,1,176,"5",142,10,74,"norm",5,68,48,"i","i",686.228660684,1,1
"distr_stats",1,"F",26,1,177,"0",171,13,74,"norm",15,-83,-83,"j","j",607.9483386,1,1
"distr_stats",1,"F",26,1,177,"1",171,19,74,"norm",15,-83,-83,"j","j",545.870377345,1,1
"distr_stats",1,"F",26,1,177,"2",171,17,74,"norm",15,-83,-83,"i","i",701.72505768,1,1
"distr_stats",1,"F",26,1,177,"3",171,9,74,"norm",15,-83,-83,"i","i",826.711893374,1,1
"distr_stats",1,"F",26,1,177,"4",171,15,74,"norm",15,-83,-83,"i","i",639.350341717,1,1
"distr_stats",1,"F",26,1,177,"5",171,20,74,"norm",15,-83,-83,"j","j",561.217281368,1,1
"distr_stats",1,"F",26,1,177,"6",171,0,74,"norm",15,-83,-83,"j","j",576.677086054,1,1
"distr_stats",1,"F",26,1,178,"0",107,27,14,"norm",10,-87,33,"i","i",2155.00604914,1,1
"distr_stats",1,"F",26,1,178,"1",107,11,14,"norm",10,-87,33,"i","i",623.920435625,1,1
"distr_stats",1,"F",26,1,178,"2",107,1,14,"norm",10,-87,33,"j","j",730.850305125,1,1
"distr_stats",1,"F",26,1,178,"3",107,22,14,"norm",10,-87,33,"i","i",732.813348677,1,1
"distr_stats",1,"F",26,1,178,"4",107,15,14,"norm",10,-87,33,"i","i",670.496198664,1,1
"distr_stats",1,"F",26,1,178,"5",107,34,14,"norm",10,-87,33,"i","i",545.098368856,1,1
"distr_stats",1,"F",26,1,179,"0",101,4,174,"norm",5,-73,87,"i","i",576.686903504,1,1
"distr_stats",1,"F",26,1,179,"1",101,2,174,"norm",5,-73,87,"j","j",826.703860915,1,1
"distr_stats",1,"F",26,1,179,"2",101,8,174,"norm",5,-73,87,"j","j",576.668161101,1,1
"distr_stats",1,"F",26,1,179,"3",101,21,174,"norm",5,-73,87,"i","i",764.14082843,1,1
"distr_stats",1,"F",26,1,179,"4",101,24,174,"norm",5,-73,87,"j","j",592.257377615,1,1
"distr_stats",1,"F",26,1,180,"0",121,9,54,"norm",15,67,-53,"i","i",2061.25342743,1,1
"distr_stats",1,"F",26,1,180,"1",121,11,54,"norm",15,67,-53,"i","i",670.469423803,1,1
"distr_stats",1,"F",26,1,180,"2",121,9,54,"norm",15,67,-53,"i","i",670.524312268,1,1
"distr_stats",1,"F",26,1,180,"3",121,33,54,"norm",15,67,-53,"i","i",1108.12862266,1,1
"distr_stats",1,"F",26,1,180,"4",121,24,54,"norm",15,67,-53,"i","j",576.744469455,0,1
"distr_stats",1,"F",26,1,180,"5",121,7,54,"norm",15,67,-53,"j","j",1076.75562565,1,0
"distr_stats",1,"F",26,1,181,"0",17,17,94,"norm",10,-77,-37,"i","i",529.921038952,1,1
"distr_stats",1,"F",26,1,181,"1",17,23,94,"norm",10,-77,-37,"i","i",529.819740728,1,1
"distr_stats",1,"F",26,1,181,"2",17,17,94,"norm",10,-77,-37,"i","i",529.895602834,1,1
"distr_stats",1,"F",26,1,181,"3",17,27,94,"norm",10,-77,-37,"i","i",561.15525294,1,1
"distr_stats",1,"F",26,1,181,"4",17,27,94,"norm",10,-77,-37,"i","i",545.525427887,1,1
"distr_stats",1,"F",26,1,181,"5",17,33,94,"norm",10,-77,-37,"i","i",623.659826979,1,1
"distr_stats",1,"F",26,1,181,"6",17,30,94,"norm",10,-77,-37,"j","j",701.692481599,1,1
"distr_stats",1,"F",26,1,182,"0",68,21,154,"norm",15,-86,-26,"i","i",1638.99691355,1,1
"distr_stats",1,"F",26,1,182,"1",68,11,154,"norm",15,-86,-26,"i","i",670.607314337,1,1
"distr_stats",1,"F",26,1,182,"2",68,16,154,"norm",15,-86,-26,"i","i",607.981360929,1,1
"distr_stats",1,"F",26,1,182,"3",68,11,154,"norm",15,-86,-26,"i","i",1764.04354644,1,1
"distr_stats",1,"F",26,1,182,"4",68,20,154,"norm",15,-86,-26,"j","j",951.724165185,1,1
"distr_stats",1,"F",26,1,183,"0",63,2,174,"norm",10,69,89,"j","j",592.524679976,1,1
"distr_stats",1,"F",26,1,183,"1",63,31,174,"norm",10,69,89,"j","j",639.171396397,1,1
"distr_stats",1,"F",26,1,183,"2",63,12,174,"norm",10,69,89,"j","j",639.209327449,1,1
"distr_stats",1,"F",26,1,183,"3",63,35,174,"norm",10,69,89,"i","i",670.410965357,1,1
"distr_stats",1,"F",26,1,183,"4",63,3,174,"norm",10,69,89,"i","i",655.012296603,1,1
"distr_stats",1,"F",26,1,183,"5",63,15,174,"norm",10,69,89,"i","i",701.656335537,1,1
"distr_stats",1,"F",26,1,184,"0",8,21,74,"norm",15,-66,14,"i","i",842.552347332,1,1
"distr_stats",1,"F",26,1,184,"1",8,9,74,"norm",15,-66,14,"i","i",2545.43885584,1,1
"distr_stats",1,"F",26,1,184,"2",8,26,74,"norm",15,-66,14,"j","j",904.898057196,1,1
"distr_stats",1,"F",26,1,184,"3",8,8,74,"norm",15,-66,14,"j","j",654.788726514,1,1
"distr_stats",1,"F",26,1,184,"4",8,27,74,"norm",15,-66,14,"i","i",1139.16648767,1,1
"distr_stats",1,"F",26,1,184,"5",8,13,74,"norm",15,-66,14,"j","j",2139.18299884,1,1
"distr_stats",1,"F",26,1,184,"6",8,31,74,"norm",15,-66,14,"j","j",857.967081003,1,1
"distr_stats",1,"F",26,1,185,"0",94,2,154,"norm",5,-60,20,"j","j",889.286528298,1,1
"distr_stats",1,"F",26,1,185,"1",94,8,154,"norm",5,-60,20,"j","j",654.743209251,1,1
"distr_stats",1,"F",26,1,185,"2",94,8,154,"norm",5,-60,20,"j","j",967.287053086,1,1
"distr_stats",1,"F",26,1,185,"3",94,31,154,"norm",5,-60,20,"j","j",607.926026216,1,1
"distr_stats",1,"F",26,1,185,"4",94,8,154,"norm",5,-60,20,"j","j",576.681994779,1,1
"distr_stats",1,"F",26,1,185,"5",94,18,154,"norm",5,-60,20,"j","j",748.735912209,1,1
"distr_stats",1,"F",26,1,186,"0",57,28,154,"norm",10,83,83,"i","i",1296.13500222,1,1
"distr_stats",1,"F",26,1,186,"1",57,25,154,"norm",10,83,83,"j","j",717.306241736,1,1
"distr_stats",1,"F",26,1,186,"2",57,7,154,"norm",10,83,83,"j","j",1029.88667788,1,1
"distr_stats",1,"F",26,1,186,"3",57,35,154,"norm",10,83,83,"i","i",654.830673796,1,1
"distr_stats",1,"F",26,1,186,"4",57,14,154,"norm",10,83,83,"j","j",1076.71814084,1,1
"distr_stats",1,"F",26,1,186,"5",57,33,154,"norm",10,83,83,"j","i",920.440417704,0,1
"distr_stats",1,"F",26,1,186,"6",57,12,154,"norm",10,83,83,"j","j",1420.50333863,1,0
"distr_stats",1,"F",26,1,187,"0",24,15,94,"norm",15,-70,50,"i","i",1311.37212931,1,1
"distr_stats",1,"F",26,1,187,"1",24,9,94,"norm",15,-70,50,"i","i",592.463097796,1,1
"distr_stats",1,"F",26,1,187,"2",24,8,94,"norm",15,-70,50,"j","j",764.329144952,1,1
"distr_stats",1,"F",26,1,187,"3",24,1,94,"norm",15,-70,50,"j","j",623.733457846,1,1
"distr_stats",1,"F",26,1,187,"4",24,8,94,"norm",15,-70,50,"j","j",1029.79207337,1,1
"distr_stats",1,"F",26,1,187,"5",24,9,94,"norm",15,-70,50,"i","i",982.977567823,1,1
"distr_stats",1,"F",26,1,188,"0",87,8,154,"norm",5,-67,-7,"j","j",686.408052252,1,1
"distr_stats",1,"F",26,1,188,"1",87,22,154,"norm",5,-67,-7,"i","i",654.986414238,1,1
"distr_stats",1,"F",26,1,188,"2",87,15,154,"norm",5,-67,-7,"i","i",701.695605333,1,1
"distr_stats",1,"F",26,1,188,"3",87,3,154,"norm",5,-67,-7,"i","i",967.431191087,1,1
"distr_stats",1,"F",26,1,188,"4",87,12,154,"norm",5,-67,-7,"j","j",1123.86376217,1,1
"distr_stats",1,"F",26,1,189,"0",150,34,34,"norm",10,-64,-4,"i","i",1264.23141671,1,1
"distr_stats",1,"F",26,1,189,"1",150,11,34,"norm",10,-64,-4,"i","i",638.974601169,1,1
"distr_stats",1,"F",26,1,189,"2",150,6,34,"norm",10,-64,-4,"j","j",1420.48548872,1,1
"distr_stats",1,"F",26,1,189,"3",150,8,34,"norm",10,-64,-4,"j","j",2826.65343493,1,1
"distr_stats",1,"F",26,1,189,"4",150,23,34,"norm",10,-64,-4,"i","i",1076.69672095,1,1
"distr_stats",1,"F",26,1,189,"5",150,9,34,"norm",10,-64,-4,"i","i",655.074325031,1,1
"distr_stats",1,"F",26,1,189,"6",150,12,34,"norm",10,-64,-4,"j","j",1186.08898516,1,1
"distr_stats",1,"F",26,1,190,"0",26,18,94,"norm",15,-68,-8,"j","j",3108.00411956,1,1
"distr_stats",1,"F",26,1,190,"1",26,32,94,"norm",15,-68,-8,"j","j",2592.39125192,1,1
"distr_stats",1,"F",26,1,190,"2",26,30,94,"norm",15,-68,-8,"j","j",998.658265112,1,1
"distr_stats",1,"F",26,1,190,"3",26,19,94,"norm",15,-68,-8,"j","j",1076.783293,1,1
"distr_stats",1,"F",26,1,190,"4",26,10,94,"norm",15,-68,-8,"i","i",670.511371085,1,1
"distr_stats",1,"F",26,1,191,"0",177,32,74,"norm",5,-77,83,"j","j",1139.20531122,1,1
"distr_stats",1,"F",26,1,191,"1",177,27,74,"norm",5,-77,83,"i","i",841.314010015,1,1
"distr_stats",1,"F",26,1,191,"2",177,9,74,"norm",5,-77,83,"i","i",764.151092127,1,1
"distr_stats",1,"F",26,1,191,"3",177,32,74,"norm",5,-77,83,"j","j",1014.24792787,1,1
"distr_stats",1,"F",26,1,191,"4",177,13,74,"norm",5,-77,83,"j","j",576.734652005,1,1
"distr_stats",1,"F",26,1,191,"5",177,3,74,"norm",5,-77,83,"i","i",982.986492777,1,1
"distr_stats",1,"F",26,1,192,"0",95,19,14,"norm",15,81,21,"j","j",732.988724016,1,1
"distr_stats",1,"F",26,1,192,"1",95,5,14,"norm",15,81,21,"i","i",795.485711843,1,1
"distr_stats",1,"F",26,1,192,"2",95,8,14,"norm",15,81,21,"j","j",1139.2472585,1,1
"distr_stats",1,"F",26,1,192,"3",95,12,14,"norm",15,81,21,"j","j",592.568412249,1,1
"distr_stats",1,"F",26,1,192,"4",95,3,14,"norm",15,81,21,"i","i",935.719938327,1,1
"distr_stats",1,"F",26,1,193,"0",51,16,134,"norm",5,-83,37,"i","i",1014.68391186,1,1
"distr_stats",1,"F",26,1,193,"1",51,6,134,"norm",5,-83,37,"j","j",733.000772703,1,1
"distr_stats",1,"F",26,1,193,"2",51,27,134,"norm",5,-83,37,"i","i",873.649563282,1,1
"distr_stats",1,"F",26,1,193,"3",51,12,134,"norm",5,-83,37,"j","j",795.442872066,1,1
"distr_stats",1,"F",26,1,193,"4",51,31,134,"norm",5,-83,37,"j","j",779.756373558,1,1
"distr_stats",1,"F",26,1,193,"5",51,24,134,"norm",5,-83,37,"j","j",623.747291525,1,1
"distr_stats",1,"F",26,1,194,"0",105,12,174,"norm",15,-69,-29,"j","j",686.278194177,1,1
"distr_stats",1,"F",26,1,194,"1",105,27,174,"norm",15,-69,-29,"i","i",873.695973041,1,1
"distr_stats",1,"F",26,1,194,"2",105,28,174,"norm",15,-69,-29,"i","i",623.596906056,1,1
"distr_stats",1,"F",26,1,194,"3",105,27,174,"norm",15,-69,-29,"i","i",842.37563325,1,1
"distr_stats",1,"F",26,1,194,"4",105,5,174,"norm",15,-69,-29,"i","i",717.292408058,1,1
"distr_stats",1,"F",26,1,194,"5",105,6,174,"norm",15,-69,-29,"j","j",795.433500865,1,1
"distr_stats",1,"F",26,1,195,"0",122,11,34,"norm",10,88,-52,"i","i",826.717248346,1,1
"distr_stats",1,"F",26,1,195,"1",122,12,34,"norm",10,88,-52,"j","j",1123.69508055,1,1
"distr_stats",1,"F",26,1,195,"2",122,16,34,"norm",10,88,-52,"i","i",1607.95101609,1,1
"distr_stats",1,"F",26,1,195,"3",122,15,34,"norm",10,88,-52,"j","i",1373.54737256,0,1
"distr_stats",1,"F",26,1,195,"4",122,28,34,"norm",10,88,-52,"j","i",701.729520157,0,0
"distr_stats",1,"F",26,1,195,"5",122,5,34,"norm",10,88,-52,"i","i",748.504309662,1,0
"distr_stats",1,"F",26,1,195,"6",122,15,34,"norm",10,88,-52,"i","i",857.914423776,1,1
"distr_stats",1,"F",26,1,196,"0",136,8,34,"norm",5,-78,-78,"j","j",764.265777781,1,1
"distr_stats",1,"F",26,1,196,"1",136,10,34,"norm",5,-78,-78,"i","i",592.333239721,1,1
"distr_stats",1,"F",26,1,196,"2",136,33,34,"norm",5,-78,-78,"i","i",1155.01675908,1,1
"distr_stats",1,"F",26,1,196,"3",136,5,34,"norm",5,-78,-78,"i","i",592.492103895,1,1
