expName,subjectId,subjectGender,subjectAge,session,block,trial,targetOri,targetPos,distrMean,dtype,dsd,targetDist,t_dist_to_prev_d,d_ori_0,d_ori_1,d_ori_2,d_ori_3,d_ori_4,d_ori_5,d_ori_6,d_ori_7,d_ori_8,d_ori_9,d_ori_10,d_ori_11,d_ori_12,d_ori_13,d_ori_14,d_ori_15,d_ori_16,d_ori_17,d_ori_18,d_ori_19,d_ori_20,d_ori_21,d_ori_22,d_ori_23,d_ori_24,d_ori_25,d_ori_26,d_ori_27,d_ori_28,d_ori_29,d_ori_30,d_ori_31,d_ori_32,d_ori_33,d_ori_34,d_ori_35,correctAnswer,answer,rt,correct,prev_correct,blockId,tid
distr_stats_triangular,1,m,29,1,0,0,154,26,72,tri_left,15,82,,55,55,44,82,76,52,50,47,78,81,44,44,47,74,68,44,42,67,74,69,62,79,63,65,57,55,,96,69,58,46,52,71,56,78,59,j,j,499.034149534,1,,1,1
distr_stats_triangular,1,m,29,1,0,1,154,21,72,tri_left,15,82,,42,48,58,51,51,51,86,48,80,96,63,73,68,58,57,85,72,97,87,47,77,,53,48,60,58,51,44,59,46,93,47,89,58,54,47,i,i,421.155015205,1,1,1,2
distr_stats_triangular,1,m,29,1,0,2,154,16,72,tri_left,15,82,,86,48,69,75,49,56,62,51,84,51,44,63,86,76,51,50,,46,49,77,44,52,52,68,59,60,69,84,60,49,74,69,47,72,65,48,i,i,374.330512945,1,1,1,3
distr_stats_triangular,1,m,29,1,0,3,154,8,72,tri_left,15,82,,71,57,55,93,72,50,70,51,,51,68,59,93,77,74,94,51,46,50,61,55,44,64,88,44,59,51,57,59,43,44,66,65,48,48,68,j,j,389.641675276,1,1,1,4
distr_stats_triangular,1,m,29,1,0,4,154,6,72,tri_left,15,82,,76,81,63,71,52,74,,69,49,81,60,81,54,48,54,65,79,54,56,76,50,60,62,75,95,59,44,89,59,87,64,56,70,84,57,74,j,j,483.563484469,1,1,1,5
distr_stats_triangular,1,m,29,1,1,0,73,8,12,norm,10,61,1,3,11,177,16,42,1,20,13,,176,29,17,25,15,17,7,6,24,12,22,13,15,5,5,1,12,15,20,19,9,21,18,38,18,16,7,j,j,624.151759883,1,1,2,6
distr_stats_triangular,1,m,29,1,1,1,73,35,12,norm,10,61,1,18,10,24,179,20,178,14,7,7,7,6,13,4,5,26,20,20,10,4,23,7,13,2,8,17,5,22,3,4,6,26,3,6,17,10,,i,i,405.697550368,1,1,2,7
distr_stats_triangular,1,m,29,1,1,2,73,2,12,norm,10,61,1,178,29,,23,180,23,176,176,30,18,4,15,20,2,4,19,20,7,10,6,15,14,0,30,20,13,7,22,8,161,19,25,28,12,10,8,j,j,436.894818215,1,1,2,8
distr_stats_triangular,1,m,29,1,2,0,113,17,52,tri_left,15,61,-79,43,23,59,61,35,28,24,38,40,64,32,47,32,24,46,60,25,,26,55,33,32,56,45,41,42,37,53,29,64,39,37,49,51,55,34,i,i,390.089382947,1,1,3,9
distr_stats_triangular,1,m,29,1,2,1,113,26,52,tri_left,15,61,-79,59,35,36,39,36,23,34,44,23,44,30,40,64,40,56,31,39,43,35,26,54,39,44,40,28,40,,47,24,46,29,31,27,59,39,63,j,j,405.722484127,1,1,3,10
distr_stats_triangular,1,m,29,1,2,2,113,16,52,tri_left,15,61,-79,41,65,31,42,52,46,36,75,42,37,67,37,82,68,44,31,,49,35,29,48,33,32,40,36,60,33,32,60,71,26,45,52,29,26,46,i,i,436.752182437,1,1,3,11
distr_stats_triangular,1,m,29,1,2,3,113,9,52,tri_left,15,61,-79,24,38,43,53,49,75,42,49,59,,36,28,51,53,53,47,28,49,56,40,48,50,42,27,33,35,57,49,51,65,48,44,29,33,31,43,i,i,733.317630256,1,1,3,12
distr_stats_triangular,1,m,29,1,2,4,113,31,52,tri_left,15,61,-79,45,33,30,35,44,42,26,40,42,33,56,36,51,27,31,52,51,55,37,36,60,53,42,41,46,36,52,54,68,25,61,,27,73,32,39,j,j,499.329321259,1,1,3,13
distr_stats_triangular,1,m,29,1,3,0,97,17,12,norm,10,85,45,19,11,6,170,22,18,7,19,178,2,6,23,11,174,25,26,15,,17,20,16,9,3,6,173,8,17,13,12,26,12,9,15,32,14,3,i,i,390.072515991,1,1,4,14
distr_stats_triangular,1,m,29,1,4,0,30,34,132,tri_right,15,78,18,118,143,149,157,126,137,127,157,128,146,144,143,150,135,141,148,156,152,151,152,157,136,143,129,141,134,146,142,159,142,136,145,141,155,,143,i,i,530.091348313,1,1,5,15
distr_stats_triangular,1,m,29,1,4,1,30,7,132,tri_right,15,78,18,115,155,130,156,110,153,159,,117,130,122,155,122,125,123,145,138,148,125,118,145,149,130,117,130,147,148,157,160,158,121,138,134,160,135,145,j,j,592.662253695,1,1,5,16
distr_stats_triangular,1,m,29,1,4,2,30,24,132,tri_right,15,78,18,140,109,142,122,155,145,124,145,144,156,135,140,110,142,156,136,153,146,145,109,132,158,155,134,,143,129,153,153,158,142,147,132,113,157,156,j,j,436.909485132,1,1,5,17
distr_stats_triangular,1,m,29,1,4,3,30,11,132,tri_right,15,78,18,157,133,126,110,130,146,158,121,157,134,115,,155,144,137,159,145,137,147,148,138,129,151,128,132,128,130,150,131,151,151,110,153,125,123,140,i,i,452.428917697,1,1,5,18
distr_stats_triangular,1,m,29,1,4,4,30,19,132,tri_right,15,78,18,157,141,134,123,158,122,154,136,147,110,130,126,132,144,145,132,142,155,140,,158,147,143,158,146,139,154,147,114,140,152,154,137,149,157,156,j,j,405.490013478,1,1,5,19
distr_stats_triangular,1,m,29,1,4,5,30,5,132,tri_right,15,78,18,145,155,138,147,132,,136,139,129,155,135,151,150,160,158,144,141,148,155,137,121,149,154,153,135,126,119,146,139,123,151,143,132,142,119,126,i,i,468.049551999,1,1,5,20
distr_stats_triangular,1,m,29,1,4,6,30,32,132,tri_right,15,78,18,145,158,117,125,142,143,123,136,149,133,156,132,119,127,150,149,141,145,151,144,145,115,157,152,144,137,103,150,134,158,109,132,,158,152,144,j,j,405.599282016,1,1,5,21
distr_stats_triangular,1,m,29,1,5,0,22,32,132,norm,10,70,70,139,143,127,142,130,129,139,128,130,133,129,113,124,130,143,134,131,135,141,128,125,131,148,122,144,136,116,137,126,152,142,139,,119,135,137,j,j,686.489827942,1,1,6,22
distr_stats_triangular,1,m,29,1,6,0,119,24,52,tri_left,15,67,-13,36,48,47,44,57,28,33,62,49,27,55,30,27,55,56,34,42,33,32,71,30,24,36,59,,31,43,57,34,29,38,31,36,31,48,37,j,j,639.698326248,1,1,7,23
distr_stats_triangular,1,m,29,1,6,1,119,31,52,tri_left,15,67,-13,33,29,57,42,53,25,42,28,50,44,51,60,52,40,63,67,52,48,53,40,66,44,40,26,37,31,36,33,46,64,45,,46,28,40,31,j,j,405.356911197,1,1,7,24
distr_stats_triangular,1,m,29,1,6,2,119,26,52,tri_left,15,67,-13,56,36,29,52,43,54,43,42,48,58,63,40,39,46,27,25,77,60,28,46,28,47,28,47,52,34,,27,59,43,48,50,58,33,72,27,j,j,436.838350579,1,1,7,25
distr_stats_triangular,1,m,29,1,6,3,119,3,52,tri_left,15,67,-13,38,64,33,,38,68,61,66,69,75,32,42,49,22,56,37,52,37,34,44,33,33,44,26,36,39,61,42,50,37,43,30,38,28,52,63,i,j,468.002617861,0,1,7,26
distr_stats_triangular,1,m,29,1,6,4,119,34,52,tri_left,15,67,-13,41,55,36,46,34,43,41,41,31,24,47,31,43,28,43,28,24,31,50,32,25,56,24,71,56,25,64,40,25,34,32,41,55,51,,52,i,i,499.33078795,1,0,7,27
distr_stats_triangular,1,m,29,1,6,5,119,8,52,tri_left,15,67,-13,30,38,38,33,36,42,52,31,,38,41,39,62,53,46,25,42,53,46,52,41,31,43,29,64,41,29,51,44,30,62,39,37,67,28,35,j,j,436.811950127,1,1,7,28
distr_stats_triangular,1,m,29,1,6,6,119,25,52,tri_left,15,67,-13,66,50,31,38,42,39,38,41,44,42,49,59,34,42,36,33,29,57,47,33,42,52,51,34,41,,29,54,29,28,59,35,50,50,34,27,j,j,374.486715622,1,1,7,29
distr_stats_triangular,1,m,29,1,7,0,78,17,12,norm,10,66,26,27,11,22,20,16,12,18,12,175,24,16,12,12,15,176,13,2,,21,11,6,26,15,1,6,174,18,6,13,21,22,18,29,21,14,164,i,i,390.083149507,1,1,8,30
distr_stats_triangular,1,m,29,1,7,1,78,13,12,norm,10,66,26,180,179,16,17,14,25,177,11,21,30,15,178,1,,8,19,10,7,3,23,10,16,21,179,180,21,31,1,12,11,1,20,176,178,14,173,j,j,374.438681465,1,1,8,31
distr_stats_triangular,1,m,29,1,7,2,78,4,12,norm,10,66,26,15,170,15,2,,17,22,5,177,2,5,19,11,7,6,13,19,3,15,3,14,7,3,17,16,30,15,15,175,15,30,18,24,11,21,19,i,i,624.024891042,1,1,8,32
distr_stats_triangular,1,m,29,1,8,0,94,20,172,tri_right,15,-78,82,13,166,1,3,15,178,174,177,1,16,164,166,12,169,5,179,179,13,153,16,,10,165,177,160,159,14,17,176,8,15,5,148,17,14,153,j,j,343.14974538,1,1,9,33
distr_stats_triangular,1,m,29,1,8,1,94,3,172,tri_right,15,-78,82,161,5,17,,156,174,166,174,158,172,170,19,151,162,173,18,10,15,169,10,21,2,5,17,5,14,165,15,17,11,4,5,176,17,6,19,i,i,358.910448747,1,1,9,34
distr_stats_triangular,1,m,29,1,8,2,94,19,172,tri_right,15,-78,82,6,169,2,159,174,177,19,170,10,167,8,2,19,146,180,170,16,156,1,,19,10,11,154,11,3,16,3,12,144,179,10,165,17,6,11,j,j,327.64571308,1,1,9,35
distr_stats_triangular,1,m,29,1,8,3,94,10,172,tri_right,15,-78,82,18,12,153,16,17,13,10,9,169,174,,18,13,5,168,10,2,171,160,165,169,19,165,1,6,15,14,167,15,5,174,17,178,175,147,167,i,i,327.332207708,1,1,9,36
distr_stats_triangular,1,m,29,1,8,4,94,28,172,tri_right,15,-78,82,17,179,3,4,169,153,165,178,17,151,5,163,179,6,15,9,9,19,18,172,1,14,155,6,165,179,171,151,,167,174,171,8,179,17,13,i,i,358.820613876,1,1,9,37
distr_stats_triangular,1,m,29,1,9,0,126,35,52,norm,10,74,-46,50,58,55,54,43,48,41,62,50,58,65,53,47,57,39,33,46,46,62,56,60,54,54,39,51,63,43,58,46,48,47,53,64,50,59,,i,i,998.421439037,1,1,10,38
distr_stats_triangular,1,m,29,1,10,0,143,26,52,tri_right,15,-89,-89,65,68,72,75,72,37,64,55,77,46,73,29,46,54,42,57,65,64,57,72,45,78,78,55,81,81,,77,54,73,43,29,57,77,71,56,j,j,421.275283934,1,1,11,39
distr_stats_triangular,1,m,29,1,10,1,143,15,52,tri_right,15,-89,-89,40,81,62,71,37,67,38,54,64,58,76,77,52,77,68,,52,60,72,59,32,58,51,70,79,46,71,48,36,53,77,75,53,67,70,63,i,i,624.00839076,1,1,11,40
distr_stats_triangular,1,m,29,1,10,2,143,14,52,tri_right,15,-89,-89,74,57,79,72,76,73,55,77,39,65,59,36,39,73,,73,68,53,48,56,45,42,76,40,54,43,57,35,45,52,64,71,42,67,38,56,j,j,436.798383229,1,1,11,41
distr_stats_triangular,1,m,29,1,10,3,143,33,52,tri_right,15,-89,-89,64,70,77,50,69,39,73,51,64,34,35,53,54,61,69,39,71,68,73,62,42,77,51,66,79,56,56,68,76,30,79,30,40,,34,52,i,i,343.242146966,1,1,11,42
distr_stats_triangular,1,m,29,1,10,4,143,28,52,tri_right,15,-89,-89,79,60,71,60,52,78,60,56,59,33,70,73,75,42,77,55,77,79,67,73,65,76,67,74,63,79,76,75,,46,62,42,53,64,59,68,i,i,421.315617958,1,1,11,43
distr_stats_triangular,1,m,29,1,10,5,143,14,52,tri_right,15,-89,-89,70,69,75,79,40,76,58,74,32,74,78,66,74,80,,65,77,70,72,57,58,72,71,67,45,76,52,50,50,30,63,60,66,50,39,77,j,j,436.70414828,1,1,11,44
distr_stats_triangular,1,m,29,1,11,0,16,24,132,norm,10,64,-36,118,124,139,124,139,116,135,125,144,134,143,119,130,131,132,122,124,140,113,138,119,137,149,130,,144,141,135,116,127,122,126,131,118,124,123,j,j,795.610230873,1,1,12,45
distr_stats_triangular,1,m,29,1,12,0,173,12,92,tri_left,15,81,41,75,73,100,73,88,93,92,101,77,66,79,84,,85,82,87,70,81,64,80,115,105,64,68,91,78,112,87,97,94,112,73,100,86,77,115,j,j,452.339816171,1,1,13,46
distr_stats_triangular,1,m,29,1,12,1,173,6,92,tri_left,15,81,41,88,102,65,69,69,97,,87,88,111,74,104,92,81,82,79,99,67,89,72,77,79,72,78,104,69,90,83,72,67,74,73,68,104,76,66,j,j,405.719917417,1,1,13,47
distr_stats_triangular,1,m,29,1,12,2,173,35,92,tri_left,15,81,41,108,84,64,98,107,80,68,74,78,69,86,104,85,82,75,68,68,102,98,92,74,92,95,85,104,83,79,73,71,110,103,77,82,69,64,,i,i,405.634115947,1,1,13,48
distr_stats_triangular,1,m,29,1,12,3,173,19,92,tri_left,15,81,41,89,73,73,70,70,77,93,90,64,112,107,76,96,67,116,81,67,77,91,,85,77,90,73,103,75,78,87,76,101,64,77,75,97,72,86,j,j,405.679583391,1,1,13,49
distr_stats_triangular,1,m,29,1,12,4,173,22,92,tri_left,15,81,41,69,81,83,72,83,67,99,109,83,108,69,88,65,87,117,109,81,68,86,80,83,99,,70,103,70,76,70,91,73,89,77,73,70,112,73,i,i,405.559314664,1,1,13,50
distr_stats_triangular,1,m,29,1,13,0,64,30,132,norm,10,-68,-28,136,123,137,132,115,132,128,143,139,132,130,128,139,151,147,132,157,139,147,120,137,138,125,128,129,145,126,142,129,137,,129,147,145,130,130,j,j,998.418872327,1,1,14,51
distr_stats_triangular,1,m,29,1,13,1,64,27,132,norm,10,-68,-28,121,129,124,136,134,139,128,139,120,111,129,135,115,129,136,139,125,134,138,142,134,116,122,136,118,143,148,,137,154,130,115,132,124,132,155,i,i,546.127789739,1,1,14,52
distr_stats_triangular,1,m,29,1,13,2,64,23,132,norm,10,-68,-28,146,144,142,132,138,133,125,119,142,139,143,126,136,133,133,131,130,144,135,137,133,137,150,,118,126,140,130,122,136,131,120,121,106,138,123,i,i,483.725187241,1,1,14,53
distr_stats_triangular,1,m,29,1,14,0,117,12,12,tri_left,15,-75,-15,30,14,24,176,174,173,167,164,168,7,22,7,,166,2,169,14,164,177,12,176,166,9,14,164,20,167,12,169,6,174,11,179,6,4,4,j,j,468.10455294,1,1,15,54
distr_stats_triangular,1,m,29,1,14,1,117,31,12,tri_left,15,-75,-15,0,178,173,10,179,175,170,9,23,165,2,179,169,2,7,16,23,6,27,170,167,177,8,20,2,11,172,165,2,169,164,,172,16,2,169,j,j,390.100016462,1,1,15,55
distr_stats_triangular,1,m,29,1,14,2,117,11,12,tri_left,15,-75,-15,173,17,14,16,175,173,165,178,24,170,169,,7,19,178,21,163,167,0,170,166,16,167,176,4,12,179,169,13,177,177,22,178,6,1,168,i,i,436.799116575,1,1,15,56
distr_stats_triangular,1,m,29,1,14,3,117,6,12,tri_left,15,-75,-15,172,172,24,16,171,21,,7,172,9,21,174,172,173,34,6,170,0,170,16,172,168,32,178,3,35,175,6,12,174,176,19,3,10,176,8,j,j,561.704423286,1,1,15,57
distr_stats_triangular,1,m,29,1,14,4,117,5,12,tri_left,15,-75,-15,23,178,173,22,174,,28,1,12,30,13,177,9,174,177,6,166,179,164,33,14,12,171,20,173,174,168,171,4,6,21,21,168,179,4,18,i,i,452.166013194,1,1,15,58
distr_stats_triangular,1,m,29,1,15,0,145,23,72,norm,10,73,-47,72,72,76,79,62,73,63,72,71,88,62,73,50,70,72,85,62,74,78,69,75,88,61,,63,64,74,68,70,72,73,86,82,53,55,64,i,i,468.122519915,1,1,16,59
distr_stats_triangular,1,m,29,1,15,1,145,26,72,norm,10,73,-47,81,55,83,75,71,68,72,78,75,74,89,72,64,82,75,70,61,78,77,72,71,64,73,68,84,75,,66,59,78,61,67,81,64,64,72,j,j,452.502985634,1,1,16,60
distr_stats_triangular,1,m,29,1,15,2,145,15,72,norm,10,73,-47,49,50,84,60,77,54,73,74,81,88,66,88,63,72,72,,56,73,91,59,59,82,82,81,75,81,84,62,78,58,70,71,91,63,81,47,i,i,452.49271879,1,1,16,61
distr_stats_triangular,1,m,29,1,16,0,11,28,112,tri_right,15,79,-61,136,122,110,125,110,112,117,128,134,136,135,127,139,87,132,94,136,103,91,120,132,122,132,114,122,84,127,134,,111,115,106,130,127,108,131,i,i,436.896651579,1,1,17,62
distr_stats_triangular,1,m,29,1,16,1,11,34,112,tri_right,15,79,-61,108,135,102,113,134,109,133,134,137,130,131,120,97,117,126,113,102,118,135,118,138,136,107,100,109,126,113,105,141,132,127,134,86,119,,127,i,i,530.338485882,1,1,17,63
distr_stats_triangular,1,m,29,1,16,2,11,0,112,tri_right,15,79,-61,,101,109,114,94,137,140,119,134,134,131,135,104,93,128,138,108,122,112,104,110,133,115,108,98,132,128,132,98,136,132,115,116,114,115,132,j,j,530.489188463,1,1,17,64
distr_stats_triangular,1,m,29,1,16,3,11,9,112,tri_right,15,79,-61,121,118,99,135,127,91,103,106,114,,133,127,129,136,136,91,99,98,120,87,121,99,126,127,116,118,134,135,122,139,127,123,135,138,129,110,i,i,499.262586782,1,1,17,65
distr_stats_triangular,1,m,29,1,16,4,11,33,112,tri_right,15,79,-61,140,139,128,135,137,137,133,126,118,114,110,128,123,138,125,140,92,87,96,101,102,123,84,120,129,127,129,116,89,130,92,121,99,,89,102,i,i,421.37208559,1,1,17,66
distr_stats_triangular,1,m,29,1,16,5,11,23,112,tri_right,15,79,-61,119,140,108,118,135,123,131,135,88,126,140,108,102,123,129,131,137,137,112,129,90,113,139,,101,125,127,114,135,129,92,133,118,135,86,130,i,i,530.505688746,1,1,17,67
distr_stats_triangular,1,m,29,1,16,6,11,3,112,tri_right,15,79,-61,138,102,117,,115,130,109,130,99,117,118,133,135,128,132,133,125,127,106,117,94,139,128,123,133,131,116,122,116,134,122,100,119,115,135,106,i,i,436.904718385,1,1,17,68
distr_stats_triangular,1,m,29,1,17,0,7,31,92,norm,10,-85,75,78,91,86,87,91,82,74,88,90,89,81,88,84,92,78,104,80,87,99,104,100,103,80,108,89,100,99,93,78,90,92,,100,94,77,85,j,j,436.881251315,1,1,18,69
distr_stats_triangular,1,m,29,1,17,1,7,27,92,norm,10,-85,75,89,97,99,97,97,102,83,89,87,90,80,81,82,80,85,76,97,84,102,107,106,83,94,92,85,78,75,,96,82,88,106,83,86,85,111,i,i,467.96521722,1,1,18,70
distr_stats_triangular,1,m,29,1,18,0,50,29,112,tri_left,15,-62,-42,108,102,112,86,120,100,135,88,97,108,94,98,112,96,88,103,104,118,98,99,119,131,86,90,89,110,85,91,120,,95,93,115,90,134,112,i,i,468.134620121,1,1,19,71
distr_stats_triangular,1,m,29,1,18,1,50,20,112,tri_left,15,-62,-42,104,114,109,99,138,95,88,113,113,115,99,87,119,92,87,91,111,99,121,86,,88,119,89,95,87,87,84,128,126,102,88,116,89,92,108,j,j,436.931485508,1,1,19,72
distr_stats_triangular,1,m,29,1,18,2,50,27,112,tri_left,15,-62,-42,91,110,106,124,87,96,107,86,89,104,90,95,101,113,119,86,91,104,100,108,85,119,90,84,117,100,140,,90,90,131,95,103,94,95,100,i,i,405.616882319,1,1,19,73
distr_stats_triangular,1,m,29,1,18,3,50,19,112,tri_left,15,-62,-42,132,114,90,87,84,126,118,108,99,102,96,128,110,123,89,97,118,90,96,,112,88,103,94,91,85,89,89,102,88,91,106,87,86,114,120,j,j,436.811583453,1,1,19,74
distr_stats_triangular,1,m,29,1,18,4,50,23,112,tri_left,15,-62,-42,124,107,92,120,97,124,95,104,87,86,92,114,99,114,85,87,94,93,132,132,117,98,94,,109,100,102,101,95,116,92,106,108,126,88,99,i,i,405.695717003,1,1,19,75
distr_stats_triangular,1,m,29,1,18,5,50,20,112,tri_left,15,-62,-42,89,90,102,92,111,119,96,123,120,103,95,113,122,103,112,91,118,107,88,97,,87,101,88,87,124,127,137,111,109,90,105,121,98,99,105,j,j,468.101986229,1,1,19,76
distr_stats_triangular,1,m,29,1,18,6,50,26,112,tri_left,15,-62,-42,87,115,99,95,89,103,96,94,93,98,131,87,92,97,110,113,97,127,109,112,114,102,92,108,115,87,,93,118,107,102,101,105,119,105,92,j,i,421.285184102,0,1,19,77
distr_stats_triangular,1,m,29,1,19,0,25,35,132,norm,10,73,-87,145,132,117,116,129,150,118,129,129,134,152,136,145,129,123,137,131,132,129,134,127,132,146,128,145,122,137,120,138,132,137,115,127,138,125,,i,i,514.882854408,1,0,20,78
distr_stats_triangular,1,m,29,1,19,1,25,21,132,norm,10,73,-87,152,139,131,115,127,137,142,137,137,155,132,128,132,128,137,132,130,128,147,135,138,,131,137,149,133,135,143,130,127,150,128,132,132,157,142,i,i,436.801683285,1,1,20,79
distr_stats_triangular,1,m,29,1,19,2,25,31,132,norm,10,73,-87,136,140,135,134,136,148,137,142,130,119,146,125,129,128,116,136,137,128,149,132,120,121,127,129,146,133,133,123,121,126,151,,141,139,124,116,j,j,421.302784403,1,1,20,80
distr_stats_triangular,1,m,29,1,20,0,87,12,152,tri_left,15,-65,-45,155,164,130,136,168,123,154,163,140,163,151,134,,126,131,176,163,132,127,147,162,129,129,158,161,152,141,139,131,137,138,128,137,127,155,141,j,j,530.487721771,1,1,21,81
distr_stats_triangular,1,m,29,1,20,1,87,26,152,tri_left,15,-65,-45,131,134,130,168,156,138,128,142,145,169,139,143,127,135,137,139,133,144,146,159,149,136,136,138,163,144,,132,150,170,165,172,133,132,124,131,j,j,468.082185891,1,1,21,82
distr_stats_triangular,1,m,29,1,20,2,87,2,152,tri_left,15,-65,-45,128,132,,143,151,165,143,149,135,132,155,168,164,140,148,130,150,125,157,141,172,132,168,134,156,135,125,134,125,127,141,140,127,139,147,149,j,j,795.690532248,1,1,21,83
distr_stats_triangular,1,m,29,1,20,3,87,24,152,tri_left,15,-65,-45,137,154,135,132,179,132,128,127,161,128,168,124,133,125,142,161,130,136,146,142,163,127,132,129,,142,136,136,150,169,148,147,129,126,139,158,j,j,436.877951259,1,1,21,84
distr_stats_triangular,1,m,29,1,20,4,87,24,152,tri_left,15,-65,-45,143,132,143,129,131,132,125,170,140,157,127,126,127,145,151,148,129,137,126,158,127,140,162,163,,149,136,169,133,165,151,178,129,158,153,132,j,j,390.078749431,1,1,21,85
distr_stats_triangular,1,m,29,1,20,5,87,3,152,tri_left,15,-65,-45,127,125,154,,135,160,130,137,127,138,138,171,135,142,145,137,163,134,169,146,143,144,149,146,158,147,150,137,163,132,127,140,141,130,167,126,i,j,483.736920776,0,1,21,86
distr_stats_triangular,1,m,29,1,21,0,59,32,172,norm,10,67,87,174,154,158,176,175,173,171,171,174,178,174,166,8,171,5,151,177,166,165,175,171,176,161,177,160,167,171,0,177,164,176,171,,156,161,149,j,j,577.272256682,1,0,22,87
distr_stats_triangular,1,m,29,1,21,1,59,6,172,norm,10,67,87,12,166,177,159,171,165,,172,167,171,165,14,158,7,9,179,11,176,179,168,177,6,174,162,163,178,166,176,161,154,170,174,171,154,177,178,j,j,467.957150415,1,1,22,88
distr_stats_triangular,1,m,29,1,22,0,1,13,72,tri_left,15,-71,9,53,48,59,56,46,63,70,65,63,53,92,77,73,,84,60,64,61,56,62,62,74,66,57,59,74,95,57,47,46,90,79,64,65,54,60,j,j,561.273949244,1,1,23,89
distr_stats_triangular,1,m,29,1,22,1,1,25,72,tri_left,15,-71,9,74,51,44,58,71,70,48,85,75,46,52,88,89,48,60,56,45,67,51,62,54,52,86,59,75,,73,70,54,84,80,71,69,73,71,66,j,j,733.097993161,1,1,23,90
distr_stats_triangular,1,m,29,1,22,2,1,35,72,tri_left,15,-71,9,69,46,78,72,75,49,58,47,60,82,65,65,77,74,83,70,78,50,63,68,46,53,44,66,77,76,70,52,63,54,55,54,65,83,62,,i,i,639.784861063,1,1,23,91
distr_stats_triangular,1,m,29,1,22,3,1,30,72,tri_left,15,-71,9,67,60,73,97,72,55,74,46,48,61,91,86,85,59,45,52,63,50,43,89,89,69,61,60,68,85,55,72,63,82,,86,53,85,68,68,j,j,468.058352149,1,1,23,92
distr_stats_triangular,1,m,29,1,22,4,1,33,72,tri_left,15,-71,9,71,49,57,53,86,74,68,75,63,49,71,57,47,71,71,62,87,60,67,61,67,89,58,46,55,55,63,70,69,48,47,54,45,,63,48,i,i,452.477685199,1,1,23,93
distr_stats_triangular,1,m,29,1,23,0,95,21,32,norm,10,63,23,34,15,24,29,31,10,44,24,19,51,47,53,34,31,46,9,14,25,41,24,37,,34,22,49,45,47,21,26,23,31,32,30,31,26,24,i,i,405.605148784,1,1,24,94
distr_stats_triangular,1,m,29,1,23,1,95,9,32,norm,10,63,23,48,21,50,39,36,21,31,42,36,,27,29,34,19,43,32,25,35,51,38,29,29,49,41,24,27,41,39,35,39,30,3,24,27,37,32,i,i,390.006881533,1,1,24,95
distr_stats_triangular,1,m,29,1,23,2,95,3,32,norm,10,63,23,12,21,29,,42,23,32,27,50,43,39,22,30,31,47,38,48,19,39,45,43,26,24,50,38,40,30,33,15,48,24,31,16,31,24,27,i,i,343.243980329,1,1,24,96
distr_stats_triangular,1,m,29,1,24,0,47,0,112,tri_left,15,-65,15,,99,132,133,120,86,135,94,119,92,123,137,89,119,113,128,95,120,93,114,99,104,102,89,105,98,113,84,108,95,115,109,90,97,109,109,j,i,748.88509698,0,1,25,97
distr_stats_triangular,1,m,29,1,24,1,47,16,112,tri_left,15,-65,15,85,85,88,106,107,95,109,105,95,114,104,95,87,90,89,87,,86,95,106,89,94,122,94,127,90,119,93,98,103,85,99,130,89,91,99,i,i,498.9017806,1,0,25,98
distr_stats_triangular,1,m,29,1,24,2,47,34,112,tri_left,15,-65,15,107,122,98,83,120,87,109,110,129,127,92,101,93,87,95,94,95,112,101,130,97,85,100,117,109,91,107,109,103,104,94,88,114,102,,106,i,i,483.722620531,1,1,25,99
distr_stats_triangular,1,m,29,1,24,3,47,15,112,tri_left,15,-65,15,93,115,113,135,89,93,107,97,101,103,94,114,104,116,93,,118,90,104,100,114,120,110,102,87,97,100,99,119,92,102,123,86,104,124,89,i,i,561.735590487,1,1,25,100
distr_stats_triangular,1,m,29,1,24,4,47,23,112,tri_left,15,-65,15,97,106,106,90,92,118,96,104,92,85,96,109,129,102,97,104,103,88,89,91,125,138,85,,106,129,103,111,110,91,120,102,98,106,95,100,i,i,436.847517403,1,1,25,101
distr_stats_triangular,1,m,29,1,24,5,47,32,112,tri_left,15,-65,15,133,113,127,100,95,85,93,90,90,84,120,93,122,109,106,94,87,91,121,140,107,90,140,96,86,116,96,124,95,116,106,96,,117,125,86,j,j,530.438587597,1,1,25,102
distr_stats_triangular,1,m,29,1,24,6,47,20,112,tri_left,15,-65,15,114,113,85,100,124,101,103,95,131,87,108,119,114,90,111,101,98,88,86,118,,93,96,102,107,102,116,102,114,136,117,104,118,105,89,99,j,j,546.165557053,1,1,25,103
distr_stats_triangular,1,m,29,1,25,0,2,33,112,norm,10,70,70,105,109,114,114,100,99,106,107,97,118,118,105,113,114,106,116,90,103,117,115,116,107,123,120,102,103,125,137,112,113,108,114,116,,117,114,i,i,390.102583173,1,1,26,104
distr_stats_triangular,1,m,29,1,26,0,157,18,92,tri_left,15,65,45,118,67,101,64,72,78,70,77,114,119,84,110,82,74,105,71,84,67,,70,87,64,79,91,108,79,67,76,68,112,100,98,90,70,70,73,j,j,499.167251815,1,1,27,105
distr_stats_triangular,1,m,29,1,26,1,157,33,92,tri_left,15,65,45,88,90,99,111,82,89,117,73,68,72,85,82,72,73,101,94,67,70,73,114,76,76,87,76,112,70,67,112,69,87,77,112,77,,96,97,i,i,405.784451856,1,1,27,106
distr_stats_triangular,1,m,29,1,26,2,157,21,92,tri_left,15,65,45,98,109,76,102,74,108,86,79,86,72,100,112,87,68,74,77,80,102,71,70,79,,74,105,102,72,69,70,68,77,69,103,83,79,73,75,i,i,452.494552155,1,1,27,107
distr_stats_triangular,1,m,29,1,26,3,157,0,92,tri_left,15,65,45,,69,75,78,74,86,84,63,82,72,106,78,72,93,86,76,83,71,113,85,73,91,84,74,82,71,88,72,93,84,83,88,91,65,79,107,j,j,451.927309105,1,1,27,108
distr_stats_triangular,1,m,29,1,26,4,157,18,92,tri_left,15,65,45,76,63,71,79,81,83,74,98,102,70,79,86,70,95,80,73,117,104,,94,65,75,67,106,69,102,68,67,81,78,74,84,75,109,74,72,j,j,514.905221458,1,1,27,109
distr_stats_triangular,1,m,29,1,26,5,157,30,92,tri_left,15,65,45,107,73,74,87,81,89,69,118,64,69,96,67,84,70,70,103,88,71,103,96,84,71,110,80,82,83,97,92,82,81,,69,66,65,73,93,j,j,421.306817807,1,1,27,110
distr_stats_triangular,1,m,29,1,27,0,106,16,12,norm,10,-86,14,172,23,6,19,6,9,4,10,6,17,11,28,14,19,25,4,,175,5,17,12,11,17,13,7,10,15,26,4,1,16,24,18,17,22,20,i,i,499.269920241,1,1,28,111
distr_stats_triangular,1,m,29,1,27,1,106,0,12,norm,10,-86,14,,10,177,18,5,2,9,175,20,177,2,12,178,26,7,170,4,17,8,1,9,15,26,6,20,7,34,170,4,0,7,29,4,11,3,15,j,j,499.345088194,1,1,28,112
distr_stats_triangular,1,m,29,1,27,2,106,22,12,norm,10,-86,14,19,2,23,8,179,175,2,26,16,23,172,24,33,31,16,6,15,32,14,168,38,4,,8,6,8,2,22,8,19,18,4,20,12,11,177,i,j,561.513020006,0,1,28,113
distr_stats_triangular,1,m,29,1,28,0,168,3,92,tri_right,15,76,-24,104,103,92,,107,116,116,93,100,95,95,91,103,120,115,71,78,105,98,90,107,96,103,86,74,115,93,81,99,110,104,120,99,83,81,88,i,i,514.795219575,1,0,29,114
distr_stats_triangular,1,m,29,1,28,1,168,6,92,tri_right,15,76,-24,107,100,119,90,117,98,,93,93,92,114,98,110,100,93,114,109,106,104,86,97,89,108,109,85,103,111,114,73,88,108,101,118,105,108,109,j,j,468.310256465,1,1,29,115
distr_stats_triangular,1,m,29,1,28,2,168,6,92,tri_right,15,76,-24,116,105,105,105,102,79,,118,99,103,87,115,87,110,90,93,89,102,75,108,90,111,74,118,117,98,113,105,94,92,111,95,66,90,114,93,j,j,842.368732001,1,1,29,116
distr_stats_triangular,1,m,29,1,28,3,168,32,92,tri_right,15,76,-24,115,112,102,113,90,118,95,108,114,79,99,111,109,107,92,73,111,76,79,97,121,118,83,112,110,96,113,111,95,103,94,112,,94,70,83,j,i,733.273629505,0,1,29,117
distr_stats_triangular,1,m,29,1,28,4,168,1,92,tri_right,15,76,-24,103,,78,117,86,106,96,114,115,81,96,101,81,110,86,99,91,78,93,111,104,118,95,106,116,101,87,86,104,83,86,89,107,82,94,117,j,j,468.016184761,1,0,29,118
distr_stats_triangular,1,m,29,1,29,0,63,16,152,norm,10,-89,-29,151,156,159,152,162,155,150,162,161,160,156,162,128,153,151,162,,156,161,156,146,156,154,145,138,138,148,153,165,158,144,150,147,154,151,160,i,i,405.669683223,1,1,30,119
distr_stats_triangular,1,m,29,1,29,1,63,5,152,norm,10,-89,-29,162,148,145,147,151,,163,150,149,132,149,158,167,168,136,151,156,130,138,155,149,152,151,160,147,149,164,143,158,158,155,165,169,163,147,150,i,i,483.705386901,1,1,30,120
distr_stats_triangular,1,m,29,1,29,2,63,21,152,norm,10,-89,-29,145,137,147,158,156,140,141,157,142,161,145,144,170,164,171,152,153,153,159,154,162,,156,144,141,140,155,139,165,167,143,157,162,150,148,149,i,i,358.88221493,1,1,30,121
distr_stats_triangular,1,m,29,1,30,0,151,29,72,tri_right,15,79,-1,82,96,97,71,79,94,67,86,97,96,95,80,68,80,98,45,100,58,81,83,88,53,74,101,95,96,90,95,83,,99,65,94,90,93,76,i,i,436.897751597,1,1,31,122
distr_stats_triangular,1,m,29,1,30,1,151,35,72,tri_right,15,79,-1,72,74,84,97,73,80,99,74,73,77,91,59,53,80,96,97,95,89,93,96,84,98,54,75,57,74,59,65,66,92,95,78,94,85,91,,i,i,483.61555203,1,1,31,123
distr_stats_triangular,1,m,29,1,30,2,151,26,72,tri_right,15,79,-1,91,92,97,64,71,69,97,92,94,76,75,86,84,63,73,96,72,84,82,72,90,75,101,55,86,57,,65,59,92,96,95,92,89,88,89,j,j,858.074067752,1,1,31,124
distr_stats_triangular,1,m,29,1,30,3,151,16,72,tri_right,15,79,-1,99,95,98,92,82,69,91,97,93,63,95,66,97,90,84,87,,70,81,96,52,89,89,92,65,89,80,68,98,86,70,94,93,80,71,75,i,i,421.277483971,1,1,31,125
distr_stats_triangular,1,m,29,1,30,4,151,10,72,tri_right,15,79,-1,67,93,89,53,94,69,64,93,82,62,,96,97,65,76,89,90,60,79,67,75,86,99,78,68,86,74,92,77,55,96,48,92,79,88,80,i,i,468.597728057,1,1,31,126
distr_stats_triangular,1,m,29,1,30,5,151,6,72,tri_right,15,79,-1,91,80,95,85,95,81,,98,91,88,98,96,88,84,94,62,59,74,62,64,90,95,69,86,85,80,77,82,60,97,97,89,96,88,70,84,j,j,468.12068655,1,1,31,127
distr_stats_triangular,1,m,29,1,31,0,81,4,152,norm,10,-71,9,147,154,147,144,,148,144,152,164,151,147,150,167,159,158,134,152,136,149,162,161,167,161,154,141,148,154,153,154,158,152,152,154,160,163,149,i,i,452.511419113,1,1,32,128
distr_stats_triangular,1,m,29,1,32,0,93,4,172,tri_right,15,-79,-59,179,14,176,175,,2,15,173,17,154,173,10,171,11,0,12,14,6,160,7,17,3,10,176,172,7,7,5,173,6,11,152,177,172,9,3,i,i,405.663449783,1,1,33,129
distr_stats_triangular,1,m,29,1,32,1,93,4,172,tri_right,15,-79,-59,6,176,9,177,,172,11,7,160,149,173,14,11,151,5,14,15,12,9,11,175,162,8,16,18,177,17,13,18,175,19,145,18,171,179,14,i,i,374.472415377,1,1,33,130
distr_stats_triangular,1,m,29,1,32,2,93,24,172,tri_right,15,-79,-59,166,174,21,14,14,17,170,17,173,12,171,162,7,4,14,16,13,4,16,16,2,179,11,13,,17,168,168,176,173,13,179,163,175,7,7,j,j,421.232383198,1,1,33,131
distr_stats_triangular,1,m,29,1,32,3,93,7,172,tri_right,15,-79,-59,12,166,168,15,172,146,10,,171,150,12,7,152,16,7,19,15,17,174,179,5,180,172,2,7,146,176,175,18,4,18,177,15,0,176,160,j,j,421.310851209,1,1,33,132
distr_stats_triangular,1,m,29,1,32,4,93,15,172,tri_right,15,-79,-59,12,1,20,12,154,151,177,18,18,179,172,160,177,6,2,,2,178,156,165,17,8,20,13,179,180,16,6,177,8,163,153,179,170,11,12,i,i,468.117386494,1,1,33,133
distr_stats_triangular,1,m,29,1,32,5,93,21,172,tri_right,15,-79,-59,162,21,15,13,147,19,13,160,178,145,9,178,12,15,173,178,2,179,158,14,169,,16,20,6,13,3,174,176,179,163,158,16,12,10,11,i,i,374.332712983,1,1,33,134
distr_stats_triangular,1,m,29,1,33,0,122,27,32,norm,10,-90,-50,51,12,33,12,26,14,28,24,26,41,17,17,14,39,33,22,15,24,35,39,28,31,28,28,40,32,38,,28,28,33,31,32,45,20,30,i,i,483.673486357,1,1,34,135
distr_stats_triangular,1,m,29,1,33,1,122,25,32,norm,10,-90,-50,40,23,24,19,18,35,29,36,30,45,30,14,31,40,35,41,38,36,38,35,34,42,36,41,44,,36,43,31,20,42,27,37,39,38,29,j,j,483.602351804,1,1,34,136
distr_stats_triangular,1,m,29,1,34,0,86,0,152,tri_left,15,-66,54,,154,156,158,148,129,136,147,156,166,161,134,131,156,126,130,147,146,170,128,163,168,152,156,162,144,147,166,125,157,147,151,143,165,127,127,j,j,733.286463057,1,1,35,137
distr_stats_triangular,1,m,29,1,34,1,86,1,152,tri_left,15,-66,54,172,,153,169,137,162,150,132,129,138,132,136,168,151,140,133,133,159,141,147,146,158,143,135,152,127,146,136,151,125,158,142,124,137,142,129,j,j,514.900088037,1,1,35,138
distr_stats_triangular,1,m,29,1,34,2,86,25,152,tri_left,15,-66,54,126,135,144,136,166,129,174,141,132,153,158,137,165,124,138,156,128,159,146,163,132,148,141,128,142,,139,131,135,133,127,149,144,129,163,174,j,j,436.929652145,1,1,35,139
distr_stats_triangular,1,m,29,1,34,3,86,30,152,tri_left,15,-66,54,131,157,175,143,133,153,126,151,130,124,132,143,141,168,175,149,161,148,138,137,145,130,145,151,172,169,149,145,143,129,,148,138,125,149,154,j,j,436.488544587,1,1,35,140
distr_stats_triangular,1,m,29,1,34,4,86,4,152,tri_left,15,-66,54,147,128,139,159,,130,127,162,167,136,127,128,135,131,144,134,126,144,153,160,127,133,146,142,139,157,135,134,167,131,135,138,126,128,136,144,i,i,421.213316204,1,1,35,141
distr_stats_triangular,1,m,29,1,34,5,86,18,152,tri_left,15,-66,54,154,155,151,166,148,171,147,125,126,135,138,151,134,150,146,136,140,145,,136,129,134,146,138,171,124,127,144,142,142,154,142,154,167,128,131,j,j,390.08351618,1,1,35,142
distr_stats_triangular,1,m,29,1,35,0,22,17,112,norm,10,-90,50,104,122,100,115,134,98,119,85,106,136,95,122,98,120,100,118,112,,120,111,133,105,123,106,114,106,113,115,116,104,101,98,119,106,115,111,i,i,608.410490182,1,1,36,143
distr_stats_triangular,1,m,29,1,35,1,22,28,112,norm,10,-90,50,93,103,114,106,122,121,101,107,91,103,104,95,110,114,105,112,120,91,104,123,119,109,118,125,111,103,99,101,,116,99,110,114,104,105,117,i,i,483.622518816,1,1,36,144
distr_stats_triangular,1,m,29,1,35,2,22,10,112,norm,10,-90,50,118,110,123,133,119,112,82,120,119,115,,115,122,125,124,111,115,107,117,101,114,132,121,119,103,114,105,124,125,97,119,121,112,117,111,97,i,i,374.518616167,1,1,36,145
distr_stats_triangular,1,m,29,1,36,0,131,15,12,tri_right,15,-61,19,28,4,32,41,8,18,180,3,13,20,32,25,38,20,6,,17,11,29,31,32,16,25,21,21,24,25,37,31,36,4,179,11,21,6,12,i,i,499.263686799,1,1,37,146
distr_stats_triangular,1,m,29,1,36,1,131,34,12,tri_right,15,-61,19,30,19,7,8,37,31,12,38,7,29,172,15,28,21,178,1,174,24,12,22,30,174,27,167,35,9,7,10,30,37,11,22,168,31,,41,i,i,421.27491726,1,1,37,147
distr_stats_triangular,1,m,29,1,36,2,131,34,12,tri_right,15,-61,19,177,29,33,24,36,176,3,31,38,23,11,22,22,8,31,18,4,21,28,8,28,170,29,6,19,18,22,22,14,8,25,34,7,17,,32,i,i,374.558950192,1,1,37,148
distr_stats_triangular,1,m,29,1,36,3,131,15,12,tri_right,15,-61,19,38,28,41,38,30,18,9,14,34,15,24,16,12,29,26,,16,33,29,18,176,2,38,32,2,30,30,32,38,11,20,7,12,28,10,31,i,i,390.086816236,1,1,37,149
distr_stats_triangular,1,m,29,1,36,4,131,3,12,tri_right,15,-61,19,4,26,37,,14,23,32,22,33,26,15,168,24,14,14,17,37,29,26,14,18,176,5,26,179,35,28,3,179,18,37,22,38,18,25,177,i,i,405.595981962,1,1,37,150
distr_stats_triangular,1,m,29,1,36,5,131,30,12,tri_right,15,-61,19,174,36,16,27,1,33,26,18,21,7,9,10,38,15,168,35,29,30,37,38,35,26,23,21,28,15,11,12,179,36,,39,24,7,25,22,j,j,389.95554732,1,1,37,151
distr_stats_triangular,1,m,29,1,37,0,45,28,152,norm,10,73,33,147,146,149,147,165,151,143,156,164,156,162,134,149,160,158,165,159,137,159,146,135,160,152,167,147,135,151,174,,160,151,163,154,150,135,153,i,i,670.868093623,1,1,38,152
distr_stats_triangular,1,m,29,1,37,1,45,25,152,norm,10,73,33,143,147,142,150,151,139,162,152,158,145,141,146,165,144,157,151,124,141,161,147,144,148,140,167,161,,152,145,151,138,148,136,153,161,162,152,j,j,452.471818433,1,1,38,153
distr_stats_triangular,1,m,29,1,38,0,76,15,172,tri_left,15,84,-76,153,168,148,162,155,5,171,15,145,167,163,162,158,146,155,,156,17,179,146,176,164,163,164,168,0,159,158,161,151,154,146,179,156,4,145,i,i,405.476813252,1,1,39,154
distr_stats_triangular,1,m,29,1,38,1,76,10,172,tri_left,15,84,-76,155,7,147,157,156,163,155,1,170,173,,163,7,3,4,148,154,157,169,158,146,149,0,152,160,160,150,159,162,17,176,149,167,171,150,158,i,i,390.086082891,1,1,39,155
distr_stats_triangular,1,m,29,1,38,2,76,14,172,tri_left,15,84,-76,163,147,164,167,148,161,144,167,151,161,17,14,155,150,,13,155,161,155,155,11,159,11,169,172,164,170,164,16,174,162,15,172,154,163,167,j,j,436.810850108,1,1,39,156
distr_stats_triangular,1,m,29,1,38,3,76,4,172,tri_left,15,84,-76,150,167,14,162,,170,146,12,151,174,167,167,14,3,6,158,151,155,143,159,172,166,151,164,142,174,4,153,149,157,179,176,148,174,160,159,i,i,390.017148377,1,1,39,157
distr_stats_triangular,1,m,29,1,38,4,76,20,172,tri_left,15,84,-76,172,148,148,178,151,176,152,146,171,20,170,158,164,152,170,150,8,3,150,143,,149,144,156,157,150,174,150,13,151,145,6,153,156,11,159,j,j,374.507982653,1,1,39,158
distr_stats_triangular,1,m,29,1,38,5,76,9,172,tri_left,15,84,-76,158,148,149,169,170,159,152,149,149,,15,152,179,166,149,148,2,150,160,160,160,147,172,166,179,174,19,160,158,2,169,3,163,0,177,166,i,i,452.422317585,1,1,39,159
distr_stats_triangular,1,m,29,1,38,6,76,4,172,tri_left,15,84,-76,154,154,150,161,,169,158,147,152,159,159,149,150,4,0,167,163,168,178,150,160,156,145,158,148,152,148,161,151,149,149,175,6,161,178,155,i,i,436.918651956,1,1,39,160
distr_stats_triangular,1,m,29,1,39,0,173,33,112,norm,10,61,1,111,119,109,97,97,104,125,93,115,113,103,102,97,114,110,96,105,119,95,124,123,117,120,115,106,104,102,97,117,122,114,103,107,,119,114,i,i,920.488403784,1,1,40,161
distr_stats_triangular,1,m,29,1,40,0,2,2,72,tri_left,15,-70,70,46,71,,67,64,47,70,57,49,47,51,46,50,45,47,50,48,78,78,64,54,62,55,53,53,67,56,54,70,64,64,46,44,75,61,62,j,j,390.10331652,1,1,41,162
distr_stats_triangular,1,m,29,1,40,1,2,32,72,tri_left,15,-70,70,59,56,50,71,89,63,53,56,96,46,71,56,47,55,73,59,57,51,61,44,70,88,69,72,68,89,85,57,57,58,47,48,,89,47,59,j,j,592.79682267,1,1,41,163
distr_stats_triangular,1,m,29,1,40,2,2,1,72,tri_left,15,-70,70,50,,56,58,70,62,59,59,56,51,59,57,73,51,45,73,58,44,97,81,61,55,49,64,82,66,70,82,44,52,60,84,50,67,61,68,j,j,545.902652548,1,1,41,164
distr_stats_triangular,1,m,29,1,40,3,2,24,72,tri_left,15,-70,70,47,83,58,60,54,49,90,52,52,51,47,75,47,91,82,58,55,55,59,66,58,90,81,80,,62,48,52,77,86,60,55,54,46,44,56,j,i,436.903251692,0,1,41,165
distr_stats_triangular,1,m,29,1,40,4,2,5,72,tri_left,15,-70,70,47,57,50,47,84,,69,48,48,79,82,60,58,80,46,71,61,64,67,65,100,59,80,57,58,51,61,59,55,73,58,98,70,50,57,74,i,i,483.707953612,1,0,41,166
distr_stats_triangular,1,m,29,1,41,0,36,21,152,norm,10,64,-36,170,160,166,149,147,141,151,152,139,6,165,157,151,161,154,171,159,154,123,153,158,,160,162,151,148,147,147,166,143,150,151,150,155,162,157,i,i,1060.79727441,1,1,42,167
distr_stats_triangular,1,m,29,1,42,0,18,6,132,tri_right,15,66,46,118,148,125,121,114,130,,148,135,142,154,159,152,154,132,139,151,148,138,137,135,128,120,127,148,141,140,130,157,156,151,141,136,131,159,152,j,j,967.300072491,1,1,43,168
distr_stats_triangular,1,m,29,1,42,1,18,20,132,tri_right,15,66,46,143,149,142,137,145,120,145,130,149,153,153,147,155,121,119,151,144,160,148,145,,139,155,128,160,130,147,146,144,150,155,153,134,136,145,112,j,j,436.903618365,1,1,43,169
distr_stats_triangular,1,m,29,1,42,2,18,33,132,tri_right,15,66,46,151,124,131,144,159,152,157,160,145,113,119,153,140,157,153,158,121,145,157,144,132,130,157,154,117,129,152,149,135,148,149,154,159,,132,159,i,i,655.292193422,1,1,43,170
distr_stats_triangular,1,m,29,1,42,3,18,24,132,tri_right,15,66,46,152,111,149,131,157,129,120,121,144,151,108,150,156,132,149,123,126,135,145,156,140,142,149,119,,132,141,154,139,152,147,111,148,145,142,145,j,j,655.303560283,1,1,43,171
distr_stats_triangular,1,m,29,1,42,4,18,34,132,tri_right,15,66,46,157,150,111,159,132,129,148,151,135,116,119,113,152,162,141,124,126,161,154,150,119,130,154,139,127,133,119,156,151,157,153,154,139,134,,124,i,i,436.87318451,1,1,43,172
distr_stats_triangular,1,m,29,1,42,5,18,23,132,tri_right,15,66,46,151,143,144,153,155,156,144,143,130,151,155,129,145,153,157,152,130,152,149,118,122,136,132,,158,145,126,137,151,123,147,110,139,153,161,148,i,i,483.727020606,1,1,43,173
distr_stats_triangular,1,m,29,1,42,6,18,7,132,tri_right,15,66,46,152,146,139,149,147,117,160,,149,138,137,153,152,146,127,155,127,146,155,127,147,140,138,144,149,127,124,155,140,131,151,149,136,124,152,154,j,j,468.07705247,1,1,43,174
distr_stats_triangular,1,m,29,1,43,0,38,20,152,norm,10,66,86,156,163,154,141,147,152,167,142,156,152,144,147,137,142,154,149,142,157,151,144,,135,141,163,151,162,150,141,167,160,144,166,155,143,154,126,j,j,436.900684981,1,1,44,175
distr_stats_triangular,1,m,29,1,44,0,134,23,32,tri_right,15,-78,-18,39,42,58,39,44,59,19,19,28,55,56,44,8,24,42,38,31,47,60,40,40,44,40,,57,45,49,54,57,30,55,41,32,47,41,29,i,i,530.538322639,1,1,45,176
distr_stats_triangular,1,m,29,1,44,1,134,23,32,tri_right,15,-78,-18,33,54,44,39,57,37,25,57,54,27,55,53,40,22,49,41,21,40,59,31,27,50,40,,54,55,46,58,30,51,43,34,53,33,25,57,i,i,405.69535033,1,1,45,177
distr_stats_triangular,1,m,29,1,44,2,134,27,32,tri_right,15,-78,-18,60,31,23,46,30,12,17,36,20,27,41,44,18,54,51,58,28,47,32,44,55,57,52,18,40,54,47,,7,58,26,27,13,59,18,58,i,i,390.106616576,1,1,45,178
distr_stats_triangular,1,m,29,1,44,3,134,20,32,tri_right,15,-78,-18,50,49,6,37,49,36,51,37,54,56,48,39,57,52,42,49,48,60,49,28,,50,5,50,57,42,56,47,6,47,53,39,38,54,43,20,j,j,608.444957439,1,1,45,179
distr_stats_triangular,1,m,29,1,44,4,134,18,32,tri_right,15,-78,-18,31,31,34,50,57,54,59,52,31,37,28,55,57,56,58,48,57,53,,47,10,40,25,46,50,48,60,46,21,36,57,26,52,8,57,18,j,j,764.46943066,1,1,45,180
distr_stats_triangular,1,m,29,1,45,0,83,17,152,norm,10,-69,51,152,152,138,150,150,157,145,149,149,162,153,149,160,166,130,163,137,,168,174,146,151,153,167,161,138,142,150,157,158,171,152,161,160,144,167,i,i,826.895866898,1,1,46,181
distr_stats_triangular,1,m,29,1,46,0,147,29,72,tri_right,15,75,-5,84,86,87,65,75,82,65,92,89,51,67,97,81,79,65,51,63,57,95,70,90,64,82,88,91,69,75,82,98,,72,82,86,81,79,92,i,i,702.007427142,1,1,47,182
distr_stats_triangular,1,m,29,1,46,1,147,35,72,tri_right,15,75,-5,79,97,68,90,83,92,75,98,85,81,89,90,88,86,89,96,53,89,88,96,64,68,73,66,77,100,92,91,93,102,100,91,59,85,67,,i,i,468.235821856,1,1,47,183
distr_stats_triangular,1,m,29,1,46,2,147,12,72,tri_right,15,75,-5,89,76,55,88,61,71,93,86,90,93,97,79,,48,75,76,98,68,95,85,94,90,76,68,63,96,73,97,90,101,73,86,63,92,66,83,j,j,468.100152866,1,1,47,184
distr_stats_triangular,1,m,29,1,46,3,147,17,72,tri_right,15,75,-5,65,90,87,89,90,74,79,92,60,77,47,100,97,91,96,84,74,,97,90,94,69,93,61,96,80,57,72,98,99,55,48,66,75,56,95,i,i,420.963978599,1,1,47,185
distr_stats_triangular,1,m,29,1,46,4,147,5,72,tri_right,15,75,-5,100,58,63,65,71,,60,66,97,89,73,91,96,96,75,95,90,101,80,67,95,95,66,99,64,88,99,82,89,91,70,68,64,82,52,65,i,i,468.106386306,1,1,47,186
distr_stats_triangular,1,m,29,1,46,5,147,11,72,tri_right,15,75,-5,81,88,82,90,99,75,96,61,73,71,97,,70,92,68,99,90,96,88,94,48,50,95,62,60,76,96,84,73,68,98,89,94,58,69,83,i,i,639.694659518,1,1,47,187
distr_stats_triangular,1,m,29,1,46,6,147,28,72,tri_right,15,75,-5,62,85,72,79,75,72,97,75,70,93,92,44,85,74,64,92,97,93,97,89,98,86,65,98,75,97,88,89,,90,97,71,48,93,81,63,i,i,405.342244279,1,1,47,188
distr_stats_triangular,1,m,29,1,47,0,30,11,112,norm,10,-82,-42,129,120,119,92,107,127,125,108,116,99,101,,117,122,109,108,123,123,105,117,108,110,116,117,124,121,102,127,126,118,115,113,108,109,99,108,i,i,452.437351176,1,1,48,189
distr_stats_triangular,1,m,29,1,47,1,30,6,112,norm,10,-82,-42,102,98,106,110,108,124,,93,121,112,101,105,122,118,122,97,114,125,112,117,115,116,107,118,119,115,103,121,126,112,100,101,110,121,96,114,j,j,468.037818464,1,1,48,190
distr_stats_triangular,1,m,29,1,48,0,164,26,52,tri_right,15,-68,52,46,73,80,72,77,79,57,61,34,62,68,26,42,51,57,61,74,57,76,68,63,76,36,75,73,57,,62,58,34,50,77,78,69,33,73,j,j,1029.68030794,1,1,49,191
distr_stats_triangular,1,m,29,1,48,1,164,7,52,tri_right,15,-68,52,57,59,44,66,32,73,72,,45,59,68,36,24,70,40,49,31,59,49,63,70,77,79,78,62,65,37,39,42,43,68,59,75,72,53,69,j,j,405.636315985,1,1,49,192
distr_stats_triangular,1,m,29,1,48,2,164,9,52,tri_right,15,-68,52,50,48,37,35,46,79,63,57,78,,53,68,62,52,55,46,56,78,70,58,64,66,69,37,48,59,73,56,67,76,41,58,70,59,65,56,i,i,499.307687554,1,1,49,193
distr_stats_triangular,1,m,29,1,48,3,164,27,52,tri_right,15,-68,52,72,38,71,70,34,68,33,54,35,41,48,47,28,55,48,74,63,71,52,31,72,59,55,63,43,41,72,,77,75,78,75,77,64,74,56,i,i,514.920621723,1,1,49,194
distr_stats_triangular,1,m,29,1,48,4,164,25,52,tri_right,15,-68,52,74,78,70,60,75,34,41,48,61,64,65,77,69,70,67,62,54,60,34,35,57,48,67,51,44,,53,48,34,70,65,51,75,73,47,73,j,j,592.907557899,1,1,49,195
distr_stats_triangular,1,m,29,1,48,5,164,12,52,tri_right,15,-68,52,28,49,77,81,63,61,68,72,74,30,38,72,,78,60,61,51,56,53,56,49,81,47,34,44,52,37,50,74,55,74,65,36,73,52,74,j,j,421.362918767,1,1,49,196
distr_stats_triangular,1,m,29,1,48,6,164,14,52,tri_right,15,-68,52,75,69,61,54,77,37,58,67,58,54,35,63,73,59,,66,66,80,35,54,59,70,59,70,58,51,73,77,66,47,59,44,71,52,67,67,j,j,436.912418516,1,1,49,197
distr_stats_triangular,1,m,29,1,49,0,71,33,132,norm,10,-61,19,134,127,124,136,121,142,123,127,142,111,122,132,137,124,125,114,134,119,136,127,133,130,113,142,142,148,118,136,139,134,112,137,117,,154,142,i,j,811.215098234,0,1,50,198
distr_stats_triangular,1,m,29,1,49,1,71,13,132,norm,10,-61,19,138,140,120,137,128,131,130,109,138,135,129,139,128,,129,128,132,144,123,136,122,124,133,121,133,135,137,130,134,136,133,144,131,139,130,127,j,j,499.030482804,1,0,50,199
distr_stats_triangular,1,m,29,1,49,2,71,30,132,norm,10,-61,19,133,125,129,151,144,121,122,124,127,126,128,135,114,124,144,139,154,139,111,138,159,147,124,131,156,145,140,121,135,125,,131,157,118,139,116,j,j,452.461184917,1,1,50,200
distr_stats_triangular,1,m,29,1,50,0,2,17,92,tri_right,15,-90,50,84,95,118,90,113,110,112,120,97,107,100,86,114,112,115,117,104,,115,115,116,64,104,101,84,114,67,80,104,96,85,107,101,109,74,99,i,i,811.295032938,1,1,51,201
distr_stats_triangular,1,m,29,1,50,1,2,9,92,tri_right,15,-90,50,118,114,103,107,108,74,116,119,116,,84,114,114,85,109,117,78,113,72,77,96,82,107,95,92,112,84,86,88,96,117,71,102,86,94,96,i,i,483.694386714,1,1,51,202
distr_stats_triangular,1,m,29,1,50,2,2,21,92,tri_right,15,-90,50,104,101,105,102,111,84,114,117,113,108,91,101,103,92,108,91,84,113,97,89,102,,112,115,117,104,115,109,107,113,114,121,103,95,97,113,i,i,389.991114598,1,1,51,203
distr_stats_triangular,1,m,29,1,50,3,2,16,92,tri_right,15,-90,50,91,91,113,118,93,114,106,92,119,105,110,115,103,108,76,110,,86,72,107,109,115,98,116,112,74,119,77,100,117,111,108,109,109,93,118,i,i,390.131550337,1,1,51,204
distr_stats_triangular,1,m,29,1,50,4,2,3,92,tri_right,15,-90,50,104,97,79,,80,73,105,110,69,85,113,120,99,118,108,118,77,100,116,113,90,94,115,82,117,113,104,118,97,110,118,79,115,73,114,119,i,i,468.037818464,1,1,51,205
distr_stats_triangular,1,m,29,1,50,5,2,6,92,tri_right,15,-90,50,65,110,117,77,115,107,,108,77,113,118,106,94,105,96,97,113,116,87,94,112,108,98,95,109,90,115,112,84,101,118,86,114,106,90,107,j,j,436.828450411,1,1,51,206
distr_stats_triangular,1,m,29,1,51,0,20,15,92,norm,10,-72,-72,87,89,86,93,87,96,87,94,80,103,97,96,90,90,85,,103,86,104,112,78,87,88,88,91,121,113,79,86,95,99,96,84,96,94,93,i,i,452.49381881,1,1,52,207
distr_stats_triangular,1,m,29,1,52,0,55,6,132,tri_left,15,-77,-37,143,113,110,133,125,105,,106,111,124,139,127,109,140,125,111,110,121,115,110,123,120,129,113,137,116,119,119,134,135,128,121,153,105,124,136,j,j,483.696953424,1,1,53,208
distr_stats_triangular,1,m,29,1,52,1,55,33,132,tri_left,15,-77,-37,104,115,156,132,115,153,133,145,125,124,137,134,135,121,136,118,117,122,117,124,145,130,135,109,143,127,115,159,124,127,152,108,117,,121,120,i,i,842.420799559,1,1,53,209
distr_stats_triangular,1,m,29,1,52,2,55,6,132,tri_left,15,-77,-37,115,129,107,145,112,117,,127,149,146,111,109,116,111,129,115,138,114,129,105,147,127,127,154,115,131,110,131,108,115,107,113,110,118,130,145,j,j,436.864384359,1,1,53,210
distr_stats_triangular,1,m,29,1,52,3,55,27,132,tri_left,15,-77,-37,115,104,114,108,130,110,125,128,110,122,124,117,124,107,115,135,160,125,133,129,120,153,111,142,114,112,148,,117,137,111,120,144,125,146,119,i,i,405.617248991,1,1,53,211
distr_stats_triangular,1,m,29,1,52,4,55,23,132,tri_left,15,-77,-37,144,112,135,136,117,139,122,121,144,105,103,106,108,103,157,107,155,115,124,146,121,131,134,,122,111,134,112,140,110,130,111,107,106,154,103,i,i,421.322584743,1,1,53,212
distr_stats_triangular,1,m,29,1,52,5,55,8,132,tri_left,15,-77,-37,132,130,142,123,142,115,158,113,,123,148,113,111,117,123,114,108,117,130,114,127,115,109,126,119,124,107,132,104,112,125,140,148,115,106,106,j,j,530.40045361,1,1,53,213
distr_stats_triangular,1,m,29,1,52,6,55,22,132,tri_left,15,-77,-37,128,123,151,117,109,111,131,107,109,129,147,107,154,112,122,129,150,106,122,145,117,125,,129,122,123,123,127,115,115,117,110,109,106,140,145,i,i,405.975855136,1,1,53,214
distr_stats_triangular,1,m,29,1,53,0,40,34,112,norm,10,-72,88,84,120,120,97,124,128,118,123,105,113,103,103,113,105,129,127,108,98,120,108,100,124,116,99,118,116,116,101,117,126,121,110,86,125,,98,i,i,405.698650386,1,1,54,215
distr_stats_triangular,1,m,29,1,53,1,40,17,112,norm,10,-72,88,123,127,111,115,114,111,143,110,125,141,113,111,134,113,111,78,112,,120,115,108,112,102,105,117,127,112,100,110,109,105,121,108,111,119,99,i,i,624.097125614,1,1,54,216
distr_stats_triangular,1,m,29,1,53,2,40,0,112,norm,10,-72,88,,102,116,123,123,108,126,150,128,132,116,110,119,114,116,117,112,95,103,127,109,126,113,114,125,112,104,117,93,109,115,113,115,106,124,111,j,j,436.705614971,1,1,54,217
distr_stats_triangular,1,m,29,1,54,0,18,16,92,tri_right,15,-74,86,104,117,116,112,110,101,94,84,112,70,99,115,105,72,100,102,,113,91,103,110,93,75,111,71,111,109,115,109,68,111,105,100,91,116,73,i,i,390.013481647,1,1,55,218
distr_stats_triangular,1,m,29,1,54,1,18,9,92,tri_right,15,-74,86,107,105,95,110,111,100,107,117,65,,95,97,82,100,112,121,118,94,107,106,91,108,104,106,97,115,109,88,121,113,111,118,117,86,104,85,i,i,499.299620749,1,1,55,219
distr_stats_triangular,1,m,29,1,54,2,18,19,92,tri_right,15,-74,86,93,90,105,104,81,117,86,95,102,80,107,99,103,93,105,120,118,119,102,,91,91,109,102,70,87,94,119,116,113,112,100,95,95,117,81,j,j,405.688383544,1,1,55,220
distr_stats_triangular,1,m,29,1,54,3,18,0,92,tri_right,15,-74,86,,72,99,119,99,82,85,98,114,105,92,107,72,83,99,112,117,112,116,109,79,87,94,116,77,117,85,92,112,117,111,89,95,112,108,100,j,j,452.505919016,1,1,55,221
distr_stats_triangular,1,m,29,1,54,4,18,14,92,tri_right,15,-74,86,83,99,116,112,81,115,120,86,113,106,111,103,96,99,,112,101,101,84,95,91,91,113,85,109,89,100,103,100,100,94,92,110,106,118,92,j,j,483.687419926,1,1,55,222
distr_stats_triangular,1,m,29,1,54,5,18,35,92,tri_right,15,-74,86,101,96,115,116,106,100,102,118,95,102,101,113,102,83,117,90,116,109,118,104,89,88,92,86,91,108,106,119,113,86,103,78,98,105,99,,i,i,374.387347252,1,1,55,223
distr_stats_triangular,1,m,29,1,54,6,18,32,92,tri_right,15,-74,86,91,96,108,112,83,114,86,97,114,86,102,120,72,97,92,116,82,99,82,103,92,92,110,114,85,104,85,116,107,101,83,119,,108,93,68,j,j,405.724317492,1,1,55,224
distr_stats_triangular,1,m,29,1,55,0,162,30,72,norm,10,-90,70,66,70,83,61,74,87,77,74,73,70,63,73,74,87,67,53,85,88,46,75,74,71,73,66,87,67,55,66,62,89,,65,56,94,63,76,j,j,499.250486575,1,1,56,225
distr_stats_triangular,1,m,29,1,56,0,178,0,112,tri_right,15,66,-74,,126,122,132,135,129,120,137,118,99,91,89,105,89,136,132,85,129,110,135,91,85,126,138,137,110,96,138,107,103,115,117,116,95,103,130,j,j,452.400317208,1,1,57,226
distr_stats_triangular,1,m,29,1,56,1,178,11,112,tri_right,15,66,-74,124,141,106,110,135,121,96,133,125,127,109,,140,130,94,126,125,127,141,117,126,132,109,136,108,130,119,122,106,121,129,121,122,115,140,91,i,i,374.374147026,1,1,57,227
distr_stats_triangular,1,m,29,1,56,2,178,21,112,tri_right,15,66,-74,109,137,127,128,125,115,99,128,133,139,95,101,126,104,127,108,118,135,104,117,96,,127,109,130,119,93,126,114,141,117,123,109,128,112,136,i,i,468.016918105,1,1,57,228
distr_stats_triangular,1,m,29,1,56,3,178,32,112,tri_right,15,66,-74,121,126,119,131,91,130,138,112,119,115,122,133,122,128,123,114,120,128,113,90,117,130,137,124,125,123,134,102,110,131,133,115,,124,125,133,j,j,421.200482651,1,1,57,229
distr_stats_triangular,1,m,29,1,56,4,178,26,112,tri_right,15,66,-74,138,134,128,111,138,127,134,136,94,114,133,118,131,129,123,132,134,107,138,110,137,132,135,87,137,119,,121,104,140,97,135,134,97,139,131,j,j,436.576546093,1,1,57,230
distr_stats_triangular,1,m,29,1,57,0,131,8,52,norm,10,79,19,44,48,47,51,47,45,53,59,,70,44,58,46,49,52,45,63,46,59,35,38,61,71,42,58,55,47,41,25,34,42,52,45,43,50,64,j,i,468.025718257,0,1,58,231
distr_stats_triangular,1,m,29,1,57,1,131,13,52,norm,10,79,19,32,54,55,60,55,63,40,60,60,65,60,44,56,,56,48,52,52,62,56,43,50,69,30,38,59,57,49,63,54,64,56,38,51,36,35,j,j,904.925337136,1,0,58,232
distr_stats_triangular,1,m,29,1,57,2,131,2,52,norm,10,79,19,41,52,,38,64,52,56,60,37,49,72,41,60,57,53,46,54,45,40,38,61,42,39,65,44,58,44,46,47,51,45,43,60,39,48,46,j,j,436.92928547,1,1,58,233
distr_stats_triangular,1,m,29,1,58,0,80,34,172,tri_left,15,88,28,165,166,145,157,149,161,146,156,144,163,151,179,145,162,154,158,157,179,2,152,143,159,172,1,159,153,178,161,151,159,153,146,176,160,,169,i,i,514.716018217,1,1,59,234
distr_stats_triangular,1,m,29,1,58,1,80,1,172,tri_left,15,88,28,156,,147,148,155,146,174,6,0,172,147,156,179,16,160,160,148,173,8,154,167,8,147,165,169,10,12,151,174,168,178,173,5,150,180,174,j,j,561.678022832,1,1,59,235
distr_stats_triangular,1,m,29,1,58,2,80,0,172,tri_left,15,88,28,,154,161,147,162,163,151,166,14,148,147,161,149,2,153,146,20,171,166,154,167,175,149,9,148,172,176,173,179,146,169,152,172,154,0,6,j,j,421.173715526,1,1,59,236
distr_stats_triangular,1,m,29,1,58,3,80,4,172,tri_left,15,88,28,175,174,176,168,,155,4,162,0,150,177,159,148,4,155,145,179,171,145,159,164,170,147,164,166,165,1,153,162,148,15,147,146,161,150,166,i,i,421.298751,1,1,59,237
distr_stats_triangular,1,m,29,1,58,4,80,28,172,tri_left,15,88,28,144,151,160,175,11,162,162,154,155,153,149,148,176,148,145,163,155,157,161,165,156,152,159,156,153,147,155,0,,157,148,159,151,148,158,146,i,i,358.800446864,1,1,59,238
distr_stats_triangular,1,m,29,1,58,5,80,16,172,tri_left,15,88,28,1,163,170,148,165,9,160,2,145,168,161,175,170,174,160,180,,165,157,156,153,147,150,164,159,154,156,4,159,154,164,159,160,155,171,150,i,i,405.594881942,1,1,59,239
distr_stats_triangular,1,m,29,1,59,0,178,23,92,norm,10,86,6,85,108,80,107,73,92,80,90,95,80,91,92,93,87,111,88,84,105,99,89,97,71,81,,75,83,98,88,78,89,90,87,97,88,94,108,i,i,639.629391731,1,1,60,240
distr_stats_triangular,1,m,29,1,59,1,178,2,92,norm,10,86,6,106,85,,96,96,88,81,107,108,94,105,92,90,83,84,95,95,98,79,86,83,81,80,92,95,61,101,84,119,77,95,95,80,101,99,111,j,j,670.846459918,1,1,60,241
distr_stats_triangular,1,m,29,1,60,0,172,19,72,tri_left,15,-80,80,70,71,54,52,68,85,62,55,45,52,48,47,45,71,55,66,71,56,57,,79,74,55,52,50,66,61,54,52,49,77,45,64,47,54,77,j,j,546.09698921,1,1,61,242
distr_stats_triangular,1,m,29,1,60,1,172,11,72,tri_left,15,-80,80,62,60,75,63,52,46,58,86,57,55,58,,63,54,56,60,46,61,49,64,55,97,48,78,70,47,52,61,57,52,56,69,90,70,49,57,i,i,389.971680932,1,1,61,243
distr_stats_triangular,1,m,29,1,60,2,172,6,72,tri_left,15,-80,80,75,87,59,75,51,57,,64,82,56,63,48,47,82,51,48,62,71,64,87,51,45,73,74,81,86,69,55,66,54,50,52,60,46,43,86,j,j,826.819965598,1,1,61,244
distr_stats_triangular,1,m,29,1,60,3,172,3,72,tri_left,15,-80,80,95,68,64,,51,87,83,81,59,44,63,71,85,82,72,59,48,61,54,48,58,71,57,68,72,58,97,46,57,89,77,91,72,47,84,80,i,i,452.490518754,1,1,61,245
distr_stats_triangular,1,m,29,1,60,4,172,7,72,tri_left,15,-80,80,68,80,45,78,63,45,72,,51,56,69,48,69,55,58,45,84,82,77,65,79,70,60,60,59,52,47,58,75,58,69,62,81,92,52,84,j,j,514.883587754,1,1,61,246
distr_stats_triangular,1,m,29,1,61,0,63,13,132,norm,10,-69,-9,136,127,107,134,123,118,141,127,138,126,125,130,141,,128,141,128,127,146,123,147,117,132,131,147,130,122,138,141,125,124,120,146,138,129,139,j,j,592.822856448,1,1,62,247
distr_stats_triangular,1,m,29,1,61,1,63,18,132,norm,10,-69,-9,131,124,145,125,136,150,126,131,137,129,119,139,142,137,105,127,112,129,,137,140,127,133,157,142,153,122,148,115,132,151,115,141,131,131,131,j,j,483.355947581,1,1,62,248
distr_stats_triangular,1,m,29,1,62,0,170,15,92,tri_left,15,78,38,67,94,89,94,97,90,98,91,100,70,82,93,65,74,76,,99,111,74,81,92,67,66,67,69,88,79,80,75,117,102,98,98,96,73,102,i,i,592.556285215,1,1,63,249
distr_stats_triangular,1,m,29,1,62,1,170,24,92,tri_left,15,78,38,71,76,72,71,86,111,76,110,87,105,89,101,97,73,117,65,91,63,79,75,104,103,102,92,,87,91,79,77,91,108,76,87,73,68,73,j,j,374.235544652,1,1,63,250
distr_stats_triangular,1,m,29,1,62,2,170,31,92,tri_left,15,78,38,96,94,91,79,103,75,102,83,93,76,79,77,73,93,89,93,82,103,86,71,102,86,77,112,108,107,73,74,94,99,92,,91,87,93,77,j,j,530.412553819,1,1,63,251
distr_stats_triangular,1,m,29,1,62,3,170,24,92,tri_left,15,78,38,112,74,84,93,86,66,88,70,109,113,82,81,92,74,92,111,90,65,80,101,78,91,90,68,,108,76,70,114,108,67,103,91,80,77,74,j,j,764.368595597,1,1,63,252
distr_stats_triangular,1,m,29,1,62,4,170,24,92,tri_left,15,78,38,68,72,84,86,71,73,82,108,78,85,80,82,99,98,81,76,69,89,88,87,75,109,73,87,,100,67,83,78,97,98,77,83,96,92,91,j,j,592.918558086,1,1,63,253
distr_stats_triangular,1,m,29,1,62,5,170,30,92,tri_left,15,78,38,74,92,89,70,70,106,79,67,68,106,73,103,72,73,83,83,97,80,74,67,84,74,73,95,69,102,90,70,75,82,,72,106,71,64,94,j,j,436.552712354,1,1,63,254
distr_stats_triangular,1,m,29,1,62,6,170,1,92,tri_left,15,78,38,70,,76,90,74,67,80,104,74,83,73,109,93,101,82,75,70,86,70,104,76,97,71,70,68,83,87,96,83,102,111,67,97,88,69,100,j,j,530.408887089,1,1,63,255
distr_stats_triangular,1,m,29,1,63,0,144,16,52,norm,10,-88,52,64,66,48,65,59,40,48,40,40,48,52,46,73,48,44,43,,51,58,50,52,50,47,47,52,63,58,57,38,58,71,50,63,30,50,56,i,i,530.468654779,1,1,64,256
distr_stats_triangular,1,m,29,1,64,0,64,29,132,tri_right,15,-68,12,156,148,139,147,160,137,159,152,112,109,156,145,120,151,156,138,157,159,159,111,157,158,132,151,153,155,148,130,159,,137,159,160,142,147,128,i,i,499.13938467,1,1,65,257
distr_stats_triangular,1,m,29,1,64,1,64,3,132,tri_right,15,-68,12,144,157,114,,131,144,133,149,151,132,118,155,131,123,141,158,143,155,104,123,142,151,145,159,148,117,159,153,131,139,146,142,129,160,152,151,i,i,1388.47712199,1,1,65,258
distr_stats_triangular,1,m,29,1,64,2,64,35,132,tri_right,15,-68,12,132,121,146,143,130,119,117,122,136,140,133,153,122,156,148,143,112,141,121,141,140,154,138,138,158,135,145,128,134,149,157,138,150,152,155,,i,i,452.486485352,1,1,65,259
distr_stats_triangular,1,m,29,1,64,3,64,23,132,tri_right,15,-68,12,116,157,150,121,136,139,156,139,130,131,136,130,124,138,152,144,146,156,141,143,152,116,129,,139,144,142,139,118,147,141,123,123,154,132,121,i,i,592.894724346,1,1,65,260
distr_stats_triangular,1,m,29,1,64,4,64,4,132,tri_right,15,-68,12,154,138,125,139,,136,146,124,159,145,153,158,126,117,144,114,154,153,149,147,151,121,152,157,158,119,154,157,157,135,139,142,126,127,145,121,i,i,499.179718696,1,1,65,261
distr_stats_triangular,1,m,29,1,65,0,82,20,172,norm,10,-90,-50,143,180,162,1,179,9,157,176,177,4,7,6,177,171,179,173,180,165,163,170,,14,172,6,0,5,169,2,176,2,175,164,164,166,158,176,j,j,530.452887842,1,1,66,262
distr_stats_triangular,1,m,29,1,65,1,82,23,172,norm,10,-90,-50,168,4,167,177,174,162,177,169,158,180,167,8,176,146,157,164,163,172,168,166,166,173,153,,164,178,163,163,174,166,158,6,173,164,163,4,i,i,374.211344237,1,1,66,263
distr_stats_triangular,1,m,29,1,66,0,162,35,52,tri_right,15,-70,-10,60,37,70,44,73,62,65,53,60,73,46,64,58,76,66,47,29,36,67,77,73,64,36,72,69,71,74,49,48,60,69,46,40,66,58,,i,i,748.737694455,1,1,67,264
distr_stats_triangular,1,m,29,1,66,1,162,5,52,tri_right,15,-70,-10,65,62,69,63,60,,39,66,64,71,39,65,75,77,65,72,73,72,58,71,66,71,72,61,46,80,39,78,74,71,74,73,55,67,77,75,i,i,608.501058401,1,1,67,265
distr_stats_triangular,1,m,29,1,66,2,162,2,52,tri_right,15,-70,-10,78,33,,41,75,64,75,39,80,73,28,56,70,40,49,42,25,71,59,67,72,68,54,72,71,43,71,54,68,72,66,54,73,69,37,27,j,j,467.554543518,1,1,67,266
distr_stats_triangular,1,m,29,1,66,3,162,19,52,tri_right,15,-70,-10,80,61,53,47,46,69,32,64,37,67,62,34,70,74,63,47,56,72,61,,54,72,72,43,50,59,41,58,70,73,64,44,78,80,72,59,j,j,436.774182814,1,1,67,267
distr_stats_triangular,1,m,29,1,66,4,162,1,52,tri_right,15,-70,-10,52,,66,77,43,64,64,64,73,46,62,58,52,44,59,77,61,76,74,48,30,66,64,63,33,81,47,70,73,37,79,26,58,74,51,73,j,j,421.302051058,1,1,67,268
distr_stats_triangular,1,m,29,1,66,5,162,16,52,tri_right,15,-70,-10,73,58,60,39,51,55,52,54,29,37,43,72,71,60,52,68,,77,71,67,80,66,35,72,38,48,58,58,36,69,60,66,52,51,74,64,i,i,421.287750813,1,1,67,269
distr_stats_triangular,1,m,29,1,66,6,162,9,52,tri_right,15,-70,-10,55,57,74,70,75,49,59,66,59,,74,40,61,76,76,55,63,70,67,64,55,48,35,77,81,77,29,76,71,74,28,41,51,79,44,37,i,i,499.207585839,1,1,67,270
distr_stats_triangular,1,m,29,1,67,0,46,35,112,norm,10,-66,-6,111,123,119,118,99,112,128,121,110,105,136,116,108,111,100,110,118,110,118,106,117,116,113,119,88,122,123,127,119,107,111,95,105,105,122,,i,j,467.974384044,0,1,68,271
distr_stats_triangular,1,m,29,1,67,1,46,29,112,norm,10,-66,-6,111,111,126,112,118,111,121,117,118,120,109,101,128,118,111,103,113,103,108,104,92,113,112,107,121,108,106,100,105,,125,115,109,105,109,100,i,i,530.461321319,1,0,68,272
distr_stats_triangular,1,m,29,1,67,2,46,0,112,norm,10,-66,-6,,114,120,107,112,109,136,110,117,110,122,100,112,118,101,113,109,97,145,117,127,105,109,103,114,111,91,114,108,116,109,124,96,114,139,101,j,j,686.429326905,1,1,68,273
distr_stats_triangular,1,m,29,1,68,0,66,17,152,tri_right,15,-86,-46,175,153,166,177,168,141,133,164,140,153,144,156,177,157,136,168,162,,175,147,177,174,151,152,150,177,168,176,167,130,171,175,162,157,159,177,i,i,452.825657829,1,1,69,274
distr_stats_triangular,1,m,29,1,68,1,66,24,152,tri_right,15,-86,-46,158,168,145,167,158,176,175,164,178,139,172,142,130,179,177,176,168,179,175,153,171,144,129,148,,178,162,172,150,150,139,179,178,146,0,169,j,j,499.29595402,1,1,69,275
distr_stats_triangular,1,m,29,1,68,2,66,34,152,tri_right,15,-86,-46,169,172,172,165,180,155,156,170,168,162,173,158,167,171,162,173,159,164,135,167,168,2,151,137,156,147,171,160,151,164,147,174,1,166,,131,i,i,390.097449754,1,1,69,276
distr_stats_triangular,1,m,29,1,68,3,66,13,152,tri_right,15,-86,-46,174,135,164,176,179,166,167,147,165,173,164,173,165,,151,178,164,177,168,131,162,177,172,161,156,179,172,154,155,153,167,158,155,155,138,146,j,j,483.632052312,1,1,69,277
distr_stats_triangular,1,m,29,1,68,4,66,19,152,tri_right,15,-86,-46,155,177,178,164,176,148,168,146,158,165,174,164,162,169,175,169,176,175,165,,165,153,178,152,159,178,136,179,177,179,146,166,161,172,147,167,j,j,608.301588316,1,1,69,278
distr_stats_triangular,1,m,29,1,69,0,116,21,32,norm,10,84,-36,35,23,29,38,39,44,29,23,27,41,54,32,21,19,55,28,29,32,15,32,38,,13,17,40,34,43,37,27,50,33,33,42,35,27,47,i,j,514.899721364,0,1,70,279
distr_stats_triangular,1,m,29,1,70,0,130,31,32,tri_left,15,-82,-82,12,15,31,21,26,17,25,21,30,36,18,31,17,20,42,18,6,43,38,36,18,26,34,11,29,12,16,31,19,17,24,,25,6,6,26,j,j,499.192918922,1,0,71,280
distr_stats_triangular,1,m,29,1,70,1,130,19,32,tri_left,15,-82,-82,4,46,21,32,26,15,51,8,9,11,16,25,14,8,32,14,13,55,53,,39,23,6,46,10,11,42,16,14,27,44,7,6,19,14,12,j,j,483.763321228,1,1,71,281
distr_stats_triangular,1,m,29,1,70,2,130,34,32,tri_left,15,-82,-82,27,8,15,33,36,9,29,9,51,10,35,6,26,25,28,26,33,31,26,55,23,11,49,43,10,7,10,31,25,28,23,39,13,6,,19,i,i,436.893718195,1,1,71,282
distr_stats_triangular,1,m,29,1,70,3,130,19,32,tri_left,15,-82,-82,17,44,55,43,9,19,14,15,11,13,33,14,42,20,12,37,38,40,9,,8,45,44,32,23,36,8,22,32,18,34,27,12,31,21,28,j,i,467.906182876,0,1,71,283
distr_stats_triangular,1,m,29,1,70,4,130,22,32,tri_left,15,-82,-82,23,14,44,38,17,24,11,49,35,18,22,13,11,12,11,41,16,17,40,40,34,31,,38,42,17,37,45,32,34,35,23,46,6,7,26,i,i,436.763915972,1,0,71,284
distr_stats_triangular,1,m,29,1,71,0,45,31,132,norm,10,-87,13,127,134,141,128,134,121,126,121,149,142,139,149,146,138,122,141,139,135,126,131,126,132,136,132,128,122,122,145,151,135,127,,133,147,138,133,j,j,967.273305365,1,1,72,285
distr_stats_triangular,1,m,29,1,71,1,45,25,132,norm,10,-87,13,131,136,149,129,130,125,136,128,128,109,112,140,124,138,128,132,121,145,131,126,130,120,145,133,137,,140,136,142,122,129,122,130,126,141,119,j,j,577.283990215,1,1,72,286
distr_stats_triangular,1,m,29,1,71,2,45,27,132,norm,10,-87,13,135,146,144,119,149,121,121,124,128,130,137,143,116,132,139,131,132,128,112,145,126,132,132,116,143,135,126,,125,127,128,134,145,145,120,122,i,i,405.590848539,1,1,72,287
distr_stats_triangular,1,m,29,1,72,0,94,16,172,tri_left,15,-78,-38,167,157,0,176,156,162,168,163,144,9,164,178,155,1,157,171,,176,170,166,1,170,155,167,160,162,167,176,7,159,166,170,163,152,149,148,i,i,468.106019633,1,1,73,288
distr_stats_triangular,1,m,29,1,72,1,94,19,172,tri_left,15,-78,-38,146,168,160,157,155,144,159,12,174,158,147,151,174,149,176,178,157,145,2,,9,155,170,161,167,166,165,168,161,152,153,154,154,166,178,147,j,j,374.331246292,1,1,73,289
distr_stats_triangular,1,m,29,1,72,2,94,31,172,tri_left,15,-78,-38,149,1,153,152,12,160,161,175,158,164,3,176,146,161,150,5,154,157,163,157,149,148,160,172,157,162,176,165,164,4,5,,164,155,158,152,j,j,421.324418108,1,1,73,290
distr_stats_triangular,1,m,29,1,72,3,94,18,172,tri_left,15,-78,-38,177,168,5,147,16,9,150,152,5,154,149,149,148,178,10,163,156,167,,159,161,153,14,155,151,154,149,171,157,149,147,148,157,170,8,159,j,j,327.683847067,1,1,73,291
distr_stats_triangular,1,m,29,1,72,4,94,33,172,tri_left,15,-78,-38,149,158,174,172,164,169,149,18,158,161,152,147,179,156,162,148,19,151,147,147,152,151,1,2,157,8,158,148,163,159,162,147,148,,173,153,i,i,405.624215777,1,1,73,292
distr_stats_triangular,1,m,29,1,72,5,94,34,172,tri_left,15,-78,-38,157,163,147,155,180,0,162,150,147,157,159,159,174,155,170,164,163,149,6,156,169,178,161,152,9,161,169,160,166,151,157,152,154,149,,154,i,i,358.789080003,1,1,73,293
distr_stats_triangular,1,m,29,1,72,6,94,1,172,tri_left,15,-78,-38,157,,167,166,158,7,145,170,166,151,157,164,148,159,175,152,154,169,151,158,177,148,146,158,169,171,154,7,163,156,167,21,162,149,161,177,j,j,436.806083359,1,1,73,294
distr_stats_triangular,1,m,29,1,73,0,7,6,112,norm,10,75,15,114,114,118,104,114,119,,124,119,118,108,97,103,115,102,125,117,121,122,101,105,111,116,113,120,96,100,101,112,117,112,116,121,132,97,123,j,j,733.214961832,1,1,74,295
distr_stats_triangular,1,m,29,1,74,0,155,1,52,tri_right,15,-77,43,67,,57,68,59,72,70,50,37,67,47,75,79,40,71,75,65,63,35,69,69,47,66,72,70,56,79,76,46,74,62,53,72,61,52,76,j,j,780.061831141,1,1,75,296
distr_stats_triangular,1,m,29,1,74,1,155,32,52,tri_right,15,-77,43,58,63,76,50,57,73,46,67,73,71,73,75,33,62,78,46,36,72,48,46,54,78,76,34,46,58,57,43,62,30,56,62,,38,73,39,j,j,436.795083171,1,1,75,297
distr_stats_triangular,1,m,29,1,74,2,155,0,52,tri_right,15,-77,43,,77,36,60,72,65,61,71,69,36,55,80,48,45,59,53,53,70,48,70,58,54,69,37,77,77,73,76,75,31,59,67,69,58,73,46,j,j,374.466548608,1,1,75,298
distr_stats_triangular,1,m,29,1,74,3,155,6,52,tri_right,15,-77,43,69,71,54,62,60,69,,76,44,47,54,30,76,71,53,77,35,65,61,59,46,79,54,72,52,45,49,39,62,72,36,62,74,44,44,54,j,i,733.307363416,0,1,75,299
distr_stats_triangular,1,m,29,1,74,4,155,16,52,tri_right,15,-77,43,50,54,50,72,71,56,64,39,57,74,58,69,50,70,77,63,,39,45,67,57,76,76,58,69,75,59,54,68,78,40,52,75,60,53,62,i,i,468.079252509,1,0,75,300
distr_stats_triangular,1,m,29,1,74,5,155,21,52,tri_right,15,-77,43,47,42,56,54,74,56,69,50,67,69,69,56,41,41,62,55,55,80,74,71,64,,53,73,80,64,74,68,76,54,61,44,60,53,60,26,i,i,421.306817807,1,1,75,301
distr_stats_triangular,1,m,29,1,74,6,155,22,52,tri_right,15,-77,43,30,58,35,44,37,68,72,48,54,50,66,67,44,33,77,69,76,70,77,69,46,64,,31,60,50,55,59,50,78,30,66,47,50,75,57,i,i,374.512749402,1,1,75,302
distr_stats_triangular,1,m,29,1,75,0,82,4,12,norm,10,70,30,25,12,177,4,,16,170,175,25,14,178,13,17,28,21,172,4,40,178,20,6,9,8,5,14,9,20,9,173,25,20,11,12,21,7,11,i,i,452.388583675,1,1,76,303
distr_stats_triangular,1,m,29,1,76,0,98,0,172,tri_right,15,-74,86,,172,15,1,3,159,149,16,5,13,179,6,12,9,1,2,175,158,19,178,7,11,12,148,9,19,7,4,6,174,179,177,6,16,10,3,j,j,421.305717788,1,1,77,304
distr_stats_triangular,1,m,29,1,76,1,98,22,172,tri_right,15,-74,86,4,167,3,19,12,171,164,176,168,172,15,5,3,167,1,11,173,177,14,3,11,2,,168,172,13,155,3,12,170,156,13,175,1,179,1,i,i,390.122016841,1,1,77,305
distr_stats_triangular,1,m,29,1,76,2,98,11,172,tri_right,15,-74,86,13,11,14,172,156,177,169,10,162,155,179,,2,150,20,9,19,176,172,173,170,180,178,6,171,170,177,14,166,8,162,174,177,168,164,16,i,i,343.254980517,1,1,77,306
distr_stats_triangular,1,m,29,1,76,3,98,13,172,tri_right,15,-74,86,162,9,4,164,17,2,18,178,14,3,7,17,156,,7,9,20,16,10,173,4,15,6,175,19,168,14,158,15,17,1,18,12,13,149,8,j,j,374.521916225,1,1,77,307
distr_stats_triangular,1,m,29,1,76,4,98,1,172,tri_right,15,-74,86,178,,10,16,169,16,1,178,176,178,171,175,0,8,0,166,174,176,174,168,14,4,8,167,180,177,10,166,168,20,177,20,12,153,18,167,j,j,374.455548421,1,1,77,308
distr_stats_triangular,1,m,29,1,77,0,34,10,112,norm,10,-78,42,110,107,136,139,124,112,105,99,113,111,,107,117,122,116,88,115,106,101,92,109,104,100,122,90,103,105,108,119,105,109,113,94,102,109,111,i,i,421.279684009,1,1,78,309
distr_stats_triangular,1,m,29,1,77,1,34,13,112,norm,10,-78,42,97,103,115,115,108,114,113,108,108,119,118,104,105,,120,99,108,97,113,118,101,126,117,80,97,105,116,102,110,119,112,108,116,110,108,117,j,j,374.292745631,1,1,78,310
distr_stats_triangular,1,m,29,1,78,0,106,10,12,tri_right,15,-86,-6,18,16,34,28,32,4,35,33,7,32,,9,13,178,10,10,163,19,12,172,24,33,12,36,37,30,25,171,20,32,29,31,32,25,33,13,i,i,390.122383513,1,1,79,311
distr_stats_triangular,1,m,29,1,78,1,106,30,12,tri_right,15,-86,-6,41,38,36,172,37,13,26,33,169,11,10,15,16,3,16,39,39,34,27,4,27,36,32,35,16,27,178,178,31,27,,38,29,9,29,178,j,j,343.282480988,1,1,79,312
distr_stats_triangular,1,m,29,1,78,2,106,23,12,tri_right,15,-86,-6,27,15,5,35,29,35,18,8,33,8,5,29,8,29,20,16,16,2,27,30,2,38,9,,34,37,38,16,14,34,16,8,26,170,37,32,i,i,389.948580536,1,1,79,313
distr_stats_triangular,1,m,29,1,78,3,106,30,12,tri_right,15,-86,-6,24,31,32,14,14,1,37,36,37,38,1,28,178,26,1,32,33,40,2,36,22,36,26,32,22,17,20,24,11,9,,18,18,36,27,36,j,j,389.914846623,1,1,79,314
distr_stats_triangular,1,m,29,1,78,4,106,3,12,tri_right,15,-86,-6,38,23,26,,34,25,13,27,17,39,24,21,13,5,172,23,18,38,17,33,35,35,34,24,38,30,35,41,171,11,171,9,30,15,40,34,i,i,390.126783588,1,1,79,315
distr_stats_triangular,1,m,29,1,78,5,106,33,12,tri_right,15,-86,-6,20,175,38,40,35,15,174,23,21,24,3,25,40,36,32,23,17,16,32,36,30,27,20,32,28,24,25,26,16,20,3,14,15,,176,2,i,i,405.54868115,1,1,79,316
distr_stats_triangular,1,m,29,1,78,6,106,4,12,tri_right,15,-86,-6,176,7,13,19,,6,23,10,173,24,18,178,179,32,27,25,28,34,24,172,12,176,9,24,9,164,178,33,18,25,10,14,39,12,13,30,i,i,405.620182375,1,1,79,317
distr_stats_triangular,1,m,29,1,79,0,55,29,152,norm,10,83,43,156,153,155,159,162,151,151,144,141,145,152,159,164,134,167,141,157,156,137,154,148,141,158,154,135,151,144,141,163,,150,151,143,151,145,149,i,i,468.085852621,1,1,80,318
distr_stats_triangular,1,m,29,1,79,1,55,15,152,norm,10,83,43,151,149,147,144,148,157,143,155,146,141,159,158,147,167,169,,155,171,161,141,151,168,144,173,169,140,171,144,147,161,154,149,149,154,155,131,i,i,467.939916785,1,1,80,319
distr_stats_triangular,1,m,29,1,80,0,56,0,152,tri_right,15,84,84,,179,156,166,174,170,163,173,152,167,176,149,163,158,146,159,146,150,159,146,1,143,167,154,174,172,171,146,164,169,162,173,173,138,167,180,j,j,499.302554133,1,1,81,320
distr_stats_triangular,1,m,29,1,80,1,56,11,152,tri_right,15,84,84,174,148,169,163,171,160,151,167,155,176,167,,167,160,136,163,161,158,140,174,142,150,170,177,147,179,148,153,146,171,144,159,158,173,162,152,i,i,358.903481962,1,1,81,321
distr_stats_triangular,1,m,29,1,80,2,56,34,152,tri_right,15,84,84,133,138,169,176,157,179,165,143,148,178,125,145,174,158,154,158,177,147,170,141,177,150,170,156,147,161,169,145,177,178,173,151,154,145,,152,i,i,405.615048954,1,1,81,322
distr_stats_triangular,1,m,29,1,80,3,56,18,152,tri_right,15,84,84,135,149,159,172,158,178,179,167,154,176,170,146,172,178,143,179,173,173,,151,162,168,164,170,165,155,169,177,153,148,164,132,167,170,153,160,j,j,452.431117736,1,1,81,323
distr_stats_triangular,1,m,29,1,80,4,56,17,152,tri_right,15,84,84,169,147,160,176,139,158,138,144,150,149,158,160,176,147,173,138,138,,140,177,167,139,170,155,139,168,143,146,148,166,174,178,165,157,160,171,i,i,405.64548281,1,1,81,324
distr_stats_triangular,1,m,29,1,80,5,56,28,152,tri_right,15,84,84,154,157,161,172,144,172,169,180,170,140,167,175,155,156,173,129,158,169,173,170,162,139,156,165,157,138,163,143,,140,170,154,171,172,166,164,i,i,358.862781266,1,1,81,325
distr_stats_triangular,1,m,29,1,80,6,56,11,152,tri_right,15,84,84,176,172,169,161,164,176,161,164,155,166,173,,162,131,165,175,165,177,155,175,173,139,154,176,164,178,174,171,178,157,169,166,159,160,168,179,i,i,374.493315736,1,1,81,326
distr_stats_triangular,1,m,29,1,81,0,134,3,32,norm,10,-78,-18,28,25,15,,30,25,26,31,26,43,34,36,27,18,40,26,38,43,36,41,36,41,26,26,36,50,16,32,35,37,23,42,32,41,40,35,i,j,514.888721176,0,1,82,327
distr_stats_triangular,1,m,29,1,82,0,29,29,92,tri_right,15,-63,-3,119,86,98,112,109,98,100,92,99,113,92,102,107,106,103,84,103,106,112,104,105,108,82,98,122,118,109,78,76,,107,76,94,93,79,112,i,i,405.593415249,1,0,83,328
distr_stats_triangular,1,m,29,1,82,1,29,1,92,tri_right,15,-63,-3,109,,106,67,102,75,98,96,113,87,94,72,90,121,103,116,86,84,112,67,107,97,118,107,109,105,98,79,122,116,78,77,94,101,110,104,j,i,530.401186956,0,1,83,329
distr_stats_triangular,1,m,29,1,82,2,29,34,92,tri_right,15,-63,-3,105,86,98,89,101,93,113,115,81,111,91,117,120,70,109,100,92,94,104,120,96,108,113,103,107,92,95,98,102,102,112,110,105,94,,76,i,i,468.001517842,1,0,83,330
distr_stats_triangular,1,m,29,1,82,3,29,0,92,tri_right,15,-63,-3,,89,108,69,88,100,111,86,91,116,89,119,119,87,114,109,87,104,94,105,111,113,110,113,94,99,100,110,121,92,111,99,113,90,114,85,j,j,436.871717819,1,1,83,331
distr_stats_triangular,1,m,29,1,82,4,29,12,92,tri_right,15,-63,-3,84,80,90,72,87,74,113,72,117,73,109,95,,106,107,74,105,96,115,113,104,91,113,80,111,97,72,114,107,93,101,76,120,108,118,115,j,j,468.105286285,1,1,83,332
distr_stats_triangular,1,m,29,1,83,0,28,9,132,norm,10,76,-64,125,109,120,125,123,127,153,143,135,,138,121,135,151,127,149,121,145,130,141,139,121,118,143,115,124,119,127,137,120,123,140,141,122,119,133,i,i,561.683522927,1,1,84,333
distr_stats_triangular,1,m,29,1,83,1,28,23,132,norm,10,76,-64,120,135,130,137,134,113,125,136,116,117,105,119,131,147,134,111,128,126,138,121,136,143,124,,117,138,120,125,115,131,106,137,127,135,124,140,i,i,374.505782615,1,1,84,334
distr_stats_triangular,1,m,29,1,84,0,113,3,52,tri_left,15,61,-19,42,47,61,,27,33,44,29,39,42,49,31,32,37,30,30,36,38,37,77,37,28,57,28,30,48,68,27,35,49,32,33,31,27,38,51,i,i,811.251398856,1,1,85,335
distr_stats_triangular,1,m,29,1,84,1,113,18,52,tri_left,15,61,-19,56,32,39,54,34,24,45,37,60,57,60,36,32,38,45,62,40,50,,46,31,56,38,44,52,37,56,44,26,40,43,26,34,59,27,31,j,j,499.304387498,1,1,85,336
distr_stats_triangular,1,m,29,1,84,2,113,32,52,tri_left,15,61,-19,28,43,31,63,31,51,27,70,27,62,30,30,45,30,32,29,42,63,43,47,51,56,66,39,29,52,24,29,35,64,70,45,,30,65,25,j,j,577.287656944,1,1,85,337
distr_stats_triangular,1,m,29,1,84,3,113,26,52,tri_left,15,61,-19,71,27,72,39,58,39,35,24,42,26,37,32,44,43,29,51,68,29,53,32,29,60,24,31,53,59,,59,71,30,45,63,70,77,66,57,j,j,624.102259035,1,1,85,338
distr_stats_triangular,1,m,29,1,84,4,113,25,52,tri_left,15,61,-19,70,38,51,72,30,32,30,47,32,36,31,50,28,29,63,41,39,30,58,30,50,59,57,42,38,,42,27,32,52,32,25,30,55,23,40,j,j,405.697550368,1,1,85,339
distr_stats_triangular,1,m,29,1,85,0,163,17,72,norm,10,-89,-69,64,77,72,79,71,66,74,70,78,64,85,81,69,70,86,79,74,,85,76,62,70,76,82,61,66,85,50,87,66,68,69,77,70,70,59,i,i,468.104552941,1,1,86,340
distr_stats_triangular,1,m,29,1,85,1,163,28,72,norm,10,-89,-69,60,74,78,75,92,75,77,60,56,88,79,74,73,75,92,71,64,94,71,70,65,83,77,76,60,74,66,48,,78,84,73,79,76,66,60,i,i,405.484513385,1,1,86,341
distr_stats_triangular,1,m,29,1,85,2,163,2,72,norm,10,-89,-69,61,77,,59,56,72,70,81,86,65,73,51,76,62,84,77,71,75,78,62,65,57,66,69,91,63,73,58,63,51,60,43,65,82,75,88,j,j,702.022460733,1,1,86,342
distr_stats_triangular,1,m,29,1,86,0,8,13,92,tri_left,15,-84,-64,103,86,106,103,84,79,74,70,101,84,88,83,76,,94,78,81,97,66,86,97,108,64,95,102,79,80,83,103,108,76,105,104,71,76,88,j,j,421.72885837,1,1,87,343
distr_stats_triangular,1,m,29,1,86,1,8,4,92,tri_left,15,-84,-64,89,69,100,92,,80,84,102,72,72,75,79,69,96,100,65,77,78,68,103,69,75,68,90,69,76,87,92,107,89,84,66,82,103,67,84,i,i,452.479518566,1,1,87,344
distr_stats_triangular,1,m,29,1,86,2,8,35,92,tri_left,15,-84,-64,84,99,74,66,66,69,111,94,68,70,73,71,97,71,88,107,67,65,104,94,63,67,96,86,68,110,103,70,67,93,117,75,80,66,107,,i,i,421.35815202,1,1,87,345
distr_stats_triangular,1,m,29,1,86,3,8,26,92,tri_left,15,-84,-64,68,86,99,99,84,72,89,93,83,80,81,79,92,80,79,68,94,76,75,71,102,63,85,77,75,66,,70,78,96,72,101,93,73,110,72,j,j,389.998814728,1,1,87,346
distr_stats_triangular,1,m,29,1,86,4,8,32,92,tri_left,15,-84,-64,75,81,84,111,88,92,93,65,66,81,90,80,79,70,89,101,101,96,77,106,79,120,79,81,99,68,81,79,105,106,68,76,,75,79,80,j,j,452.238614436,1,1,87,347
distr_stats_triangular,1,m,29,1,86,5,8,32,92,tri_left,15,-84,-64,74,79,96,70,68,103,85,114,76,95,92,101,75,72,65,69,89,89,84,81,76,84,97,73,71,95,71,98,85,91,78,75,,87,74,81,j,j,390.00394815,1,1,87,348
distr_stats_triangular,1,m,29,1,87,0,14,4,112,norm,10,82,-78,104,113,127,105,,112,111,103,106,109,100,106,114,112,94,110,88,131,122,124,131,133,113,121,105,124,105,90,100,112,115,118,123,103,91,127,i,i,374.333079655,1,1,88,349
distr_stats_triangular,1,m,29,1,87,1,14,1,112,norm,10,82,-78,102,,105,121,103,110,105,100,111,110,100,109,129,111,116,116,123,119,122,124,117,107,114,121,134,106,134,111,115,94,98,114,122,123,104,133,j,j,639.633791809,1,1,88,350
distr_stats_triangular,1,m,29,1,88,0,153,28,72,tri_left,15,81,41,62,83,48,54,81,51,62,48,83,44,82,57,51,52,50,49,94,56,54,51,79,73,52,43,62,97,74,53,,71,46,79,57,67,64,66,i,i,421.167482085,1,1,89,351
distr_stats_triangular,1,m,29,1,88,1,153,1,72,tri_left,15,81,41,61,,61,45,63,67,51,52,56,57,55,56,58,82,79,81,65,53,68,59,65,52,67,50,51,94,57,44,53,47,48,81,69,45,53,60,j,j,358.915215498,1,1,89,352
distr_stats_triangular,1,m,29,1,88,2,153,7,72,tri_left,15,81,41,59,54,53,80,87,47,63,,86,82,84,49,55,61,53,52,60,70,56,47,73,66,99,84,50,50,87,57,62,61,52,55,61,86,87,46,j,j,468.133886776,1,1,89,353
distr_stats_triangular,1,m,29,1,88,3,153,35,72,tri_left,15,81,41,55,60,82,52,67,92,76,59,96,53,57,49,63,84,68,54,64,65,48,63,51,49,66,72,78,86,52,64,50,61,72,64,77,94,53,,i,i,452.562753324,1,1,89,354
distr_stats_triangular,1,m,29,1,88,4,153,12,72,tri_left,15,81,41,81,83,77,45,75,52,68,97,45,49,52,52,,55,89,91,66,47,51,91,76,61,51,48,70,52,55,69,47,56,58,46,61,65,59,62,j,j,358.807046976,1,1,89,355
distr_stats_triangular,1,m,29,1,88,5,153,30,72,tri_left,15,81,41,66,46,77,54,57,50,48,74,71,45,54,75,47,64,90,61,52,49,94,61,55,67,52,77,60,52,66,47,48,93,,68,73,64,68,53,j,j,452.315249084,1,1,89,356
distr_stats_triangular,1,m,29,1,88,6,153,21,72,tri_left,15,81,41,49,55,60,89,90,52,94,53,79,92,45,74,51,78,58,62,55,62,48,97,55,,58,49,52,68,52,49,53,59,85,53,70,63,57,55,i,i,436.89555156,1,1,89,357
distr_stats_triangular,1,m,29,1,89,0,168,28,72,norm,10,-84,-84,51,68,69,51,87,80,80,69,76,82,85,67,80,68,63,93,63,63,55,74,59,68,81,71,61,74,77,63,,71,67,64,87,72,78,90,i,i,421.293617581,1,1,90,358
distr_stats_triangular,1,m,29,1,89,1,168,1,72,norm,10,-84,-84,73,,85,64,74,65,70,64,68,88,70,63,68,72,94,84,67,90,54,73,65,77,77,70,78,67,93,71,66,67,66,75,66,69,63,57,j,j,452.209280602,1,1,90,359
distr_stats_triangular,1,m,29,1,89,2,168,13,72,norm,10,-84,-84,65,79,65,67,78,69,57,83,78,68,78,68,79,,67,80,75,58,87,81,87,77,64,67,94,69,66,73,70,59,48,66,61,74,67,61,j,j,358.842614252,1,1,90,360
distr_stats_triangular,1,m,29,1,90,0,0,34,92,tri_left,15,88,-72,69,89,69,72,68,95,75,72,68,68,68,79,68,102,64,87,97,72,115,72,91,85,87,92,103,93,66,95,88,80,95,93,94,79,,90,i,i,405.70158377,1,1,91,361
distr_stats_triangular,1,m,29,1,90,1,0,17,92,tri_left,15,88,-72,73,92,80,66,75,103,80,70,75,71,92,76,63,86,67,96,70,,74,103,99,99,91,85,66,107,94,68,73,79,67,75,99,103,69,66,i,i,452.43405112,1,1,91,362
distr_stats_triangular,1,m,29,1,90,2,0,15,92,tri_left,15,88,-72,104,80,81,77,107,76,95,79,81,94,90,72,82,71,67,,63,114,72,72,93,95,105,84,110,81,89,70,66,93,96,73,91,76,75,76,i,i,390.118350111,1,1,91,363
distr_stats_triangular,1,m,29,1,90,3,0,15,92,tri_left,15,88,-72,80,81,86,95,67,65,66,71,69,68,92,86,66,79,105,,80,73,68,77,104,67,82,66,81,72,66,84,104,68,64,75,86,104,78,82,i,i,374.292745631,1,1,91,364
distr_stats_triangular,1,m,29,1,90,4,0,23,92,tri_left,15,88,-72,69,68,91,75,102,68,90,115,119,94,88,76,111,84,78,73,94,70,85,78,103,76,88,,94,67,85,67,82,87,76,84,67,91,82,82,i,i,358.897615195,1,1,91,365
distr_stats_triangular,1,m,29,1,90,5,0,3,92,tri_left,15,88,-72,73,80,81,,81,74,71,80,86,79,78,70,85,72,85,87,77,78,81,121,80,73,71,107,68,80,68,67,67,83,93,111,74,79,71,85,i,i,405.68545016,1,1,91,366
distr_stats_triangular,1,m,29,1,91,0,43,34,152,norm,10,71,-49,147,156,157,150,152,174,137,142,163,159,152,176,146,155,172,177,0,155,148,141,154,145,125,158,154,152,147,154,159,142,149,159,145,154,,151,i,i,561.732657103,1,1,92,367
distr_stats_triangular,1,m,29,1,91,1,43,16,152,norm,10,71,-49,169,165,160,159,140,160,135,137,155,141,156,151,150,160,150,141,,153,160,171,151,151,151,131,147,159,156,146,154,157,162,149,151,145,150,134,i,i,436.894451541,1,1,92,368
distr_stats_triangular,1,m,29,1,92,0,10,3,92,tri_left,15,-82,38,99,99,113,,94,67,95,87,92,82,77,109,94,86,81,78,91,104,62,74,113,103,75,103,89,89,82,71,74,103,83,77,79,96,98,93,i,i,530.475988238,1,1,93,369
distr_stats_triangular,1,m,29,1,92,1,10,0,92,tri_left,15,-82,38,,67,79,64,114,82,73,64,112,85,84,75,63,78,66,66,106,71,74,76,73,86,64,98,74,78,107,88,71,90,65,65,105,79,67,78,j,j,435.277057162,1,1,93,370
distr_stats_triangular,1,m,29,1,92,2,10,28,92,tri_left,15,-82,38,79,63,90,107,74,74,85,75,99,69,74,70,91,90,79,89,80,102,93,66,99,66,91,83,74,104,89,71,,103,85,72,70,73,105,67,i,i,436.896284906,1,1,93,371
distr_stats_triangular,1,m,29,1,92,3,10,10,92,tri_left,15,-82,38,67,78,92,97,101,65,84,80,68,108,,76,70,78,106,92,66,88,84,81,111,68,112,79,101,81,106,75,91,74,74,68,70,91,66,121,i,i,421.323318089,1,1,93,372
distr_stats_triangular,1,m,29,1,92,4,10,30,92,tri_left,15,-82,38,94,68,77,78,74,84,79,74,72,65,67,120,80,89,91,75,73,93,86,68,77,87,69,92,77,78,77,89,68,84,,67,114,104,85,84,j,j,577.215789048,1,1,93,373
distr_stats_triangular,1,m,29,1,92,5,10,10,92,tri_left,15,-82,38,89,96,97,103,72,103,77,90,110,75,,71,78,93,83,77,72,74,104,69,70,66,83,79,84,96,77,74,96,69,68,68,74,80,76,67,i,i,327.735547951,1,1,93,374
distr_stats_triangular,1,m,29,1,92,6,10,25,92,tri_left,15,-82,38,102,105,66,96,84,71,78,81,78,96,72,104,97,73,64,76,88,104,94,100,82,103,67,102,108,,86,103,98,80,70,71,111,115,84,116,j,j,499.222252758,1,1,93,375
distr_stats_triangular,1,m,29,1,93,0,114,29,12,norm,10,-78,22,28,6,9,20,11,9,15,8,11,176,16,9,17,157,43,10,14,19,28,15,4,9,11,17,25,6,13,7,23,,1,11,167,24,11,14,i,j,686.216656595,0,1,94,376
distr_stats_triangular,1,m,29,1,93,1,114,4,12,norm,10,-78,22,2,8,10,22,,14,20,25,170,14,7,170,12,17,20,13,34,4,19,14,7,178,178,7,29,1,6,27,170,8,174,7,4,15,19,9,i,i,1060.83137499,1,0,94,377
distr_stats_triangular,1,m,29,1,93,2,114,35,12,norm,10,-78,22,177,21,9,13,23,21,11,18,27,9,16,170,9,26,19,4,18,12,13,9,5,18,2,16,12,5,27,21,17,14,15,168,1,22,4,,i,i,390.021915124,1,1,94,378
distr_stats_triangular,1,m,29,1,94,0,167,34,72,tri_right,15,-85,-25,91,69,89,89,62,87,99,72,86,88,73,89,79,73,98,78,91,63,79,66,83,74,91,95,97,68,63,93,81,74,58,77,61,55,,91,i,i,624.151393211,1,1,95,379
distr_stats_triangular,1,m,29,1,94,1,167,8,72,tri_right,15,-85,-25,68,92,99,74,61,89,98,79,,90,66,78,85,83,88,96,90,79,95,52,70,73,97,48,93,85,80,87,86,94,94,83,59,70,62,68,j,i,780.102531839,0,1,95,380
distr_stats_triangular,1,m,29,1,94,2,167,28,72,tri_right,15,-85,-25,75,74,99,83,83,89,59,85,58,83,97,65,88,98,68,70,73,98,85,49,99,71,75,100,69,96,92,84,,73,81,98,89,94,93,99,i,i,577.626096076,1,0,95,381
distr_stats_triangular,1,m,29,1,94,3,167,14,72,tri_right,15,-85,-25,94,90,85,76,84,58,73,88,85,72,81,97,95,75,,70,65,78,70,98,86,96,64,74,98,100,95,61,51,65,88,58,62,69,98,72,j,j,483.665786223,1,1,95,382
distr_stats_triangular,1,m,29,1,94,4,167,4,72,tri_right,15,-85,-25,87,92,68,57,,92,97,65,100,95,100,91,81,75,96,72,77,83,73,97,59,97,92,93,54,62,95,85,78,90,90,81,62,100,79,86,i,i,842.487167363,1,1,95,383
distr_stats_triangular,1,m,29,1,94,5,167,21,72,tri_right,15,-85,-25,86,57,51,75,77,86,87,89,77,98,86,94,72,97,93,73,68,60,69,79,57,,55,87,72,78,91,55,94,96,69,72,62,61,80,93,i,i,733.3102968,1,1,95,384
distr_stats_triangular,1,m,29,1,94,6,167,10,72,tri_right,15,-85,-25,65,69,73,95,69,73,85,98,75,98,,55,73,89,96,58,91,66,81,70,86,51,90,95,77,60,74,82,85,90,90,48,97,77,84,93,i,i,405.601848728,1,1,95,385
distr_stats_triangular,1,m,29,1,95,0,113,28,12,norm,10,-79,41,10,20,7,16,21,14,7,0,16,5,179,13,16,19,19,7,10,172,177,34,29,25,14,13,8,180,178,18,,8,16,12,28,2,12,37,i,i,421.298017654,1,1,96,386
distr_stats_triangular,1,m,29,1,96,0,84,18,172,tri_right,15,-88,72,166,168,165,167,19,11,10,5,5,168,15,159,4,177,162,14,14,174,,176,3,11,2,165,3,161,172,169,175,10,20,13,6,8,8,178,j,j,452.645254738,1,1,97,387
distr_stats_triangular,1,m,29,1,96,1,84,31,172,tri_right,15,-88,72,11,164,2,155,178,174,12,176,17,169,180,8,10,177,163,17,14,20,10,13,6,12,12,10,19,16,16,159,161,155,16,,167,160,6,11,j,j,374.435014735,1,1,97,388
distr_stats_triangular,1,m,29,1,96,2,84,5,172,tri_right,15,-88,72,8,10,178,176,11,,2,180,178,1,14,1,6,15,176,179,167,17,17,180,172,175,14,15,18,18,16,179,0,177,2,7,11,19,164,1,i,i,358.89944856,1,1,97,389
distr_stats_triangular,1,m,29,1,96,3,84,26,172,tri_right,15,-88,72,174,10,170,151,9,177,9,8,4,5,4,11,10,158,171,11,155,161,10,7,169,3,18,12,3,179,,177,18,172,9,162,173,180,19,163,j,j,358.666611237,1,1,97,390
distr_stats_triangular,1,m,29,1,96,4,84,4,172,tri_right,15,-88,72,169,164,8,3,,177,15,156,9,12,175,14,6,175,175,10,13,11,1,169,180,7,154,1,4,9,4,6,161,8,13,166,13,8,151,12,i,i,483.705753575,1,1,97,391
distr_stats_triangular,1,m,29,1,96,5,84,30,172,tri_right,15,-88,72,12,4,2,180,152,14,176,8,10,20,163,17,172,5,19,153,7,158,11,16,13,12,155,149,11,180,0,157,10,148,,8,10,16,5,160,j,j,483.722987203,1,1,97,392
distr_stats_triangular,1,m,29,1,96,6,84,4,172,tri_right,15,-88,72,152,19,155,16,,10,178,162,176,6,146,174,173,6,156,20,19,18,12,164,173,17,2,149,158,12,14,13,160,173,12,178,19,170,8,159,i,i,374.481948875,1,1,97,393
distr_stats_triangular,1,m,29,1,97,0,94,32,172,norm,10,-78,-78,174,169,160,159,4,173,174,172,165,163,1,180,178,3,159,161,166,171,162,179,175,174,167,176,177,170,13,172,170,179,169,154,,166,10,166,j,j,374.339679769,1,1,98,394
distr_stats_triangular,1,m,29,1,98,0,16,6,92,tri_right,15,-76,24,79,116,89,100,113,108,,106,105,113,73,117,104,77,98,111,118,74,109,93,111,116,89,105,115,115,93,80,116,113,90,116,114,90,101,99,j,j,546.187924103,1,1,99,395
distr_stats_triangular,1,m,29,1,98,1,16,12,92,tri_right,15,-76,24,103,116,105,112,93,97,91,99,117,100,118,107,,76,80,113,76,105,118,107,96,101,103,76,111,118,116,114,91,82,119,113,117,71,95,121,j,j,436.77124943,1,1,99,396
distr_stats_triangular,1,m,29,1,98,2,16,0,92,tri_right,15,-76,24,,117,108,105,94,106,101,96,110,112,118,108,113,109,94,100,93,115,117,73,98,119,103,114,80,116,103,89,72,98,111,109,103,121,116,97,j,j,390.071415974,1,1,99,397
distr_stats_triangular,1,m,29,1,98,3,16,20,92,tri_right,15,-76,24,110,98,111,112,95,92,100,103,110,80,97,118,91,111,119,84,89,88,108,109,,94,115,106,106,101,89,117,85,82,114,105,95,102,87,97,j,j,436.826983718,1,1,99,398
distr_stats_triangular,1,m,29,1,98,4,16,33,92,tri_right,15,-76,24,97,103,80,103,82,99,119,110,115,109,104,98,87,79,73,114,90,102,115,74,111,90,85,76,82,106,117,118,106,101,111,93,114,,84,111,i,j,390.333587131,0,1,99,399
distr_stats_triangular,1,m,29,1,99,0,165,8,72,norm,10,-87,73,96,74,68,72,74,64,70,84,,73,71,72,64,66,80,95,82,82,66,62,70,73,70,58,78,72,62,61,75,93,76,72,63,84,54,75,j,i,358.860947899,0,0,100,400
distr_stats_triangular,1,m,29,1,99,1,165,24,72,norm,10,-87,73,78,71,73,73,62,65,73,71,72,68,71,69,81,71,71,67,60,84,71,50,73,78,80,74,,85,75,59,78,83,66,83,70,91,71,70,j,j,358.930982435,1,0,100,401
distr_stats_triangular,1,m,29,1,99,2,165,22,72,norm,10,-87,73,61,71,78,65,80,76,74,78,79,65,66,62,84,48,65,80,55,90,80,79,73,73,,79,62,77,86,64,91,84,57,79,65,81,91,54,i,i,452.445051309,1,1,100,402
distr_stats_triangular,1,m,29,1,100,0,11,32,72,tri_right,15,-61,-61,51,90,73,81,99,90,74,78,92,99,91,90,90,80,95,84,89,98,61,68,67,60,69,69,82,72,75,85,79,96,77,95,,68,90,82,j,j,483.600518437,1,1,101,403
distr_stats_triangular,1,m,29,1,100,1,11,33,72,tri_right,15,-61,-61,82,72,81,75,95,94,91,69,96,84,74,100,80,84,86,99,82,92,85,50,101,59,79,87,89,85,92,70,57,91,80,83,74,,96,68,i,j,421.301684386,0,1,101,404
distr_stats_triangular,1,m,29,1,100,2,11,23,72,tri_right,15,-61,-61,87,78,61,71,71,65,95,76,91,75,63,80,51,50,91,99,95,91,82,75,83,70,81,,61,99,92,57,84,94,93,94,44,92,98,94,i,i,468.109319689,1,0,101,405
distr_stats_triangular,1,m,29,1,100,3,11,3,72,tri_right,15,-61,-61,66,60,88,,77,62,100,70,89,101,98,80,93,98,87,91,91,92,92,91,79,78,72,100,68,71,86,84,94,48,99,73,67,90,99,97,i,i,436.890051466,1,1,101,406
distr_stats_triangular,1,m,29,1,100,4,11,17,72,tri_right,15,-61,-61,84,78,71,84,93,96,72,82,91,52,97,62,63,74,97,91,65,,71,94,95,84,88,97,98,100,98,66,101,47,96,89,90,85,89,72,i,i,343.243980329,1,1,101,407
distr_stats_triangular,1,m,29,1,101,0,64,31,152,norm,10,-88,-8,151,171,167,148,134,156,151,153,159,147,164,139,163,161,142,154,148,136,162,150,155,148,150,142,150,146,124,143,141,152,149,,154,160,142,161,j,j,483.745354253,1,1,102,408
distr_stats_triangular,1,m,29,1,101,1,64,30,152,norm,10,-88,-8,153,149,155,163,152,148,140,153,160,159,141,158,144,178,158,141,138,165,161,156,154,155,136,141,161,154,145,172,170,153,,163,145,164,168,148,j,j,405.660516401,1,1,102,409
distr_stats_triangular,1,m,29,1,101,2,64,34,152,norm,10,-88,-8,163,138,162,152,151,136,156,146,171,139,163,131,160,145,147,160,156,136,131,164,160,133,157,146,154,152,158,168,133,152,136,147,127,151,,163,i,i,436.842383982,1,1,102,410
distr_stats_triangular,1,m,29,1,102,0,9,26,72,tri_right,15,-63,37,92,59,63,92,71,88,65,93,82,72,74,91,53,71,94,86,86,64,87,99,79,63,87,61,79,84,,86,78,76,75,93,99,89,98,79,j,j,561.658222494,1,1,103,411
distr_stats_triangular,1,m,29,1,102,1,9,24,72,tri_right,15,-63,37,59,95,66,78,96,93,97,80,95,81,67,78,66,99,75,83,96,76,76,53,64,74,62,89,,92,68,70,48,94,76,72,92,53,71,55,j,j,374.511649383,1,1,103,412
distr_stats_triangular,1,m,29,1,102,2,9,21,72,tri_right,15,-63,37,95,78,84,69,97,92,92,77,89,96,100,63,69,71,90,77,66,62,50,99,68,,50,62,47,85,78,82,78,60,91,93,50,82,89,68,i,j,389.982314446,0,1,103,413
distr_stats_triangular,1,m,29,1,102,3,9,3,72,tri_right,15,-63,37,76,86,73,,81,78,80,83,95,62,60,80,65,89,94,96,87,96,54,84,57,93,81,84,72,88,53,64,81,60,72,97,94,94,77,97,i,i,436.763915972,1,0,103,414
distr_stats_triangular,1,m,29,1,102,4,9,12,72,tri_right,15,-63,37,69,84,63,78,75,94,77,88,82,85,62,65,,99,52,92,71,93,53,92,70,82,60,81,94,75,75,100,69,75,87,91,86,78,79,87,j,j,421.277483971,1,1,103,415
distr_stats_triangular,1,m,29,1,103,0,96,25,12,norm,10,84,24,3,172,18,20,9,20,13,169,14,24,6,31,10,19,11,4,20,9,173,22,20,11,4,1,23,,22,23,20,174,16,11,21,18,9,178,j,j,452.448351363,1,1,104,416
distr_stats_triangular,1,m,29,1,103,1,96,31,12,norm,10,84,24,26,178,33,23,29,3,9,27,20,6,13,34,21,21,5,11,180,10,17,6,16,8,2,13,20,13,174,1,12,14,34,,2,8,25,5,j,j,343.289447776,1,1,104,417
distr_stats_triangular,1,m,29,1,104,0,17,9,132,tri_right,15,65,5,148,125,159,146,139,149,119,160,138,,144,155,123,147,139,141,141,146,132,132,122,150,141,145,149,148,146,142,157,160,135,132,148,151,145,141,i,i,530.492855192,1,1,105,418
distr_stats_triangular,1,m,29,1,104,1,17,26,132,tri_right,15,65,5,153,110,155,115,127,152,141,117,118,145,157,140,117,127,127,159,125,128,140,129,143,149,143,159,118,145,,138,137,117,159,152,147,136,124,138,j,j,405.716250687,1,1,105,419
distr_stats_triangular,1,m,29,1,104,2,17,32,132,tri_right,15,65,5,145,107,151,135,153,131,144,140,143,120,112,127,149,161,146,150,136,159,155,153,154,158,133,144,116,109,143,109,134,118,153,121,,149,141,122,j,j,390.016781705,1,1,105,420
distr_stats_triangular,1,m,29,1,104,3,17,28,132,tri_right,15,65,5,140,154,127,142,130,142,132,126,150,145,158,156,141,144,117,158,149,152,158,125,153,155,145,130,146,157,127,152,,150,154,118,158,146,146,115,i,i,686.504861533,1,1,105,421
distr_stats_triangular,1,m,29,1,104,4,17,4,132,tri_right,15,65,5,158,137,151,125,,128,156,144,146,155,147,132,134,149,121,151,138,162,143,133,122,128,153,123,136,152,146,119,130,156,151,128,140,125,131,129,i,i,437.141589109,1,1,105,422
distr_stats_triangular,1,m,29,1,104,5,17,18,132,tri_right,15,65,5,156,135,137,124,158,159,124,157,154,157,138,146,138,113,156,152,143,153,,131,128,144,132,135,152,134,143,147,123,154,107,116,129,139,138,153,j,j,390.020815106,1,1,105,423
distr_stats_triangular,1,m,29,1,105,0,35,15,112,norm,10,-77,83,116,117,104,113,132,125,96,122,115,99,124,111,95,97,123,,113,119,99,100,109,99,107,119,117,91,115,121,117,112,110,100,123,120,100,107,i,i,483.667252915,1,1,106,424
distr_stats_triangular,1,m,29,1,105,1,35,11,112,norm,10,-77,83,113,131,114,115,100,123,95,125,109,111,107,,111,107,99,100,102,120,108,109,125,101,109,112,100,111,112,122,119,106,91,117,102,111,103,114,i,i,405.691316926,1,1,106,425
distr_stats_triangular,1,m,29,1,106,0,42,9,112,tri_left,15,-70,-70,88,126,88,90,95,120,98,100,105,,94,116,96,111,87,98,106,100,111,107,131,114,107,107,108,97,109,95,113,100,109,96,91,87,99,110,i,i,405.690583582,1,1,107,426
distr_stats_triangular,1,m,29,1,106,1,42,1,112,tri_left,15,-70,-70,101,,104,127,103,100,89,120,117,98,112,95,113,121,128,122,118,112,86,122,124,124,95,106,96,92,91,114,87,123,86,135,120,129,108,125,j,j,390.088282929,1,1,107,427
distr_stats_triangular,1,m,29,1,106,2,42,13,112,tri_left,15,-70,-70,98,88,87,109,93,117,85,88,99,99,97,132,107,,103,114,119,88,97,116,106,101,87,132,87,122,113,114,93,97,92,102,97,100,125,96,j,j,390.082416161,1,1,107,428
distr_stats_triangular,1,m,29,1,106,3,42,21,112,tri_left,15,-70,-70,97,121,95,108,89,131,95,84,86,124,93,89,114,91,101,98,101,116,120,100,106,,127,88,105,91,133,86,84,123,99,125,118,87,118,138,i,i,374.485248929,1,1,107,429
distr_stats_triangular,1,m,29,1,106,4,42,16,112,tri_left,15,-70,-70,90,97,113,85,113,89,93,133,104,105,89,95,89,96,106,93,,107,111,99,125,117,116,102,119,96,86,92,109,102,93,109,88,112,110,93,i,i,390.118716783,1,1,107,430
distr_stats_triangular,1,m,29,1,106,5,42,1,112,tri_left,15,-70,-70,99,,94,111,85,105,85,97,100,123,91,93,92,101,102,119,86,118,95,89,110,96,119,98,107,115,87,93,86,134,118,92,100,87,109,89,j,j,483.601618458,1,1,107,431
distr_stats_triangular,1,m,29,1,106,6,42,1,112,tri_left,15,-70,-70,87,,94,94,101,132,95,110,111,109,93,116,118,119,91,94,87,111,102,108,131,127,119,90,123,115,117,103,91,134,87,97,105,124,116,105,j,i,343.303014675,0,1,107,432
distr_stats_triangular,1,m,29,1,107,0,147,9,72,norm,10,75,35,55,74,71,58,80,82,66,78,85,,74,70,75,74,83,69,64,74,79,60,80,69,87,64,68,66,66,78,82,76,66,69,71,80,47,81,i,i,405.721750782,1,0,108,433
distr_stats_triangular,1,m,29,1,107,1,147,18,72,norm,10,75,35,77,81,86,84,53,49,73,52,56,93,66,70,73,86,58,72,76,72,,71,81,69,37,87,62,60,71,84,85,83,85,74,60,93,64,68,j,j,374.439048139,1,1,108,434
distr_stats_triangular,1,m,29,1,108,0,124,7,52,tri_left,15,72,52,25,31,39,44,42,26,37,,34,41,35,71,37,45,55,65,40,49,63,29,26,63,56,40,62,29,33,33,31,32,31,47,46,54,42,40,j,j,546.094789173,1,1,109,435
distr_stats_triangular,1,m,29,1,108,1,124,13,52,tri_left,15,72,52,31,65,31,28,78,41,25,72,54,48,31,28,39,,76,50,36,33,41,24,33,27,50,37,59,44,47,38,38,47,42,71,39,73,30,32,j,j,842.485333997,1,1,109,436
distr_stats_triangular,1,m,29,1,108,2,124,12,52,tri_left,15,72,52,39,37,77,31,59,50,33,65,24,49,31,38,,29,58,58,46,30,31,36,49,63,46,44,47,28,27,31,35,67,37,70,31,64,33,26,j,j,421.283717409,1,1,109,437
distr_stats_triangular,1,m,29,1,108,3,124,26,52,tri_left,15,72,52,49,73,29,47,36,33,28,59,56,51,41,63,25,72,29,64,30,42,70,34,33,69,38,28,28,68,,60,66,74,60,38,49,37,42,34,j,j,405.692783619,1,1,109,438
distr_stats_triangular,1,m,29,1,108,4,124,35,52,tri_left,15,72,52,35,48,24,34,28,60,38,46,38,45,45,57,30,28,57,29,26,62,39,64,25,25,71,49,35,43,42,31,64,78,40,27,28,33,67,,i,i,483.695853405,1,1,109,439
distr_stats_triangular,1,m,29,1,109,0,174,30,112,norm,10,62,-58,117,113,95,107,114,121,94,118,125,109,116,129,123,114,101,110,117,114,122,101,108,115,110,107,110,108,129,136,116,130,,111,113,113,120,108,j,j,670.885327252,1,1,110,440
distr_stats_triangular,1,m,29,1,109,1,174,20,112,norm,10,62,-58,111,124,119,99,97,105,119,100,121,112,128,129,117,114,124,111,115,119,99,87,,105,104,114,104,115,115,103,107,123,112,125,110,101,109,104,j,j,390.101849829,1,1,110,441
distr_stats_triangular,1,m,29,1,110,0,131,6,12,tri_right,15,-61,19,17,38,2,9,15,20,,40,174,32,26,19,25,25,33,34,26,35,16,29,17,167,38,22,17,27,10,13,28,39,5,41,21,12,20,16,j,j,608.479424696,1,1,111,442
distr_stats_triangular,1,m,29,1,110,1,131,7,12,tri_right,15,-61,19,5,16,3,21,14,39,27,,15,23,14,33,22,35,20,37,26,32,5,37,33,30,8,27,176,15,6,29,22,19,40,25,32,32,36,37,j,j,468.082919237,1,1,111,443
distr_stats_triangular,1,m,29,1,110,2,131,28,12,tri_right,15,-61,19,16,13,41,39,0,170,19,36,37,33,16,26,3,9,38,14,6,18,11,27,26,19,27,174,3,22,13,32,,39,37,37,18,32,27,28,i,i,467.983917541,1,1,111,444
distr_stats_triangular,1,m,29,1,110,3,131,22,12,tri_right,15,-61,19,2,178,36,171,12,37,18,13,175,0,31,20,29,30,33,25,10,17,22,178,32,35,,36,33,17,19,173,32,30,165,8,30,29,22,9,i,i,608.497758345,1,1,111,445
distr_stats_triangular,1,m,29,1,110,4,131,35,12,tri_right,15,-61,19,36,33,15,31,18,11,1,16,30,24,22,7,32,24,22,174,27,16,26,33,21,27,21,30,27,33,18,2,23,17,23,35,28,14,22,,i,i,421.302784405,1,1,111,446
distr_stats_triangular,1,m,29,1,110,5,131,17,12,tri_right,15,-61,19,33,35,170,18,20,9,25,10,28,34,29,14,39,39,11,19,24,,29,37,19,18,2,36,34,28,36,9,37,41,12,31,26,5,4,175,i,i,499.303654153,1,1,111,447
distr_stats_triangular,1,m,29,1,111,0,91,12,152,norm,10,-61,79,157,147,150,164,153,153,132,158,149,133,138,135,,149,154,166,145,153,154,148,172,132,154,141,139,151,156,146,143,155,151,139,128,159,127,165,j,j,499.30585419,1,1,112,448
distr_stats_triangular,1,m,29,1,111,1,91,35,152,norm,10,-61,79,144,147,160,149,138,123,138,152,164,162,139,151,142,144,156,158,142,157,156,153,163,144,129,139,156,151,149,152,168,156,162,156,147,145,161,,i,i,421.2947176,1,1,112,449
distr_stats_triangular,1,m,29,1,112,0,178,17,72,tri_left,15,-74,26,69,86,66,96,56,61,57,48,55,81,48,85,68,55,54,56,64,,49,44,76,92,65,70,53,96,75,58,94,90,58,55,66,51,48,53,i,j,1185.60247941,0,1,113,450
distr_stats_triangular,1,m,29,1,112,1,178,29,72,tri_left,15,-74,26,48,77,71,48,61,60,49,48,88,52,89,62,59,57,53,63,48,55,75,49,47,51,80,81,72,52,56,58,45,,47,43,72,64,79,75,i,i,483.641952482,1,0,113,451
distr_stats_triangular,1,m,29,1,112,2,178,35,72,tri_left,15,-74,26,76,85,66,68,60,53,64,94,67,56,51,61,76,64,69,54,80,64,52,49,65,57,68,48,43,67,55,59,68,52,82,57,82,66,68,,i,i,467.910949623,1,1,113,452
distr_stats_triangular,1,m,29,1,112,3,178,11,72,tri_left,15,-74,26,58,51,53,87,83,71,62,71,56,59,54,,57,45,43,49,59,66,70,59,46,77,79,86,66,62,52,56,86,76,48,63,85,70,89,91,i,j,499.289720579,0,1,113,453
distr_stats_triangular,1,m,29,1,112,4,178,31,72,tri_left,15,-74,26,44,57,70,89,47,50,93,88,71,60,67,61,52,67,80,47,52,75,98,72,49,54,81,57,80,62,70,56,60,58,69,,54,64,68,50,j,j,546.092955808,1,0,113,454
distr_stats_triangular,1,m,29,1,112,5,178,30,72,tri_left,15,-74,26,85,43,64,56,56,52,50,55,53,73,96,70,70,69,53,51,50,55,58,49,86,49,60,59,59,64,57,74,51,62,,64,54,72,47,83,j,j,717.589927457,1,1,113,455
distr_stats_triangular,1,m,29,1,113,0,67,6,152,norm,10,-85,-5,142,150,142,127,142,159,,148,150,155,140,136,158,151,142,152,163,151,154,143,158,159,134,141,141,143,163,153,155,144,145,142,138,146,148,136,j,j,1154.41731177,1,1,114,456
distr_stats_triangular,1,m,29,1,113,1,67,32,152,norm,10,-85,-5,160,157,135,144,154,148,151,154,151,150,159,139,149,137,138,168,160,167,142,166,165,148,137,151,148,171,167,164,161,153,153,163,,161,142,125,j,j,452.519485918,1,1,114,457
distr_stats_triangular,1,m,29,1,114,0,84,31,152,tri_left,15,-68,-68,157,168,136,135,135,144,139,147,139,129,127,130,153,141,135,125,159,146,127,173,147,154,130,128,130,131,154,133,137,143,130,,135,134,149,136,j,j,499.313554321,1,1,115,458
distr_stats_triangular,1,m,29,1,114,1,84,32,152,tri_left,15,-68,-68,143,174,178,176,149,127,145,140,133,150,136,137,152,133,146,126,147,130,147,129,136,127,161,138,140,137,136,131,134,164,136,165,,151,140,140,j,j,405.389178419,1,1,115,459
distr_stats_triangular,1,m,29,1,114,2,84,7,152,tri_left,15,-68,-68,149,165,145,152,167,122,157,,161,167,158,162,144,146,127,169,150,132,166,135,133,127,151,146,137,162,174,133,124,157,137,131,149,169,139,134,j,j,436.818916913,1,1,115,460
distr_stats_triangular,1,m,29,1,114,3,84,4,152,tri_left,15,-68,-68,164,132,142,140,,159,155,149,139,158,134,156,129,133,127,129,135,162,154,131,129,150,135,169,143,157,128,164,140,129,127,138,127,144,143,130,i,i,2293.3042247,1,1,115,461
distr_stats_triangular,1,m,29,1,114,4,84,8,152,tri_left,15,-68,-68,128,146,143,159,160,142,152,138,,144,136,158,163,152,136,170,168,150,158,149,124,147,146,139,149,130,143,136,140,130,154,136,138,141,148,139,j,j,514.570815729,1,1,115,462
distr_stats_triangular,1,m,29,1,115,0,95,20,12,norm,10,83,-57,14,172,14,179,25,9,2,9,23,17,12,5,24,5,14,12,169,11,17,4,,17,1,11,8,13,11,4,20,28,169,5,7,19,5,173,j,j,405.928554326,1,1,116,463
distr_stats_triangular,1,m,29,1,115,1,95,11,12,norm,10,83,-57,29,22,5,19,179,15,4,9,10,16,32,,19,4,175,4,18,171,14,21,21,13,3,5,18,20,9,6,175,12,8,8,11,1,1,15,i,i,405.5886485,1,1,116,464
distr_stats_triangular,1,m,29,1,115,2,95,32,12,norm,10,83,-57,12,14,178,3,14,11,8,27,27,7,172,176,20,20,12,176,28,22,13,6,8,4,0,20,13,33,32,21,6,7,30,20,,4,179,17,j,j,405.716984033,1,1,116,465
distr_stats_triangular,1,m,29,1,116,0,129,13,52,tri_left,15,77,-63,31,39,51,34,44,37,31,50,51,30,40,29,37,,31,64,42,44,24,49,57,40,32,51,44,25,25,63,39,47,51,36,66,26,53,25,j,j,436.818916913,1,1,117,466
