manip,subject,session,order,mm,tm,trialType,iti,fixDur,stimDur,nBlock,nTrial,alpha,present,targType,nItems,resp,acc,rt,confidence,estNItems,estTime,confidenceRT,estNItemsRT,estTimeRT,RecRT,Erreur,Rec2Type,RecRT2,Rec2,couleur,Prime,CordCible,CordPrime,Yes/No,AV/AP,Diff,PostTest,DiffTime,RECORDING_SESSION_LABEL,AVERAGE_FIXATION_DURATION,AVERAGE_SACCADE_AMPLITUDE,BUTTON_PRESS_COUNT,DURATION,FIXATION_COUNT,SACCADE_COUNT,training,task,trialId
vs12,hugo,4,2,17-janv-13,1454,Ent1,500,400,2000,1,1,3.79721770073,0,L,4,a,1,340,,,,,,,,,,,,Rouge,0,3,0,0,,,0,1758,HUGO,222.14,5.78,2,1894,7,6,0,L among T,1
vs12,hugo,4,2,17-janv-13,1454,Ent1,500,400,2000,1,2,0.518255832522,0,X,4,N,0,1500,,,,,,,,,,,,Rouge,0,4,0,0,,,0,784,HUGO,203.5,5.83,2,920,4,3,0,X among T,2
vs12,hugo,4,2,17-janv-13,1454,Ent1,500,400,2000,1,3,2.03017224423,1,L,8,N,0,1500,,,,,,,,,,,,Rouge,0,7,0,0,,,0,0,HUGO,182.18,6.91,2,3149,11,10,0,L among T,3
vs12,hugo,4,2,17-janv-13,1454,Ent1,500,400,2000,1,4,2.44388932911,1,L,4,a,1,642,,,,,,,,,,,,Rouge,0,1,0,0,,,0,1358,HUGO,174.57,7.73,2,1492,7,6,0,L among T,4
vs12,hugo,4,2,17-janv-13,1454,Ent1,500,400,2000,1,5,2.30189103224,0,X,8,a,1,736,,,,,,,,,,,,Rouge,0,7,0,0,,,0,1308,HUGO,173.14,6.53,2,1444,7,6,0,X among T,5
vs12,hugo,4,2,17-janv-13,1454,Ent1,500,400,2000,1,6,3.18943221214,1,L,16,a,1,655,,,,,,,,,,,,Rouge,0,15,0,0,,,0,868,HUGO,173.8,3.48,2,1002,5,4,0,L among T,6
vs12,hugo,4,2,17-janv-13,1454,Ent1,500,400,2000,1,7,4.15596475355,0,X,16,z,1,347,,,,,,,,,,,,Vert,0,15,0,0,,,0,1440,HUGO,82.33,13.67,2,1574,3,2,0,X among T,7
vs12,hugo,4,2,17-janv-13,1454,Ent1,500,400,2000,1,8,5.33182196658,0,L,8,z,1,452,,,,,,,,,,,,Vert,0,8,0,0,,,0,994,HUGO,185.6,0,2,1133,5,5,0,L among T,8
vs12,hugo,4,2,17-janv-13,1454,Ent1,500,400,2000,1,9,3.15460290398,1,X,8,z,1,314,,,,,,,,,,,,Vert,0,4,0,0,,,0,1539,HUGO,163,6.27,2,1673,8,8,0,X among T,9
vs12,hugo,4,2,17-janv-13,1454,Ent1,500,400,2000,1,10,0.0102878127692,1,X,4,z,1,294,,,,,,,,,,,,Vert,0,2,0,0,,,0,1249,HUGO,281,2.41,2,1383,4,3,0,X among T,10
vs12,hugo,4,2,17-janv-13,1455,Ent1,500,400,2000,1,11,2.52364028597,1,X,16,a,1,309,,,,,,,,,,,,Rouge,0,14,0,0,,,0,1959,HUGO,176.88,0,0,2096,8,8,0,X among T,11
vs12,hugo,4,2,17-janv-13,1455,Ent1,500,400,2000,1,12,2.95380074476,0,L,16,a,1,632,,,,,,,,,,,,Rouge,0,11,0,0,,,0,1725,HUGO,200,4.92,2,1863,6,5,0,L among T,12
vs12,hugo,4,2,17-janv-13,1455,Ent1,500,400,2000,1,1,3.4648317935,0,L,4,a,1,310,,,,,,,,,,,,Rouge,0,4,0,0,,,0,384,HUGO,216,7.54,2,520,2,1,0,L among T,13
vs12,hugo,4,2,17-janv-13,1455,Ent1,500,400,2000,1,2,4.20944891868,0,X,4,a,1,821,,,,,,,,,,,,Rouge,0,4,0,0,,,0,677,HUGO,172.5,2.28,2,812,4,4,0,X among T,14
vs12,hugo,4,2,17-janv-13,1455,Ent1,500,400,2000,1,3,4.96645790255,1,L,8,a,1,589,,,,,,,,,,,,Rouge,0,6,0,0,,,0,981,HUGO,183.5,0,2,1119,4,4,0,L among T,15
vs12,hugo,4,2,17-janv-13,1455,Ent1,500,400,2000,1,4,5.94580694819,1,L,4,a,1,561,,,,,,,,,,,,Rouge,0,1,0,0,,,0,1351,HUGO,248.8,2.02,2,1486,5,4,0,L among T,16
vs12,hugo,4,2,17-janv-13,1455,Ent1,500,400,2000,1,5,3.74375134784,0,X,8,N,0,1500,,,,,,,,,,,,Rouge,0,7,0,0,,,0,0,HUGO,235.36,6.48,2,3151,11,10,0,X among T,17
vs12,hugo,4,2,17-janv-13,1455,Ent1,500,400,2000,1,6,2.68901803594,1,L,16,N,0,1500,,,,,,,,,,,,Rouge,0,14,0,0,,,0,0,HUGO,175.17,7.36,2,3143,12,12,0,L among T,18
vs12,hugo,4,2,17-janv-13,1455,Ent1,500,400,2000,1,7,2.91635480993,0,X,16,a,1,926,,,,,,,,,,,,Rouge,0,3,0,0,,,0,594,HUGO,206.67,12.24,2,733,3,2,0,X among T,19
vs12,hugo,4,2,17-janv-13,1455,Ent1,500,400,2000,1,8,1.36958307816,0,L,8,N,0,1500,,,,,,,,,,,,Rouge,0,3,0,0,,,0,0,HUGO,202.5,6.93,2,3152,12,11,0,L among T,20
vs12,hugo,4,2,17-janv-13,1455,Ent1,500,400,2000,1,9,3.35947294542,1,X,8,z,1,591,,,,,,,,,,,,Vert,0,2,0,0,,,0,2413,HUGO,212.44,4.88,2,2547,9,8,0,X among T,21
vs12,hugo,4,2,17-janv-13,1455,Ent1,500,400,2000,1,10,0.8619108329,1,X,4,z,1,452,,,,,,,,,,,,Vert,0,2,0,0,,,0,686,HUGO,197.67,4.83,2,823,3,2,0,X among T,22
vs12,hugo,4,2,17-janv-13,1456,Ent1,500,400,2000,1,11,4.7812484743,1,X,16,a,1,585,,,,,,,,,,,,Rouge,0,3,0,0,,,0,1220,HUGO,206.2,5.4,2,1355,5,4,0,X among T,23
vs12,hugo,4,2,17-janv-13,1456,Ent1,500,400,2000,1,12,5.41181200204,0,L,16,N,0,1500,,,,,,,,,,,,Rouge,0,9,0,0,,,0,0,HUGO,216.88,0,2,3146,8,8,0,L among T,24
vs12,hugo,4,2,17-janv-13,1456,Ent1,500,400,2000,1,1,5.07596852071,0,L,4,a,1,739,,,,,,,,,,,,Rouge,0,4,0,0,,,0,852,HUGO,228,0,2,989,3,3,0,L among T,25
vs12,hugo,4,2,17-janv-13,1456,Ent1,500,400,2000,1,2,4.56190809531,0,X,4,a,1,454,,,,,,,,,,,,Rouge,0,4,0,0,,,0,772,HUGO,123.8,7.43,2,906,5,4,0,X among T,26
vs12,hugo,4,2,17-janv-13,1456,Ent1,500,400,2000,1,3,2.02641104967,1,L,8,z,1,590,,,,,,,,,,,,Vert,0,5,0,0,,,0,804,HUGO,188.5,0,2,939,4,4,0,L among T,27
vs12,hugo,4,2,17-janv-13,1456,Ent1,500,400,2000,1,4,1.48727925126,1,L,4,z,1,601,,,,,,,,,,,,Vert,0,4,0,0,,,0,826,HUGO,286.67,5.53,2,961,3,3,0,L among T,28
vs12,hugo,4,2,17-janv-13,1456,Ent1,500,400,2000,1,5,3.17907737696,0,X,8,a,1,506,,,,,,,,,,,,Rouge,0,1,0,0,,,0,1458,HUGO,141.86,4.63,2,1594,7,6,0,X among T,29
vs12,hugo,4,2,17-janv-13,1456,Ent1,500,400,2000,1,6,1.15392134649,1,L,16,N,0,1500,,,,,,,,,,,,Vert,0,9,0,0,,,0,0,HUGO,192.38,4.07,0,3143,13,12,0,L among T,30
vs12,hugo,4,2,17-janv-13,1456,Ent1,500,400,2000,1,7,4.41167172715,0,X,16,z,1,474,,,,,,,,,,,,Vert,0,12,0,0,,,0,1957,HUGO,188.56,4.02,2,2091,9,8,0,X among T,31
vs12,hugo,4,2,17-janv-13,1456,Ent1,500,400,2000,1,8,5.91991001504,0,L,8,a,1,626,,,,,,,,,,,,Rouge,0,4,0,0,,,0,1496,HUGO,201,5.25,2,1633,6,5,0,L among T,32
vs12,hugo,4,2,17-janv-13,1456,Ent1,500,400,2000,1,9,4.45114880258,1,X,8,z,1,495,,,,,,,,,,,,Vert,0,7,0,0,,,0,663,HUGO,120.5,4.84,2,797,4,4,0,X among T,33
vs12,hugo,4,2,17-janv-13,1456,Ent1,500,400,2000,1,10,2.41508482013,1,X,4,z,1,547,,,,,,,,,,,,Vert,0,3,0,0,,,0,580,HUGO,214,3.55,2,715,3,2,0,X among T,34
vs12,hugo,4,2,17-janv-13,1457,Ent1,500,400,2000,1,11,1.30099562847,1,X,16,a,1,858,,,,,,,,,,,,Rouge,0,6,0,0,,,0,1312,HUGO,187.33,5.85,2,1449,6,5,0,X among T,35
vs12,hugo,4,2,17-janv-13,1457,Ent1,500,400,2000,1,12,1.86362179419,0,L,16,z,1,624,,,,,,,,,,,,Vert,0,12,0,0,,,0,0,HUGO,179.71,0,2,3150,14,14,0,L among T,36
vs12,hugo,4,2,17-janv-13,1459,Ent2,500,400,2000,1,1,1.09674112975,0,L,8,N,0,1500,,,,,,,,,A,10390,2,Vert,0,8,0,0,,,0,0,HUGO,230.73,4.74,2,3152,11,10,0,L among T,37
vs12,hugo,4,2,17-janv-13,1459,Ent2,500,400,2000,1,2,3.61091543997,1,L,16,N,0,1500,,,,,,,,,C,3793,6,Vert,0,15,0,0,,,0,0,HUGO,222.33,5.71,2,3147,12,12,0,L among T,38
vs12,hugo,4,2,17-janv-13,1459,Ent2,500,400,2000,1,3,4.3009704765,1,X,8,z,1,718,,,,,,,,,A,3330,2,Vert,0,6,0,0,,,0,1426,HUGO,177.86,8.06,2,1560,7,7,0,X among T,39
vs12,hugo,4,2,17-janv-13,1459,Ent2,500,400,2000,1,4,2.94671980859,0,L,4,a,1,961,,,,,,,,,A,3897,2,Rouge,0,3,0,0,,,0,2604,HUGO,255.89,6.08,0,2743,9,8,0,L among T,40
vs12,hugo,4,2,17-janv-13,1459,Ent2,500,400,2000,1,5,1.42481817881,0,X,16,N,0,1500,,,,,,,,,A,6109,3,Vert,0,16,0,0,,,0,0,HUGO,262.7,4.39,2,3149,10,9,0,X among T,41
vs12,hugo,4,2,17-janv-13,1500,Ent2,500,400,2000,1,6,3.0675907285,1,L,8,z,1,547,,,,,,,,,A,2274,2,Vert,0,7,0,0,,,0,2576,HUGO,239.89,4.11,2,2711,9,8,0,L among T,42
vs12,hugo,4,2,17-janv-13,1500,Ent2,500,400,2000,1,7,4.23199325265,1,X,16,z,1,581,,,,,,,,,B,2553,4,Vert,0,2,0,0,,,0,1877,HUGO,325.8,0,2,2015,5,5,0,X among T,43
vs12,hugo,4,2,17-janv-13,1500,Ent2,500,400,2000,1,8,6.04086434943,0,L,16,a,1,536,,,,,,,,,A,2148,2,Rouge,0,10,0,0,,,0,1613,HUGO,292,3.87,2,1748,5,4,0,L among T,44
vs12,hugo,4,2,17-janv-13,1500,Ent2,500,400,2000,1,9,5.47580155993,0,X,4,a,1,394,,,,,,,,,C,1914,6,Rouge,0,2,0,0,,,0,1010,HUGO,186.8,6.55,2,1147,5,4,0,X among T,45
vs12,hugo,4,2,17-janv-13,1500,Ent2,500,400,2000,1,10,3.28486766388,1,L,4,z,1,868,,,,,,,,,C,1877,6,Vert,0,1,0,0,,,0,0,HUGO,457.5,3.71,2,3147,6,5,0,L among T,46
vs12,hugo,4,2,17-janv-13,1500,Ent2,500,400,2000,1,11,2.60349656182,0,X,8,z,1,513,,,,,,,,,A,3916,3,Vert,0,4,0,0,,,0,0,HUGO,250.8,4.53,2,3150,10,9,0,X among T,47
vs12,hugo,4,2,17-janv-13,1500,Ent2,500,400,2000,1,12,3.73997991036,1,X,4,N,0,1500,,,,,,,,,A,7350,3,Vert,0,3,0,0,,,0,0,HUGO,299.5,2.84,2,3146,8,7,0,X among T,48
vs12,hugo,4,2,17-janv-13,1502,mixed,500,400,2000,1,1,0.933657822723,0,X,4,N,0,1500,,,,,,,,,A,6570,2,Rouge,0,3,0,0,,,0,0,HUGO,329.12,16.51,2,3174,8,8,0,X among T,49
vs12,hugo,4,2,17-janv-13,1502,mixed,500,400,2000,1,2,4.32166401431,0,L,4,a,1,268,,,,,,,,,A,2107,0,Rouge,0,4,0,0,,,0,565,HUGO,154,1.93,2,702,4,3,0,L among T,50
vs12,hugo,4,2,17-janv-13,1503,mixed,500,400,2000,1,3,5.28133721891,0,L,8,z,1,298,,,,,,,,,C,2412,6,Vert,0,4,0,0,,,0,1193,HUGO,187.5,6.02,2,1326,6,5,0,L among T,51
vs12,hugo,4,2,17-janv-13,1503,mixed,500,400,2000,1,4,0.290766773088,0,X,4,z,1,306,,,,,,,,,D,1757,9,Vert,0,3,0,0,,,0,1192,HUGO,185.33,7.3,0,1327,6,5,0,X among T,52
vs12,hugo,4,2,17-janv-13,1503,mixed,500,400,2000,1,5,1.19440863277,0,L,16,N,0,1500,,,,,,,,,D,1419,9,Vert,0,15,0,0,,,0,0,HUGO,187.43,6.22,2,3146,14,13,0,L among T,53
vs12,hugo,4,2,17-janv-13,1503,mixed,500,400,2000,1,6,2.43825613297,0,L,4,z,1,626,,,,,,,,,C,2249,6,Vert,0,2,0,0,,,0,911,HUGO,175,5.06,2,1048,4,4,0,L among T,54
vs12,hugo,4,2,17-janv-13,1503,mixed,500,400,2000,1,7,3.40823776204,0,X,16,a,1,561,,,,,,,,,D,2157,9,Rouge,0,4,0,0,,,0,2385,HUGO,222.3,4.23,2,2521,10,9,0,X among T,55
vs12,hugo,4,2,17-janv-13,1503,mixed,500,400,2000,1,8,4.56716339122,1,L,16,a,1,891,,,,,,,,,C,1784,6,Rouge,0,10,0,0,,,0,1992,HUGO,209.11,4.64,2,2126,9,8,0,L among T,56
vs12,hugo,4,2,17-janv-13,1503,mixed,500,400,2000,1,9,0.309924708751,1,X,8,a,1,369,,,,,,,,,A,2154,3,Rouge,0,2,0,0,,,0,988,HUGO,252.75,5.03,2,1125,4,3,0,X among T,57
vs12,hugo,4,2,17-janv-13,1503,mixed,500,400,2000,1,10,3.53989029726,0,X,4,a,1,415,,,,,,,,,A,2268,1,Rouge,0,1,0,0,,,0,1192,HUGO,274,5.15,0,1331,4,3,0,X among T,58
vs12,hugo,4,2,17-janv-13,1503,mixed,500,400,2000,1,11,2.52977647609,1,X,8,a,1,934,,,,,,,,,A,1567,2,Rouge,0,8,0,0,,,0,1543,HUGO,368.5,4.29,2,1680,4,3,0,X among T,59
vs12,hugo,4,2,17-janv-13,1503,mixed,500,400,2000,1,12,3.75677399524,1,L,4,z,1,339,,,,,,,,,A,2041,2,Vert,0,3,0,0,,,0,662,HUGO,319,7.68,2,799,2,1,0,L among T,60
vs12,hugo,4,2,17-janv-13,1504,mixed,500,400,2000,1,13,6.03717928386,0,L,8,a,1,250,,,,,,,,,A,3001,1,Rouge,0,3,0,0,,,0,1007,HUGO,224.25,3.04,2,1145,4,3,0,L among T,61
vs12,hugo,4,2,17-janv-13,1504,mixed,500,400,2000,1,14,4.76360104613,1,L,4,z,1,338,,,,,,,,,A,6357,2,Vert,0,2,0,0,,,0,630,HUGO,231.67,3.34,2,763,3,2,0,L among T,62
vs12,hugo,4,2,17-janv-13,1504,mixed,500,400,2000,1,15,3.08047440848,0,X,16,z,1,1067,,,,,,,,,C,1419,7,Vert,0,6,0,0,,,0,2158,HUGO,198.6,4.47,2,2291,10,9,0,X among T,63
vs12,hugo,4,2,17-janv-13,1504,mixed,500,400,2000,1,16,0.517833290992,0,X,16,z,1,696,,,,,,,,,A,1166,1,Vert,0,12,0,0,,,0,988,HUGO,177,5.18,0,1126,5,4,0,X among T,64
vs12,hugo,4,2,17-janv-13,1504,mixed,500,400,2000,1,17,0.18355601071,0,L,16,a,1,437,,,,,,,,,A,1084,0,Rouge,0,11,0,0,,,0,851,HUGO,222.75,3.76,2,990,4,3,0,L among T,65
vs12,hugo,4,2,17-janv-13,1504,mixed,500,400,2000,1,18,2.2772140737,1,L,4,a,1,714,,,,,,,,,A,1190,0,Rouge,0,4,0,0,,,0,458,HUGO,269.5,7.81,2,591,2,1,0,L among T,66
vs12,hugo,4,2,17-janv-13,1504,mixed,500,400,2000,1,19,2.59210011704,1,L,16,a,1,511,,,,,,,,,A,1531,2,Rouge,0,4,0,0,,,0,876,HUGO,227.75,3.56,2,1012,4,3,0,L among T,67
vs12,hugo,4,2,17-janv-13,1504,mixed,500,400,2000,1,20,4.24663966058,0,L,4,a,1,476,,,,,,,,,A,1862,0,Rouge,0,3,0,0,,,0,666,HUGO,242.33,3.59,2,800,3,2,0,L among T,68
vs12,hugo,4,2,17-janv-13,1504,mixed,500,400,2000,1,21,3.42896964216,0,X,8,z,1,529,,,,,,,,,A,2653,3,Vert,0,8,0,0,,,0,1229,HUGO,184.83,6.03,2,1367,6,5,0,X among T,69
vs12,hugo,4,2,17-janv-13,1505,mixed,500,400,2000,1,22,4.69285817705,1,X,4,a,1,373,,,,,,,,,A,1402,0,Rouge,0,3,0,0,,,0,547,HUGO,202,3.8,2,681,3,2,0,X among T,70
vs12,hugo,4,2,17-janv-13,1505,mixed,500,400,2000,1,23,1.65230472178,1,L,16,z,1,497,,,,,,,,,A,1336,1,Vert,0,16,0,0,,,0,776,HUGO,156.6,4.22,2,913,5,4,0,L among T,71
vs12,hugo,4,2,17-janv-13,1505,mixed,500,400,2000,1,24,0.89646314694,1,X,8,z,1,345,,,,,,,,,A,4728,3,Vert,0,8,0,0,,,0,1056,HUGO,208.6,5.52,2,1193,5,4,0,X among T,72
vs12,hugo,4,2,17-janv-13,1505,mixed,500,400,2000,1,25,2.36530147626,1,L,8,z,1,588,,,,,,,,,A,1968,0,Vert,0,7,0,0,,,0,448,HUGO,227,4.19,2,586,2,1,0,L among T,73
vs12,hugo,4,2,17-janv-13,1505,mixed,500,400,2000,1,26,2.32995376396,0,L,8,z,1,729,,,,,,,,,A,1525,0,Vert,0,6,0,0,,,0,617,HUGO,225.33,4.36,2,753,3,2,0,L among T,74
vs12,hugo,4,2,17-janv-13,1505,mixed,500,400,2000,1,27,5.56201373569,1,X,4,z,1,464,,,,,,,,,B,2036,4,Vert,0,2,0,0,,,0,773,HUGO,245.33,6.15,2,910,3,2,0,X among T,75
vs12,hugo,4,2,17-janv-13,1505,mixed,500,400,2000,1,28,1.79879349364,1,X,16,a,1,629,,,,,,,,,A,3117,3,Rouge,0,13,0,0,,,0,1992,HUGO,203.33,4.87,2,2129,9,9,0,X among T,76
vs12,hugo,4,2,17-janv-13,1505,mixed,500,400,2000,1,29,0.964709639817,0,X,8,z,1,982,,,,,,,,,A,1819,2,Vert,0,7,0,0,,,0,976,HUGO,310.67,4.59,2,1110,3,2,0,X among T,77
vs12,hugo,4,2,17-janv-13,1505,mixed,500,400,2000,1,30,4.2741724328,1,X,16,z,1,1281,,,,,,,,,A,3747,2,Vert,0,14,0,0,,,0,1412,HUGO,363.75,3.79,2,1550,4,3,0,X among T,78
vs12,hugo,4,2,17-janv-13,1506,mixed,500,400,2000,1,31,0.502042686662,0,X,8,z,1,469,,,,,,,,,A,1738,0,Vert,0,3,0,0,,,0,579,HUGO,155,3.46,2,714,4,3,0,X among T,79
vs12,hugo,4,2,17-janv-13,1506,mixed,500,400,2000,1,32,0.401691604622,1,X,4,a,1,402,,,,,,,,,A,1517,0,Rouge,0,3,0,0,,,0,634,HUGO,231.67,3.82,0,771,3,2,0,X among T,80
vs12,hugo,4,2,17-janv-13,1506,mixed,500,400,2000,1,33,3.7316149479,1,X,16,a,1,398,,,,,,,,,A,1822,1,Rouge,0,1,0,0,,,0,573,HUGO,205.33,6.08,2,706,3,2,0,X among T,81
vs12,hugo,4,2,17-janv-13,1506,mixed,500,400,2000,1,34,2.22367448201,1,L,8,z,1,374,,,,,,,,,C,1338,6,Vert,0,8,0,0,,,0,1409,HUGO,271.2,5.12,2,1547,5,5,0,L among T,82
vs12,hugo,4,2,17-janv-13,1506,mixed,500,400,2000,1,35,4.85120015796,1,L,8,a,1,509,,,,,,,,,A,1494,0,Rouge,0,5,0,0,,,0,468,HUGO,276.5,6.42,2,602,2,1,0,L among T,83
vs12,hugo,4,2,17-janv-13,1506,mixed,500,400,2000,1,36,1.53929786782,0,L,16,z,0,452,,,,,,,,,A,4239,1,Rouge,0,9,0,0,,,0,779,HUGO,275,5.17,2,913,3,2,0,L among T,84
vs12,hugo,4,2,17-janv-13,1509,mixed,500,400,2000,2,1,2.92524598019,0,X,16,N,0,1500,,,,,,,,,A,1960,1,Rouge,0,3,0,0,,,0,0,HUGO,202.75,13.62,2,3170,8,7,0,X among T,85
vs12,hugo,4,2,17-janv-13,1509,mixed,500,400,2000,2,2,4.74849133071,0,L,4,z,1,652,,,,,,,,,A,2552,0,Vert,0,2,0,0,,,0,503,HUGO,292.5,8.31,2,640,2,1,0,L among T,86
vs12,hugo,4,2,17-janv-13,1509,mixed,500,400,2000,2,3,5.00997777728,1,L,16,z,1,1170,,,,,,,,,C,3309,6,Vert,0,11,0,0,,,0,1294,HUGO,203.17,6.44,2,1427,6,5,0,L among T,87
vs12,hugo,4,2,17-janv-13,1509,mixed,500,400,2000,2,4,2.39736443949,0,L,8,a,1,405,,,,,,,,,A,1872,2,Rouge,0,1,0,0,,,0,667,HUGO,372,9.36,2,801,2,1,0,L among T,88
vs12,hugo,4,2,17-janv-13,1509,mixed,500,400,2000,2,5,3.36640490148,0,X,8,z,1,630,,,,,,,,,A,1793,1,Vert,0,7,0,0,,,0,712,HUGO,238.33,0,2,847,3,3,0,X among T,89
vs12,hugo,4,2,17-janv-13,1509,mixed,500,400,2000,2,6,3.39980294277,0,X,16,a,1,562,,,,,,,,,A,1518,0,Rouge,0,8,0,0,,,0,551,HUGO,207.67,3.37,2,687,3,2,0,X among T,90
vs12,hugo,4,2,17-janv-13,1510,mixed,500,400,2000,2,7,0.333785197017,1,L,16,z,1,652,,,,,,,,,C,1510,6,Vert,0,16,0,0,,,0,1899,HUGO,189.33,5.25,0,2035,9,9,0,L among T,91
vs12,hugo,4,2,17-janv-13,1510,mixed,500,400,2000,2,8,4.34961135814,1,X,16,z,1,456,,,,,,,,,B,3304,5,Vert,0,7,0,0,,,0,1215,HUGO,199,3.36,2,1349,6,5,0,X among T,92
vs12,hugo,4,2,17-janv-13,1510,mixed,500,400,2000,2,9,5.7679851688,1,X,8,a,1,510,,,,,,,,,A,1534,3,Rouge,0,4,0,0,,,0,943,HUGO,282.67,5.93,0,1080,3,2,0,X among T,93
vs12,hugo,4,2,17-janv-13,1510,mixed,500,400,2000,2,10,4.67759700689,1,L,4,a,1,446,,,,,,,,,C,2790,7,Rouge,0,4,0,0,,,0,806,HUGO,266.67,4.8,2,944,3,2,0,L among T,94
vs12,hugo,4,2,17-janv-13,1510,mixed,500,400,2000,2,11,4.24409926684,1,L,4,z,1,379,,,,,,,,,A,1231,2,Vert,0,1,0,0,,,0,808,HUGO,182,5.74,2,943,4,3,0,L among T,95
vs12,hugo,4,2,17-janv-13,1510,mixed,500,400,2000,2,12,5.05227316963,0,L,4,a,1,319,,,,,,,,,B,1514,5,Rouge,0,2,0,0,,,0,507,HUGO,179.33,10.16,2,643,3,2,0,L among T,96
vs12,hugo,4,2,17-janv-13,1510,mixed,500,400,2000,2,13,3.0879331769,0,X,8,z,1,743,,,,,,,,,A,1774,3,Vert,0,7,0,0,,,0,1076,HUGO,270.25,6.18,2,1211,4,3,0,X among T,97
vs12,hugo,4,2,17-janv-13,1510,mixed,500,400,2000,2,14,5.67723811931,0,L,16,a,1,1379,,,,,,,,,C,2133,6,Rouge,0,5,0,0,,,0,2221,HUGO,222.89,6.6,2,2353,9,8,0,L among T,98
vs12,hugo,4,2,17-janv-13,1510,mixed,500,400,2000,2,15,5.46179848512,0,L,8,z,1,514,,,,,,,,,A,1204,3,Vert,0,7,0,0,,,0,1123,HUGO,220,5.47,2,1261,5,4,0,L among T,99
vs12,hugo,4,2,17-janv-13,1510,mixed,500,400,2000,2,16,2.01734181775,0,L,4,a,1,335,,,,,,,,,A,2151,0,Rouge,0,1,0,0,,,0,390,HUGO,232.5,7.31,2,525,2,1,0,L among T,100
vs12,hugo,4,2,17-janv-13,1511,mixed,500,400,2000,2,17,3.91634417199,1,X,4,a,1,533,,,,,,,,,A,1418,0,Rouge,0,3,0,0,,,0,643,HUGO,234.33,3.97,2,778,3,2,0,X among T,101
vs12,hugo,4,2,17-janv-13,1511,mixed,500,400,2000,2,18,4.54175724836,1,L,8,a,1,362,,,,,,,,,B,2571,5,Rouge,0,5,0,0,,,0,1489,HUGO,204.71,4.29,2,1626,7,6,0,L among T,102
vs12,hugo,4,2,17-janv-13,1511,mixed,500,400,2000,2,19,1.47205148964,0,X,4,z,1,447,,,,,,,,,A,1839,0,Vert,0,1,0,0,,,0,469,HUGO,258,2.85,2,603,2,2,0,X among T,103
vs12,hugo,4,2,17-janv-13,1511,mixed,500,400,2000,2,20,0.302551100417,1,L,8,a,1,358,,,,,,,,,A,2938,1,Rouge,0,8,0,0,,,0,759,HUGO,271.67,5.34,2,898,3,2,0,L among T,104
vs12,hugo,4,2,17-janv-13,1511,mixed,500,400,2000,2,21,0.0199900881827,0,X,16,a,1,976,,,,,,,,,A,3291,3,Rouge,0,4,0,0,,,0,950,HUGO,224.25,5.74,0,1086,4,3,0,X among T,105
vs12,hugo,4,2,17-janv-13,1511,mixed,500,400,2000,2,22,0.450868775081,0,X,4,z,1,447,,,,,,,,,A,4487,2,Vert,0,4,0,0,,,0,427,HUGO,248.5,12.55,2,563,2,1,0,X among T,106
vs12,hugo,4,2,17-janv-13,1511,mixed,500,400,2000,2,23,3.49650789624,1,X,8,z,1,446,,,,,,,,,A,1510,1,Vert,0,5,0,0,,,0,593,HUGO,211,4.33,2,727,3,2,0,X among T,107
vs12,hugo,4,2,17-janv-13,1511,mixed,500,400,2000,2,24,1.84267174706,1,X,4,z,1,348,,,,,,,,,C,1057,6,Vert,0,4,0,0,,,0,517,HUGO,189,4.99,2,653,3,2,0,X among T,108
vs12,hugo,4,2,17-janv-13,1511,mixed,500,400,2000,2,25,5.27128273754,0,X,8,a,1,624,,,,,,,,,A,3204,1,Rouge,0,3,0,0,,,0,611,HUGO,212.67,2.3,2,749,3,3,0,X among T,109
vs12,hugo,4,2,17-janv-13,1512,mixed,500,400,2000,2,26,2.30729737417,0,L,16,a,1,1318,,,,,,,,,D,2023,8,Rouge,0,15,0,0,,,0,2429,HUGO,218.4,6.12,2,2565,10,10,0,L among T,110
vs12,hugo,4,2,17-janv-13,1512,mixed,500,400,2000,2,27,6.11363776425,1,L,8,a,1,872,,,,,,,,,A,1443,3,Rouge,0,4,0,0,,,0,586,HUGO,206.33,9.77,2,720,3,2,0,L among T,111
vs12,hugo,4,2,17-janv-13,1512,mixed,500,400,2000,2,28,4.55758955102,1,X,16,a,1,497,,,,,,,,,A,1170,1,Rouge,0,12,0,0,,,0,671,HUGO,225.67,5.47,2,808,3,3,0,X among T,112
vs12,hugo,4,2,17-janv-13,1512,mixed,500,400,2000,2,29,2.23429776976,0,X,4,z,1,543,,,,,,,,,A,1706,0,Vert,0,1,0,0,,,0,451,HUGO,253,4.14,2,587,2,2,0,X among T,113
vs12,hugo,4,2,17-janv-13,1512,mixed,500,400,2000,2,30,5.18673827365,1,X,16,z,1,966,,,,,,,,,A,1551,0,Vert,0,2,0,0,,,0,578,HUGO,214,4.05,0,714,3,2,0,X among T,114
vs12,hugo,4,2,17-janv-13,1512,mixed,500,400,2000,2,31,1.99833481914,1,L,16,a,1,495,,,,,,,,,A,1340,2,Rouge,0,11,0,0,,,0,1496,HUGO,248.5,2.72,2,1629,6,5,0,L among T,115
vs12,hugo,4,2,17-janv-13,1512,mixed,500,400,2000,2,32,0.468922250687,1,L,4,z,1,314,,,,,,,,,B,3306,5,Vert,0,4,0,0,,,0,796,HUGO,202.75,5.69,2,930,4,3,0,L among T,116
vs12,hugo,4,2,17-janv-13,1512,mixed,500,400,2000,2,33,5.09188014031,1,X,4,a,1,316,,,,,,,,,A,1738,2,Rouge,0,3,0,0,,,0,894,HUGO,231.75,5.27,2,1030,4,3,0,X among T,117
vs12,hugo,4,2,17-janv-13,1512,mixed,500,400,2000,2,34,0.731099274113,1,X,8,a,1,322,,,,,,,,,A,2449,1,Rouge,0,7,0,0,,,0,863,HUGO,309,3.41,2,997,3,2,0,X among T,118
vs12,hugo,4,2,17-janv-13,1512,mixed,500,400,2000,2,35,2.50747599529,0,L,16,a,1,478,,,,,,,,,B,1158,5,Rouge,0,3,0,0,,,0,1597,HUGO,257,5.84,2,1733,6,5,0,L among T,119
vs12,hugo,4,2,17-janv-13,1513,mixed,500,400,2000,2,36,1.91989368865,0,L,8,z,1,473,,,,,,,,,A,2313,3,Vert,0,4,0,0,,,0,979,HUGO,246.25,5.51,2,1113,4,3,0,L among T,120
vs12,hugo,4,2,17-janv-13,1514,mixed,500,400,2000,3,1,0.726221305215,1,X,16,a,1,493,,,,,,,,,A,2191,3,Rouge,0,2,0,0,,,0,1831,HUGO,368.4,4.1,2,1988,5,4,0,X among T,121
vs12,hugo,4,2,17-janv-13,1514,mixed,500,400,2000,3,2,3.59019541075,0,L,8,a,1,709,,,,,,,,,D,1894,9,Rouge,0,8,0,0,,,0,1628,HUGO,176.38,5.18,2,1763,8,8,0,L among T,122
vs12,hugo,4,2,17-janv-13,1514,mixed,500,400,2000,3,3,0.799338512191,0,X,16,z,1,440,,,,,,,,,C,2261,6,Vert,0,6,0,0,,,0,1600,HUGO,257.5,5.54,2,1735,6,5,0,X among T,123
vs12,hugo,4,2,17-janv-13,1514,mixed,500,400,2000,3,4,5.80842177645,1,L,8,z,1,311,,,,,,,,,A,1008,2,Vert,0,8,0,0,,,0,613,HUGO,219.67,5.31,2,750,3,2,0,L among T,124
vs12,hugo,4,2,17-janv-13,1515,mixed,500,400,2000,3,5,1.49534825871,0,X,8,a,1,276,,,,,,,,,A,1999,1,Rouge,0,2,0,0,,,0,688,HUGO,175.75,5.21,2,824,4,3,0,X among T,125
vs12,hugo,4,2,17-janv-13,1515,mixed,500,400,2000,3,6,5.62971651263,1,X,8,z,1,456,,,,,,,,,A,1050,1,Vert,0,8,0,0,,,0,674,HUGO,176.25,3.46,2,810,4,3,0,X among T,126
vs12,hugo,4,2,17-janv-13,1515,mixed,500,400,2000,3,7,3.10526137198,1,X,16,z,1,351,,,,,,,,,A,1323,2,Vert,0,9,0,0,,,0,673,HUGO,175,4.61,2,808,4,3,0,X among T,127
vs12,hugo,4,2,17-janv-13,1515,mixed,500,400,2000,3,8,2.24279522753,1,L,16,z,1,484,,,,,,,,,A,1242,0,Vert,0,3,0,0,,,0,382,HUGO,239,3.68,2,516,2,1,0,L among T,128
vs12,hugo,4,2,17-janv-13,1515,mixed,500,400,2000,3,9,0.758875820379,1,L,16,a,1,419,,,,,,,,,A,1187,0,Rouge,0,3,0,0,,,0,516,HUGO,193.67,3.54,2,651,3,2,0,L among T,129
vs12,hugo,4,2,17-janv-13,1515,mixed,500,400,2000,3,10,0.727855005679,0,L,16,a,1,952,,,,,,,,,C,2576,6,Rouge,0,6,0,0,,,0,1887,HUGO,195.22,4.45,2,2021,9,8,0,L among T,130
vs12,hugo,4,2,17-janv-13,1515,mixed,500,400,2000,3,11,5.57239137812,1,X,4,z,1,622,,,,,,,,,B,3654,4,Vert,0,1,0,0,,,0,461,HUGO,271.5,8.25,2,601,2,1,0,X among T,131
vs12,hugo,4,2,17-janv-13,1515,mixed,500,400,2000,3,12,2.41964543608,1,L,8,a,1,563,,,,,,,,,B,3127,5,Rouge,0,5,0,0,,,0,1179,HUGO,189.17,4.75,2,1313,6,5,0,L among T,132
vs12,hugo,4,2,17-janv-13,1515,mixed,500,400,2000,3,13,1.40448337122,1,X,4,a,1,328,,,,,,,,,B,2197,4,Rouge,0,3,0,0,,,0,659,HUGO,242,3.05,2,796,3,2,0,X among T,133
vs12,hugo,4,2,17-janv-13,1515,mixed,500,400,2000,3,14,3.34183091733,0,L,4,a,1,311,,,,,,,,,D,1195,9,Rouge,0,2,0,0,,,0,887,HUGO,161.8,5.01,2,1022,5,4,0,L among T,134
vs12,hugo,4,2,17-janv-13,1516,mixed,500,400,2000,3,15,6.11081157423,0,X,16,a,1,487,,,,,,,,,B,2737,4,Rouge,0,4,0,0,,,0,1349,HUGO,185,4.39,2,1484,7,6,0,X among T,135
vs12,hugo,4,2,17-janv-13,1516,mixed,500,400,2000,3,16,1.76974809996,0,X,4,z,1,319,,,,,,,,,A,1666,0,Vert,0,3,0,0,,,0,563,HUGO,211,3.82,2,698,3,2,0,X among T,136
vs12,hugo,4,2,17-janv-13,1516,mixed,500,400,2000,3,17,5.47915693177,1,L,8,z,1,522,,,,,,,,,B,1737,4,Vert,0,6,0,0,,,0,1153,HUGO,259.25,6.35,2,1288,4,3,0,L among T,137
vs12,hugo,4,2,17-janv-13,1516,mixed,500,400,2000,3,18,1.57695919331,1,L,4,a,1,309,,,,,,,,,D,1699,9,Rouge,0,3,0,0,,,0,1179,HUGO,235.4,4.73,2,1317,5,4,0,L among T,138
vs12,hugo,4,2,17-janv-13,1516,mixed,500,400,2000,3,19,2.49807458367,0,X,4,z,1,360,,,,,,,,,B,3538,5,Vert,0,1,0,0,,,0,773,HUGO,278,4.45,2,908,3,2,0,X among T,139
vs12,hugo,4,2,17-janv-13,1516,mixed,500,400,2000,3,20,4.97156663625,0,X,16,a,1,670,,,,,,,,,D,1571,8,Rouge,0,13,0,0,,,0,1791,HUGO,208.5,3.82,2,1927,8,8,0,X among T,140
vs12,hugo,4,2,17-janv-13,1516,mixed,500,400,2000,3,21,6.23330124075,1,X,8,a,1,863,,,,,,,,,B,1912,4,Rouge,0,4,0,0,,,0,482,HUGO,265,8.17,2,619,2,1,0,X among T,141
vs12,hugo,4,2,17-janv-13,1516,mixed,500,400,2000,3,22,1.52108979652,0,L,16,a,1,415,,,,,,,,,D,833,8,Rouge,0,8,0,0,,,0,1400,HUGO,190.33,6.27,2,1535,6,5,0,L among T,142
vs12,hugo,4,2,17-janv-13,1516,mixed,500,400,2000,3,23,3.11582811506,0,X,8,a,1,262,,,,,,,,,B,1712,5,Rouge,0,3,0,0,,,0,555,HUGO,192.33,3.33,2,689,3,3,0,X among T,143
vs12,hugo,4,2,17-janv-13,1516,mixed,500,400,2000,3,24,0.802367952424,0,L,8,z,1,374,,,,,,,,,B,3273,5,Vert,0,5,0,0,,,0,590,HUGO,250.5,6.96,2,725,2,1,0,L among T,144
vs12,hugo,4,2,17-janv-13,1517,mixed,500,400,2000,3,25,0.903619901198,1,L,4,N,0,1500,,,,,,,,,C,1368,6,Vert,0,3,0,0,,,0,0,HUGO,578.6,3.14,2,3145,5,4,0,L among T,145
vs12,hugo,4,2,17-janv-13,1517,mixed,500,400,2000,3,26,5.00161362936,0,X,4,z,1,379,,,,,,,,,A,2156,3,Vert,0,1,0,0,,,0,995,HUGO,224,4.3,2,1127,4,3,0,X among T,146
vs12,hugo,4,2,17-janv-13,1517,mixed,500,400,2000,3,27,1.06786238052,0,L,4,z,1,685,,,,,,,,,C,1169,6,Vert,0,1,0,0,,,0,931,HUGO,202.75,2.74,2,1065,4,3,0,L among T,147
vs12,hugo,4,2,17-janv-13,1517,mixed,500,400,2000,3,28,4.05543768291,1,X,4,a,1,313,,,,,,,,,D,906,9,Rouge,0,3,0,0,,,0,728,HUGO,151.5,3.39,2,865,4,3,0,X among T,148
vs12,hugo,4,2,17-janv-13,1517,mixed,500,400,2000,3,29,4.21168048171,1,L,16,z,1,688,,,,,,,,,A,2259,3,Vert,0,7,0,0,,,0,1222,HUGO,427.67,4.53,2,1360,3,2,0,L among T,149
vs12,hugo,4,2,17-janv-13,1517,mixed,500,400,2000,3,30,0.20389315346,0,L,8,a,1,956,,,,,,,,,A,952,0,Rouge,0,5,0,0,,,0,557,HUGO,208,3.54,2,693,3,2,0,L among T,150
vs12,hugo,4,2,17-janv-13,1517,mixed,500,400,2000,3,31,1.19508990514,0,L,16,z,1,649,,,,,,,,,A,2579,1,Vert,0,11,0,0,,,0,533,HUGO,190,9.37,2,669,3,2,0,L among T,151
vs12,hugo,4,2,17-janv-13,1517,mixed,500,400,2000,3,32,3.31827821391,1,L,4,a,1,484,,,,,,,,,D,1035,9,Rouge,0,2,0,0,,,0,1496,HUGO,214,8.93,2,1634,6,5,0,L among T,152
vs12,hugo,4,2,17-janv-13,1517,mixed,500,400,2000,3,33,1.13013723658,1,X,16,z,1,1079,,,,,,,,,B,2129,4,Vert,0,13,0,0,,,0,1456,HUGO,233.17,6.37,2,1593,6,5,0,X among T,153
vs12,hugo,4,2,17-janv-13,1517,mixed,500,400,2000,3,34,1.93672751024,1,X,8,z,1,404,,,,,,,,,A,3020,1,Vert,0,4,0,0,,,0,585,HUGO,219.33,3.36,2,720,3,2,0,X among T,154
vs12,hugo,4,2,17-janv-13,1518,mixed,500,400,2000,3,35,1.46906092228,0,X,8,z,1,539,,,,,,,,,A,919,0,Vert,0,4,0,0,,,0,494,HUGO,188,3.26,2,628,3,2,0,X among T,155
vs12,hugo,4,2,17-janv-13,1518,mixed,500,400,2000,3,36,4.35779708577,0,L,4,z,1,722,,,,,,,,,C,2447,7,Vert,0,2,0,0,,,0,605,HUGO,340.5,7.14,2,742,2,1,0,L among T,156
vs12,hugo,4,2,17-janv-13,1519,mixed,500,400,2000,4,1,5.60140454259,1,L,4,a,1,584,,,,,,,,,A,1999,2,Rouge,0,2,0,0,,,0,727,HUGO,258.33,5.59,2,860,3,2,0,L among T,157
vs12,hugo,4,2,17-janv-13,1519,mixed,500,400,2000,4,2,4.892012057,1,L,8,z,1,359,,,,,,,,,A,2872,0,Vert,0,8,0,0,,,0,786,HUGO,166.75,4.07,2,922,4,3,0,L among T,158
vs12,hugo,4,2,17-janv-13,1519,mixed,500,400,2000,4,3,5.36067970944,0,L,4,N,0,1500,,,,,,,,,A,1636,0,Rouge,0,2,0,0,,,0,0,HUGO,996.33,2.7,2,3149,3,2,0,L among T,159
vs12,hugo,4,2,17-janv-13,1519,mixed,500,400,2000,4,4,5.44350488441,0,X,4,z,1,518,,,,,,,,,D,940,9,Vert,0,2,0,0,,,0,1435,HUGO,251,7.91,2,1569,5,4,0,X among T,160
vs12,hugo,4,2,17-janv-13,1519,mixed,500,400,2000,4,5,5.06759845003,0,L,16,a,1,637,,,,,,,,,D,1116,8,Rouge,0,11,0,0,,,0,0,HUGO,283.5,6.41,2,3149,10,9,0,L among T,161
vs12,hugo,4,2,17-janv-13,1519,mixed,500,400,2000,4,6,2.27570659561,0,L,8,z,1,297,,,,,,,,,B,1909,5,Vert,0,7,0,0,,,0,1659,HUGO,570.67,5.8,2,1795,3,2,0,L among T,162
vs12,hugo,4,2,17-janv-13,1519,mixed,500,400,2000,4,7,3.51092394596,1,X,8,a,1,421,,,,,,,,,B,2059,4,Rouge,0,5,0,0,,,0,642,HUGO,235,3.95,2,776,3,2,0,X among T,163
vs12,hugo,4,2,17-janv-13,1520,mixed,500,400,2000,4,8,1.06683801914,0,X,8,z,1,514,,,,,,,,,A,1982,2,Vert,0,7,0,0,,,0,551,HUGO,205,3.68,2,689,3,2,0,X among T,164
vs12,hugo,4,2,17-janv-13,1520,mixed,500,400,2000,4,9,5.94796838603,0,L,8,a,1,507,,,,,,,,,D,990,9,Rouge,0,7,0,0,,,0,0,HUGO,281.2,5.04,2,3149,10,9,0,L among T,165
vs12,hugo,4,2,17-janv-13,1520,mixed,500,400,2000,4,10,6.16801325474,0,X,4,a,1,547,,,,,,,,,A,1687,0,Rouge,0,3,0,0,,,0,526,HUGO,194.67,3.66,2,660,3,2,0,X among T,166
vs12,hugo,4,2,17-janv-13,1520,mixed,500,400,2000,4,11,5.64739805422,1,X,16,z,1,421,,,,,,,,,A,2298,1,Vert,0,15,0,0,,,0,346,HUGO,214,5.85,2,481,2,1,0,X among T,167
vs12,hugo,4,2,17-janv-13,1520,mixed,500,400,2000,4,12,4.28742327503,1,X,4,z,1,839,,,,,,,,,A,1696,0,Vert,0,4,0,0,,,0,342,HUGO,210,2.35,2,477,2,2,0,X among T,168
vs12,hugo,4,2,17-janv-13,1520,mixed,500,400,2000,4,13,0.364212041083,1,X,8,z,1,470,,,,,,,,,A,1360,0,Vert,0,2,0,0,,,0,697,HUGO,182.75,5.49,2,836,4,3,0,X among T,169
vs12,hugo,4,2,17-janv-13,1520,mixed,500,400,2000,4,14,5.43095686945,0,L,4,z,1,484,,,,,,,,,A,1295,0,Vert,0,1,0,0,,,0,625,HUGO,171.67,2.26,2,758,3,2,0,L among T,170
vs12,hugo,4,2,17-janv-13,1520,mixed,500,400,2000,4,15,6.25200326401,0,L,8,a,1,344,,,,,,,,,A,1642,2,Rouge,0,4,0,0,,,0,1265,HUGO,319.75,6.13,2,1400,4,3,0,L among T,171
vs12,hugo,4,2,17-janv-13,1520,mixed,500,400,2000,4,16,1.38295499871,1,L,8,a,1,407,,,,,,,,,A,1123,0,Rouge,0,7,0,0,,,0,2114,HUGO,730.33,4.35,2,2251,3,2,0,L among T,172
vs12,hugo,4,2,17-janv-13,1520,mixed,500,400,2000,4,17,3.22828466637,1,X,16,z,1,377,,,,,,,,,A,1347,0,Vert,0,9,0,0,,,0,662,HUGO,241,4.64,2,798,3,2,0,X among T,173
vs12,hugo,4,2,17-janv-13,1521,mixed,500,400,2000,4,18,0.633980807811,1,L,16,z,1,527,,,,,,,,,A,3223,1,Vert,0,8,0,0,,,0,976,HUGO,192.8,4.89,2,1113,5,4,0,L among T,174
vs12,hugo,4,2,17-janv-13,1521,mixed,500,400,2000,4,19,3.58937105157,1,L,16,a,1,761,,,,,,,,,A,1466,2,Rouge,0,3,0,0,,,0,1168,HUGO,192,3.58,2,1305,6,5,0,L among T,175
vs12,hugo,4,2,17-janv-13,1521,mixed,500,400,2000,4,20,4.76831143064,1,X,16,z,1,525,,,,,,,,,A,2145,3,Vert,0,14,0,0,,,0,914,HUGO,241.25,3.06,2,1053,4,3,0,X among T,176
vs12,hugo,4,2,17-janv-13,1521,mixed,500,400,2000,4,21,5.96240332857,0,X,4,z,1,463,,,,,,,,,A,2802,3,Vert,0,3,0,0,,,0,527,HUGO,200,3.12,2,661,3,2,0,X among T,177
vs12,hugo,4,2,17-janv-13,1521,mixed,500,400,2000,4,22,0.8792104242,0,X,16,z,1,446,,,,,,,,,A,1169,0,Vert,0,1,0,0,,,0,775,HUGO,161,2.63,2,913,5,4,0,X among T,178
vs12,hugo,4,2,17-janv-13,1521,mixed,500,400,2000,4,23,2.43041437811,1,L,4,a,1,509,,,,,,,,,B,1216,4,Rouge,0,1,0,0,,,0,2674,HUGO,536.4,5.13,2,2808,5,4,0,L among T,179
vs12,hugo,4,2,17-janv-13,1521,mixed,500,400,2000,4,24,3.43747272919,1,X,4,a,1,346,,,,,,,,,A,896,0,Rouge,0,3,0,0,,,0,625,HUGO,167,2.38,2,759,4,3,0,X among T,180
vs12,hugo,4,2,17-janv-13,1521,mixed,500,400,2000,4,25,2.85046230526,1,L,4,a,1,624,,,,,,,,,A,1054,0,Rouge,0,2,0,0,,,0,541,HUGO,208.67,2.36,2,677,3,2,0,L among T,181
vs12,hugo,4,2,17-janv-13,1521,mixed,500,400,2000,4,26,2.8888991496,1,X,4,z,1,292,,,,,,,,,B,2038,5,Vert,0,2,0,0,,,0,601,HUGO,216,5.87,2,735,3,2,0,X among T,182
vs12,hugo,4,2,17-janv-13,1521,mixed,500,400,2000,4,27,6.20033491687,1,X,8,z,1,418,,,,,,,,,A,1780,0,Vert,0,2,0,0,,,0,408,HUGO,226,3.91,2,543,2,2,0,X among T,183
vs12,hugo,4,2,17-janv-13,1521,mixed,500,400,2000,4,28,4.84589113777,0,L,16,z,1,351,,,,,,,,,A,1413,0,Vert,0,3,0,0,,,0,992,HUGO,202,3.38,2,1129,5,4,0,L among T,184
vs12,hugo,4,2,17-janv-13,1522,mixed,500,400,2000,4,29,2.60073866833,1,L,8,z,1,386,,,,,,,,,C,1632,7,Vert,0,1,0,0,,,0,0,HUGO,493.5,5.38,2,3150,6,5,0,L among T,185
vs12,hugo,4,2,17-janv-13,1522,mixed,500,400,2000,4,30,0.978780824397,0,X,16,a,1,372,,,,,,,,,A,3201,2,Rouge,0,3,0,0,,,0,1385,HUGO,356.75,4.57,2,1523,4,3,0,X among T,186
vs12,hugo,4,2,17-janv-13,1522,mixed,500,400,2000,4,31,1.39448314266,1,L,16,N,0,1500,,,,,,,,,B,1331,4,Rouge,0,7,0,0,,,0,0,HUGO,366,4.25,2,3143,8,7,0,L among T,187
vs12,hugo,4,2,17-janv-13,1522,mixed,500,400,2000,4,32,3.97750984335,0,L,16,z,1,1041,,,,,,,,,B,1620,5,Vert,0,5,0,0,,,0,1856,HUGO,172,3.41,2,1991,10,9,0,L among T,188
vs12,hugo,4,2,17-janv-13,1522,mixed,500,400,2000,4,33,1.84991141919,0,X,8,a,1,426,,,,,,,,,A,1160,0,Rouge,0,2,0,0,,,0,399,HUGO,242.5,5.63,2,532,2,1,0,X among T,189
vs12,hugo,4,2,17-janv-13,1522,mixed,500,400,2000,4,34,1.11100853533,0,L,4,a,1,513,,,,,,,,,A,3499,3,Rouge,0,1,0,0,,,0,723,HUGO,265.67,4.18,2,861,3,2,0,L among T,190
vs12,hugo,4,2,17-janv-13,1522,mixed,500,400,2000,4,35,2.65269768854,0,X,16,a,1,528,,,,,,,,,A,1408,0,Rouge,0,14,0,0,,,0,646,HUGO,236,3.62,2,780,3,2,0,X among T,191
vs12,hugo,4,2,17-janv-13,1522,mixed,500,400,2000,4,36,4.91824375555,0,X,8,a,1,538,,,,,,,,,B,962,4,Rouge,0,4,0,0,,,0,1334,HUGO,258.8,7.88,2,1470,5,4,0,X among T,192
vs12,hugo,4,2,17-janv-13,1524,mixed,500,400,2000,5,1,0.0191862757108,1,X,4,z,1,1037,,,,,,,,,A,1314,3,Vert,0,3,0,0,,,0,992,HUGO,242,6.19,2,1131,4,3,0,X among T,193
vs12,hugo,4,2,17-janv-13,1524,mixed,500,400,2000,5,2,0.162788908598,1,L,16,z,1,563,,,,,,,,,A,1430,1,Vert,0,7,0,0,,,0,860,HUGO,271.67,7.92,2,993,3,2,0,L among T,194
vs12,hugo,4,2,17-janv-13,1524,mixed,500,400,2000,5,3,0.95715210659,0,L,4,z,1,700,,,,,,,,,A,1400,0,Vert,0,3,0,0,,,0,539,HUGO,200.67,4.27,2,678,3,2,0,L among T,195
vs12,hugo,4,2,17-janv-13,1524,mixed,500,400,2000,5,4,2.22203101699,0,X,16,z,1,485,,,,,,,,,A,1983,2,Vert,0,2,0,0,,,0,1651,HUGO,246.67,3.96,2,1783,6,5,0,X among T,196
vs12,hugo,4,2,17-janv-13,1524,mixed,500,400,2000,5,5,5.29708808505,0,L,8,z,1,516,,,,,,,,,A,1718,3,Vert,0,1,0,0,,,0,1182,HUGO,298,5.33,2,1317,4,3,0,L among T,197
vs12,hugo,4,2,17-janv-13,1524,mixed,500,400,2000,5,6,1.21017981427,0,L,4,z,1,599,,,,,,,,,A,1097,0,Vert,0,3,0,0,,,0,408,HUGO,246,6.58,2,546,2,1,0,L among T,198
vs12,hugo,4,2,17-janv-13,1524,mixed,500,400,2000,5,7,0.299366152699,1,X,16,a,1,675,,,,,,,,,A,3646,2,Rouge,0,5,0,0,,,0,1053,HUGO,266,4.56,2,1188,4,3,0,X among T,199
vs12,hugo,4,2,17-janv-13,1524,mixed,500,400,2000,5,8,5.94801914128,1,L,16,z,1,618,,,,,,,,,B,887,5,Vert,0,7,0,0,,,0,1765,HUGO,244.57,4.02,2,1902,7,6,0,L among T,200
vs12,hugo,4,2,17-janv-13,1524,mixed,500,400,2000,5,9,3.02641580264,1,L,8,z,1,337,,,,,,,,,A,1501,0,Vert,0,6,0,0,,,0,343,HUGO,216,4.31,2,476,2,1,0,L among T,201
vs12,hugo,4,2,17-janv-13,1524,mixed,500,400,2000,5,10,6.25940453789,1,L,8,z,1,516,,,,,,,,,D,1430,9,Vert,0,5,0,0,,,0,1301,HUGO,259.4,4.95,2,1437,5,4,0,L among T,202
vs12,hugo,4,2,17-janv-13,1525,mixed,500,400,2000,5,11,1.28652819097,0,X,4,a,1,435,,,,,,,,,D,1370,10,Rouge,0,1,0,0,,,0,1012,HUGO,216,6.98,2,1148,4,3,0,X among T,203
vs12,hugo,4,2,17-janv-13,1525,mixed,500,400,2000,5,12,2.29047355272,1,X,4,a,1,347,,,,,,,,,A,1331,0,Rouge,0,4,0,0,,,0,543,HUGO,194.67,6.34,2,677,3,2,0,X among T,204
vs12,hugo,4,2,17-janv-13,1525,mixed,500,400,2000,5,13,4.33122508584,1,X,16,a,1,391,,,,,,,,,A,1762,1,Rouge,0,10,0,0,,,0,617,HUGO,224,4.91,2,753,3,2,0,X among T,205
vs12,hugo,4,2,17-janv-13,1525,mixed,500,400,2000,5,14,5.21843114126,1,L,16,z,1,434,,,,,,,,,A,1669,3,Vert,0,9,0,0,,,0,2380,HUGO,300.86,3.3,2,2515,7,6,0,L among T,206
vs12,hugo,4,2,17-janv-13,1525,mixed,500,400,2000,5,15,0.742157242361,0,L,8,z,1,398,,,,,,,,,A,1067,0,Vert,0,4,0,0,,,0,450,HUGO,260.5,3.21,2,587,2,2,0,L among T,207
vs12,hugo,4,2,17-janv-13,1525,mixed,500,400,2000,5,16,3.9494880686,1,X,8,a,1,403,,,,,,,,,A,1215,0,Rouge,0,6,0,0,,,0,674,HUGO,242.67,5.12,2,812,3,2,0,X among T,208
vs12,hugo,4,2,17-janv-13,1525,mixed,500,400,2000,5,17,1.76350184223,0,X,8,z,1,466,,,,,,,,,B,1948,4,Vert,0,4,0,0,,,0,880,HUGO,291,3.34,2,1015,3,2,0,X among T,209
vs12,hugo,4,2,17-janv-13,1525,mixed,500,400,2000,5,18,0.150274375546,0,X,8,a,1,274,,,,,,,,,A,1030,0,Rouge,0,3,0,0,,,0,527,HUGO,198,3.93,2,664,3,2,0,X among T,210
vs12,hugo,4,2,17-janv-13,1525,mixed,500,400,2000,5,19,1.12178445891,1,L,8,z,1,791,,,,,,,,,A,1070,0,Vert,0,1,0,0,,,0,815,HUGO,290.33,4.53,2,952,3,2,0,L among T,211
vs12,hugo,4,2,17-janv-13,1525,mixed,500,400,2000,5,20,0.910939243032,1,X,4,a,1,664,,,,,,,,,A,1471,0,Rouge,0,3,0,0,,,0,403,HUGO,238,11.29,2,537,2,1,0,X among T,212
vs12,hugo,4,2,17-janv-13,1525,mixed,500,400,2000,5,21,3.86960981484,0,X,4,z,1,317,,,,,,,,,A,1663,0,Vert,0,1,0,0,,,0,417,HUGO,158.33,3.81,2,551,3,2,0,X among T,213
vs12,hugo,4,2,17-janv-13,1526,mixed,500,400,2000,5,22,5.6666910677,0,L,16,z,1,332,,,,,,,,,A,930,0,Vert,0,7,0,0,,,0,475,HUGO,279,8.04,2,611,2,1,0,L among T,214
vs12,hugo,4,2,17-janv-13,1526,mixed,500,400,2000,5,23,1.42482445819,0,X,4,a,1,387,,,,,,,,,A,1014,0,Rouge,0,1,0,0,,,0,539,HUGO,209,1.74,2,676,3,2,0,X among T,215
vs12,hugo,4,2,17-janv-13,1526,mixed,500,400,2000,5,24,4.79177868612,0,X,8,a,1,293,,,,,,,,,A,1604,1,Rouge,0,4,0,0,,,0,626,HUGO,351,9.51,2,760,2,1,0,X among T,216
vs12,hugo,4,2,17-janv-13,1526,mixed,500,400,2000,5,25,6.18208488075,0,L,16,z,1,933,,,,,,,,,D,1030,8,Vert,0,11,0,0,,,0,1979,HUGO,208.22,3.15,2,2117,9,8,0,L among T,217
vs12,hugo,4,2,17-janv-13,1526,mixed,500,400,2000,5,26,4.97423791572,0,X,16,z,1,353,,,,,,,,,A,937,1,Vert,0,10,0,0,,,0,655,HUGO,178.75,1.86,2,792,4,3,0,X among T,218
vs12,hugo,4,2,17-janv-13,1526,mixed,500,400,2000,5,27,2.20928467631,0,X,16,a,1,344,,,,,,,,,A,1396,2,Rouge,0,8,0,0,,,0,830,HUGO,210.5,5.21,2,963,4,3,0,X among T,219
vs12,hugo,4,2,17-janv-13,1526,mixed,500,400,2000,5,28,1.52935157127,1,L,4,a,1,435,,,,,,,,,D,1319,9,Rouge,0,3,0,0,,,0,885,HUGO,220.25,4.7,0,1020,4,4,0,L among T,220
vs12,hugo,4,2,17-janv-13,1526,mixed,500,400,2000,5,29,4.2495758504,1,L,4,a,1,255,,,,,,,,,A,2321,2,Rouge,0,4,0,0,,,0,625,HUGO,233.33,3.2,2,761,3,2,0,L among T,221
vs12,hugo,4,2,17-janv-13,1526,mixed,500,400,2000,5,30,3.19594245048,0,L,16,a,1,386,,,,,,,,,A,1709,0,Rouge,0,9,0,0,,,0,496,HUGO,188.33,3.56,2,632,3,2,0,L among T,222
vs12,hugo,4,2,17-janv-13,1526,mixed,500,400,2000,5,31,0.820040860987,1,L,4,z,1,369,,,,,,,,,A,1353,0,Vert,0,3,0,0,,,0,573,HUGO,221.33,2.27,2,711,3,2,0,L among T,223
vs12,hugo,4,2,17-janv-13,1526,mixed,500,400,2000,5,32,5.76463464075,0,L,4,a,1,516,,,,,,,,,D,946,9,Rouge,0,3,0,0,,,0,915,HUGO,223.75,9.43,2,1048,4,3,0,L among T,224
vs12,hugo,4,2,17-janv-13,1527,mixed,500,400,2000,5,33,1.98621485427,0,L,8,a,1,706,,,,,,,,,D,1513,9,Rouge,0,3,0,0,,,0,1491,HUGO,234.83,6.98,2,1625,6,5,0,L among T,225
vs12,hugo,4,2,17-janv-13,1527,mixed,500,400,2000,5,34,4.51413592133,1,X,8,a,1,461,,,,,,,,,A,811,0,Rouge,0,7,0,0,,,0,674,HUGO,245.67,4.39,2,809,3,2,0,X among T,226
vs12,hugo,4,2,17-janv-13,1527,mixed,500,400,2000,5,35,1.99964652624,1,X,16,z,1,406,,,,,,,,,A,1787,0,Vert,0,2,0,0,,,0,551,HUGO,208,2.61,2,687,3,2,0,X among T,227
vs12,hugo,4,2,17-janv-13,1527,mixed,500,400,2000,5,36,0.0821602458971,1,X,8,z,1,401,,,,,,,,,A,1598,0,Vert,0,5,0,0,,,0,508,HUGO,195.67,3.82,2,646,3,2,0,X among T,228
vs12,hugo,4,2,17-janv-13,1528,mixed,500,400,2000,6,1,1.53196189454,0,L,16,a,1,1378,,,,,,,,,A,2289,2,Rouge,0,12,0,0,,,0,1146,HUGO,176.17,5.36,2,1280,6,5,0,L among T,229
vs12,hugo,4,2,17-janv-13,1528,mixed,500,400,2000,6,2,0.633396508933,0,X,16,z,1,407,,,,,,,,,A,1000,0,Vert,0,9,0,0,,,0,575,HUGO,215.67,3.35,2,712,3,2,0,X among T,230
vs12,hugo,4,2,17-janv-13,1528,mixed,500,400,2000,6,3,4.0999236085,1,X,4,z,1,381,,,,,,,,,A,963,1,Vert,0,3,0,0,,,0,427,HUGO,234.5,5.2,2,564,2,2,0,X among T,231
vs12,hugo,4,2,17-janv-13,1528,mixed,500,400,2000,6,4,0.858494941059,0,L,4,z,1,495,,,,,,,,,C,1039,7,Vert,0,1,0,0,,,0,796,HUGO,274,9.49,2,935,3,2,0,L among T,232
vs12,hugo,4,2,17-janv-13,1528,mixed,500,400,2000,6,5,0.165507333523,1,X,16,a,1,610,,,,,,,,,B,1342,4,Rouge,0,14,0,0,,,0,985,HUGO,248.5,7.22,2,1121,4,3,0,X among T,233
vs12,hugo,4,2,17-janv-13,1528,mixed,500,400,2000,6,6,2.34946500585,0,X,8,a,1,327,,,,,,,,,A,645,0,Rouge,0,5,0,0,,,0,438,HUGO,261,7.7,2,574,2,1,0,X among T,234
vs12,hugo,4,2,17-janv-13,1528,mixed,500,400,2000,6,7,3.81937274491,1,X,8,a,1,541,,,,,,,,,A,1061,0,Rouge,0,7,0,0,,,0,645,HUGO,358.5,8.11,2,778,2,1,0,X among T,235
vs12,hugo,4,2,17-janv-13,1529,mixed,500,400,2000,6,8,1.56352329732,0,X,4,z,1,557,,,,,,,,,A,1619,0,Vert,0,1,0,0,,,0,370,HUGO,229.5,5.69,2,504,2,1,0,X among T,236
vs12,hugo,4,2,17-janv-13,1529,mixed,500,400,2000,6,9,5.49849793607,1,L,16,z,1,382,,,,,,,,,A,1245,0,Vert,0,1,0,0,,,0,752,HUGO,202.25,2.54,2,893,4,3,0,L among T,237
vs12,hugo,4,2,17-janv-13,1529,mixed,500,400,2000,6,10,5.25354830148,0,X,16,z,1,448,,,,,,,,,B,1620,4,Vert,0,12,0,0,,,0,800,HUGO,278,9.27,2,936,3,2,0,X among T,238
vs12,hugo,4,2,17-janv-13,1529,mixed,500,400,2000,6,11,1.63263807979,0,L,8,a,1,613,,,,,,,,,A,1720,3,Rouge,0,6,0,0,,,0,1161,HUGO,234,3.21,2,1296,5,4,0,L among T,239
vs12,hugo,4,2,17-janv-13,1529,mixed,500,400,2000,6,12,0.180751496259,1,X,8,a,1,563,,,,,,,,,A,1241,0,Rouge,0,1,0,0,,,0,573,HUGO,208.33,4.29,2,710,3,2,0,X among T,240
vs12,hugo,4,2,17-janv-13,1529,mixed,500,400,2000,6,13,2.57825097479,0,L,8,z,1,326,,,,,,,,,A,1094,1,Vert,0,3,0,0,,,0,497,HUGO,248.5,7.88,2,634,2,1,0,L among T,241
vs12,hugo,4,2,17-janv-13,1529,mixed,500,400,2000,6,14,2.78499475396,1,L,4,z,1,379,,,,,,,,,A,2019,3,Vert,0,3,0,0,,,0,424,HUGO,252,10.48,2,563,2,1,0,L among T,242
vs12,hugo,4,2,17-janv-13,1529,mixed,500,400,2000,6,15,4.70397211293,0,L,4,a,1,425,,,,,,,,,B,908,4,Rouge,0,1,0,0,,,0,440,HUGO,260.5,8.11,2,573,2,1,0,L among T,243
vs12,hugo,4,2,17-janv-13,1529,mixed,500,400,2000,6,16,6.10574258838,1,X,16,z,1,365,,,,,,,,,A,1076,0,Vert,0,9,0,0,,,0,585,HUGO,214.33,4.88,2,719,3,2,0,X among T,244
vs12,hugo,4,2,17-janv-13,1529,mixed,500,400,2000,6,17,1.18573640595,1,L,8,z,1,337,,,,,,,,,B,861,5,Vert,0,5,0,0,,,0,884,HUGO,220.75,7.93,2,1024,4,3,0,L among T,245
vs12,hugo,4,2,17-janv-13,1529,mixed,500,400,2000,6,18,1.39196547705,1,L,8,z,1,605,,,,,,,,,D,1918,9,Vert,0,8,0,0,,,0,2150,HUGO,291,6.53,2,2287,7,6,0,L among T,246
vs12,hugo,4,2,17-janv-13,1529,mixed,500,400,2000,6,19,2.51363204529,1,X,4,a,1,602,,,,,,,,,A,727,0,Rouge,0,4,0,0,,,0,442,HUGO,168,3.92,2,577,3,2,0,X among T,247
vs12,hugo,4,2,17-janv-13,1530,mixed,500,400,2000,6,20,2.90201870407,0,X,4,a,1,398,,,,,,,,,B,761,5,Rouge,0,1,0,0,,,0,763,HUGO,276.67,4.14,2,900,3,2,0,X among T,248
vs12,hugo,4,2,17-janv-13,1530,mixed,500,400,2000,6,21,0.754842529548,0,L,8,a,1,574,,,,,,,,,D,960,9,Rouge,0,2,0,0,,,0,1538,HUGO,302.6,3.32,2,1673,5,5,0,L among T,249
vs12,hugo,4,2,17-janv-13,1530,mixed,500,400,2000,6,22,2.05192131474,1,X,16,a,1,394,,,,,,,,,A,1056,3,Rouge,0,4,0,0,,,0,923,HUGO,236.5,5.19,2,1063,4,3,0,X among T,250
vs12,hugo,4,2,17-janv-13,1530,mixed,500,400,2000,6,23,1.38662774332,0,L,4,z,1,350,,,,,,,,,C,962,7,Vert,0,1,0,0,,,0,687,HUGO,249,5.53,2,824,3,2,0,L among T,251
vs12,hugo,4,2,17-janv-13,1530,mixed,500,400,2000,6,24,4.36892100138,1,X,4,z,1,313,,,,,,,,,B,995,4,Vert,0,1,0,0,,,0,421,HUGO,250.5,7.68,0,559,2,1,0,X among T,252
vs12,hugo,4,2,17-janv-13,1530,mixed,500,400,2000,6,25,2.85894048602,1,L,4,a,1,316,,,,,,,,,D,829,10,Rouge,0,2,0,0,,,0,1228,HUGO,196.33,6.19,2,1368,6,5,0,L among T,253
vs12,hugo,4,2,17-janv-13,1530,mixed,500,400,2000,6,26,2.84309887735,1,L,8,a,1,492,,,,,,,,,B,2063,4,Rouge,0,4,0,0,,,0,627,HUGO,232,3.93,0,763,3,2,0,L among T,254
vs12,hugo,4,2,17-janv-13,1530,mixed,500,400,2000,6,27,5.62653019548,1,L,16,a,1,493,,,,,,,,,A,2156,1,Rouge,0,12,0,0,,,0,791,HUGO,205,4.15,0,926,4,3,0,L among T,255
vs12,hugo,4,2,17-janv-13,1530,mixed,500,400,2000,6,28,4.5097631585,0,L,16,a,1,983,,,,,,,,,D,1693,10,Rouge,0,5,0,0,,,0,0,HUGO,165.5,4.24,2,3145,16,15,0,L among T,256
vs12,hugo,4,2,17-janv-13,1530,mixed,500,400,2000,6,29,2.12140735894,0,X,8,z,1,479,,,,,,,,,A,771,1,Vert,0,7,0,0,,,0,550,HUGO,201,5.8,2,688,3,2,0,X among T,257
vs12,hugo,4,2,17-janv-13,1530,mixed,500,400,2000,6,30,3.9967157366,1,X,8,z,1,391,,,,,,,,,A,1794,0,Vert,0,2,0,0,,,0,518,HUGO,195.33,4.3,2,656,3,2,0,X among T,258
vs12,hugo,4,2,17-janv-13,1531,mixed,500,400,2000,6,31,2.72449482062,0,X,8,z,1,454,,,,,,,,,B,832,4,Vert,0,3,0,0,,,0,806,HUGO,278.33,8.18,2,942,3,2,0,X among T,259
vs12,hugo,4,2,17-janv-13,1531,mixed,500,400,2000,6,32,1.8398074088,0,X,4,z,1,500,,,,,,,,,A,1028,0,Vert,0,4,0,0,,,0,398,HUGO,240.5,6.7,2,534,2,1,0,X among T,260
vs12,hugo,4,2,17-janv-13,1531,mixed,500,400,2000,6,33,4.36047995865,1,L,16,z,1,978,,,,,,,,,D,1361,9,Vert,0,1,0,0,,,0,2183,HUGO,195.5,6.32,2,2323,10,9,0,L among T,261
vs12,hugo,4,2,17-janv-13,1531,mixed,500,400,2000,6,34,5.51918691717,0,L,16,z,1,489,,,,,,,,,D,1115,8,Vert,0,15,0,0,,,0,1541,HUGO,241.33,5.68,2,1674,6,6,0,L among T,262
vs12,hugo,4,2,17-janv-13,1531,mixed,500,400,2000,6,35,2.49433930797,1,L,4,a,1,532,,,,,,,,,D,1243,10,Rouge,0,3,0,0,,,0,1294,HUGO,253.4,7.02,2,1429,5,4,0,L among T,263
vs12,hugo,4,2,17-janv-13,1531,mixed,500,400,2000,6,36,1.2847075705,0,X,16,z,1,667,,,,,,,,,A,1133,0,Vert,0,13,0,0,,,0,569,HUGO,210.67,4.54,2,705,3,2,0,X among T,264
vs12,hugo,4,2,17-janv-13,1532,mixed,500,400,2000,7,1,5.11275645237,0,X,4,a,1,825,,,,,,,,,D,1579,9,Rouge,0,4,0,0,,,0,1249,HUGO,214.2,9.25,2,1384,5,4,0,X among T,265
vs12,hugo,4,2,17-janv-13,1532,mixed,500,400,2000,7,2,0.778928294135,1,L,8,z,1,615,,,,,,,,,D,2308,10,Vert,0,1,0,0,,,0,1961,HUGO,203,5,2,2096,9,8,0,L among T,266
vs12,hugo,4,2,17-janv-13,1532,mixed,500,400,2000,7,3,6.17158597542,0,X,4,z,1,335,,,,,,,,,A,1025,0,Vert,0,1,0,0,,,0,486,HUGO,184,4.62,2,624,3,2,0,X among T,267
vs12,hugo,4,2,17-janv-13,1532,mixed,500,400,2000,7,4,0.391226466974,1,L,16,a,1,385,,,,,,,,,B,905,4,Rouge,0,12,0,0,,,0,1116,HUGO,227.4,3.05,2,1255,5,4,0,L among T,268
vs12,hugo,4,2,17-janv-13,1532,mixed,500,400,2000,7,5,6.24066528343,1,X,4,a,1,313,,,,,,,,,B,1904,4,Rouge,0,1,0,0,,,0,404,HUGO,240.5,8.56,2,538,2,1,0,X among T,269
vs12,hugo,4,2,17-janv-13,1532,mixed,500,400,2000,7,6,4.26333870163,0,L,4,z,1,326,,,,,,,,,C,807,6,Vert,0,1,0,0,,,0,599,HUGO,341.5,8.14,2,734,2,1,0,L among T,270
vs12,hugo,4,2,17-janv-13,1533,mixed,500,400,2000,7,7,0.981060320921,0,L,8,z,1,537,,,,,,,,,C,566,7,Vert,0,5,0,0,,,0,1360,HUGO,339.25,6.87,2,1498,4,3,0,L among T,271
vs12,hugo,4,2,17-janv-13,1533,mixed,500,400,2000,7,8,5.07841387335,1,L,16,z,1,427,,,,,,,,,A,1871,0,Vert,0,9,0,0,,,0,552,HUGO,207,2.54,2,686,3,2,0,L among T,272
vs12,hugo,4,2,17-janv-13,1533,mixed,500,400,2000,7,9,4.71975378647,1,X,8,z,1,506,,,,,,,,,A,1002,0,Vert,0,5,0,0,,,0,558,HUGO,207.33,3.32,2,693,3,2,0,X among T,273
vs12,hugo,4,2,17-janv-13,1533,mixed,500,400,2000,7,10,6.04112747539,1,L,4,a,1,443,,,,,,,,,C,1653,7,Rouge,0,4,0,0,,,0,778,HUGO,197.75,6.41,2,914,4,3,0,L among T,274
vs12,hugo,4,2,17-janv-13,1533,mixed,500,400,2000,7,11,2.09375952537,0,X,16,z,1,636,,,,,,,,,A,2171,0,Vert,0,2,0,0,,,0,563,HUGO,191,9.38,2,700,3,2,0,X among T,275
vs12,hugo,4,2,17-janv-13,1533,mixed,500,400,2000,7,12,5.01198373279,1,X,8,z,1,496,,,,,,,,,A,1611,1,Vert,0,1,0,0,,,0,509,HUGO,190.67,3.79,2,644,3,2,0,X among T,276
vs12,hugo,4,2,17-janv-13,1533,mixed,500,400,2000,7,13,2.76260971201,0,X,4,z,1,530,,,,,,,,,A,1833,1,Vert,0,1,0,0,,,0,537,HUGO,202.67,3.75,2,673,3,2,0,X among T,277
vs12,hugo,4,2,17-janv-13,1533,mixed,500,400,2000,7,14,3.64831410994,0,X,8,z,1,377,,,,,,,,,A,1528,0,Vert,0,6,0,0,,,0,388,HUGO,227.5,3.98,2,523,2,2,0,X among T,278
vs12,hugo,4,2,17-janv-13,1533,mixed,500,400,2000,7,15,2.31617078058,0,L,16,a,1,341,,,,,,,,,A,814,1,Rouge,0,13,0,0,,,0,669,HUGO,243.67,3.38,2,803,3,2,0,L among T,279
vs12,hugo,4,2,17-janv-13,1533,mixed,500,400,2000,7,16,5.57943111347,1,L,8,a,1,345,,,,,,,,,B,852,5,Rouge,0,3,0,0,,,0,1050,HUGO,204.4,6.62,0,1187,5,4,0,L among T,280
vs12,hugo,4,2,17-janv-13,1533,mixed,500,400,2000,7,17,0.421960242208,0,L,4,a,1,467,,,,,,,,,B,2615,4,Rouge,0,3,0,0,,,0,724,HUGO,249.33,9.07,2,860,3,2,0,L among T,281
vs12,hugo,4,2,17-janv-13,1534,mixed,500,400,2000,7,18,5.81494314629,0,X,8,a,1,877,,,,,,,,,A,2627,0,Rouge,0,2,0,0,,,0,550,HUGO,206,3.16,2,685,3,2,0,X among T,282
vs12,hugo,4,2,17-janv-13,1534,mixed,500,400,2000,7,19,4.38590521639,0,L,16,z,1,443,,,,,,,,,A,1874,3,Vert,0,10,0,0,,,0,991,HUGO,255.75,3.88,2,1130,4,3,0,L among T,283
vs12,hugo,4,2,17-janv-13,1534,mixed,500,400,2000,7,20,0.917070115417,0,X,16,a,1,304,,,,,,,,,A,1113,1,Rouge,0,2,0,0,,,0,625,HUGO,230.67,2.97,2,760,3,2,0,X among T,284
vs12,hugo,4,2,17-janv-13,1534,mixed,500,400,2000,7,21,0.972701739798,1,L,4,a,1,560,,,,,,,,,A,1092,0,Rouge,0,2,0,0,,,0,466,HUGO,183,2.06,2,603,3,2,0,L among T,285
vs12,hugo,4,2,17-janv-13,1534,mixed,500,400,2000,7,22,4.31293781447,1,X,16,z,1,468,,,,,,,,,A,2936,2,Vert,0,5,0,0,,,0,850,HUGO,215,7.6,2,989,4,3,0,X among T,286
vs12,hugo,4,2,17-janv-13,1534,mixed,500,400,2000,7,23,3.98367480694,0,L,8,z,1,949,,,,,,,,,B,2578,4,Vert,0,5,0,0,,,0,713,HUGO,246.67,4.75,2,847,3,2,0,L among T,287
vs12,hugo,4,2,17-janv-13,1534,mixed,500,400,2000,7,24,0.535601966622,1,X,4,a,1,469,,,,,,,,,A,1232,0,Rouge,0,3,0,0,,,0,530,HUGO,204.67,2.09,2,668,3,2,0,X among T,288
vs12,hugo,4,2,17-janv-13,1534,mixed,500,400,2000,7,25,2.9573749846,1,X,16,z,1,436,,,,,,,,,A,1662,0,Vert,0,11,0,0,,,0,463,HUGO,283,1.84,0,596,2,1,0,X among T,289
vs12,hugo,4,2,17-janv-13,1534,mixed,500,400,2000,7,26,2.02835950663,0,L,16,z,1,473,,,,,,,,,C,1869,6,Vert,0,13,0,0,,,0,1620,HUGO,169.11,3.1,2,1755,9,8,0,L among T,290
vs12,hugo,4,2,17-janv-13,1534,mixed,500,400,2000,7,27,3.90628680644,1,X,4,a,1,420,,,,,,,,,A,1034,0,Rouge,0,2,0,0,,,0,406,HUGO,154,3.45,2,540,3,2,0,X among T,291
vs12,hugo,4,2,17-janv-13,1535,mixed,500,400,2000,7,28,5.93614535149,1,L,4,a,1,430,,,,,,,,,A,2913,2,Rouge,0,4,0,0,,,0,2448,HUGO,442.4,6.04,2,2585,5,4,0,L among T,292
vs12,hugo,4,2,17-janv-13,1535,mixed,500,400,2000,7,29,6.13568587368,1,X,16,a,1,512,,,,,,,,,A,1296,0,Rouge,0,15,0,0,,,0,342,HUGO,204,1.95,2,479,2,2,0,X among T,293
vs12,hugo,4,2,17-janv-13,1535,mixed,500,400,2000,7,30,0.401769154572,0,L,8,a,1,550,,,,,,,,,B,4667,4,Rouge,0,4,0,0,,,0,1282,HUGO,324.5,5.1,2,1416,4,3,0,L among T,294
vs12,hugo,4,2,17-janv-13,1535,mixed,500,400,2000,7,31,2.12669268366,1,L,8,z,1,501,,,,,,,,,A,4862,2,Vert,0,4,0,0,,,0,520,HUGO,196.33,3.31,2,657,3,2,0,L among T,295
vs12,hugo,4,2,17-janv-13,1535,mixed,500,400,2000,7,32,5.32680275316,0,X,8,z,1,798,,,,,,,,,A,962,0,Vert,0,2,0,0,,,0,611,HUGO,217.33,8.75,2,751,3,2,0,X among T,296
vs12,hugo,4,2,17-janv-13,1535,mixed,500,400,2000,7,33,0.925607269456,1,X,8,z,1,555,,,,,,,,,A,946,0,Vert,0,2,0,0,,,0,375,HUGO,238,2.7,2,511,2,1,0,X among T,297
vs12,hugo,4,2,17-janv-13,1535,mixed,500,400,2000,7,34,0.86922105986,1,L,16,a,1,1072,,,,,,,,,D,2119,9,Rouge,0,8,0,0,,,0,2332,HUGO,174.83,4.56,2,2467,12,11,0,L among T,298
vs12,hugo,4,2,17-janv-13,1535,mixed,500,400,2000,7,35,2.55439158147,0,X,16,z,1,421,,,,,,,,,B,880,5,Vert,0,1,0,0,,,0,1269,HUGO,203.17,5.92,2,1407,6,5,0,X among T,299
vs12,hugo,4,2,17-janv-13,1535,mixed,500,400,2000,7,36,1.84539523336,0,L,4,z,1,727,,,,,,,,,D,953,9,Vert,0,2,0,0,,,0,958,HUGO,211.5,5.99,2,1092,4,3,0,L among T,300
vs12,hugo,4,2,17-janv-13,1537,mixed,500,400,2000,8,1,0.825166070193,1,X,4,z,1,525,,,,,,,,,A,2535,1,Vert,0,3,0,0,,,0,1092,HUGO,373.33,8.24,2,1250,3,2,0,X among T,301
vs12,hugo,4,2,17-janv-13,1538,mixed,500,400,2000,8,2,2.64224151472,1,L,4,a,1,667,,,,,,,,,A,2051,0,Rouge,0,2,0,0,,,0,449,HUGO,132.67,3.62,2,582,3,2,0,L among T,302
vs12,hugo,4,2,17-janv-13,1538,mixed,500,400,2000,8,3,5.73830515825,0,X,4,a,1,434,,,,,,,,,C,1087,6,Rouge,0,3,0,0,,,0,620,HUGO,219,8.06,2,752,3,2,0,X among T,303
vs12,hugo,4,2,17-janv-13,1538,mixed,500,400,2000,8,4,1.85266107423,0,X,8,z,1,440,,,,,,,,,A,2030,0,Vert,0,8,0,0,,,0,592,HUGO,221,2.78,2,725,3,2,0,X among T,304
vs12,hugo,4,2,17-janv-13,1538,mixed,500,400,2000,8,5,3.14145351131,0,L,8,z,1,1213,,,,,,,,,A,1247,1,Vert,0,8,0,0,,,0,533,HUGO,199.33,3.25,2,668,3,2,0,L among T,305
vs12,hugo,4,2,17-janv-13,1538,mixed,500,400,2000,8,6,0.637946488195,1,X,8,z,1,480,,,,,,,,,A,1524,2,Vert,0,5,0,0,,,0,520,HUGO,191.33,6.43,2,657,3,2,0,X among T,306
vs12,hugo,4,2,17-janv-13,1538,mixed,500,400,2000,8,7,1.45895573488,1,L,8,z,1,1058,,,,,,,,,A,1870,3,Vert,0,7,0,0,,,0,1351,HUGO,214.33,6.15,2,1486,6,5,0,L among T,307
vs12,hugo,4,2,17-janv-13,1538,mixed,500,400,2000,8,8,1.50817262625,0,L,4,a,1,524,,,,,,,,,C,1440,6,Rouge,0,4,0,0,,,0,760,HUGO,261.33,10.44,2,897,3,2,0,L among T,308
vs12,hugo,4,2,17-janv-13,1538,mixed,500,400,2000,8,9,5.44879672237,1,L,8,z,1,831,,,,,,,,,D,929,8,Vert,0,6,0,0,,,0,2884,HUGO,573.4,4.87,2,3022,5,4,0,L among T,309
vs12,hugo,4,2,17-janv-13,1538,mixed,500,400,2000,8,10,5.07104473592,0,X,16,a,1,653,,,,,,,,,B,2667,5,Rouge,0,15,0,0,,,0,2519,HUGO,506.6,3.88,2,2654,5,4,0,X among T,310
vs12,hugo,4,2,17-janv-13,1538,mixed,500,400,2000,8,11,2.0655208608,1,X,16,z,1,388,,,,,,,,,A,2775,0,Vert,0,14,0,0,,,0,467,HUGO,277,8.63,2,607,2,1,0,X among T,311
vs12,hugo,4,2,17-janv-13,1539,mixed,500,400,2000,8,12,5.36032021888,0,L,4,N,0,1500,,,,,,,,,A,3367,3,Rouge,0,1,0,0,,,0,0,HUGO,1028,3.35,2,3150,3,2,0,L among T,312
vs12,hugo,4,2,17-janv-13,1539,mixed,500,400,2000,8,13,0.270750258786,1,X,8,a,1,626,,,,,,,,,A,1853,0,Rouge,0,4,0,0,,,0,567,HUGO,215.33,3.22,2,706,3,2,0,X among T,313
vs12,hugo,4,2,17-janv-13,1539,mixed,500,400,2000,8,14,3.65139860592,0,X,8,a,1,588,,,,,,,,,A,2264,0,Rouge,0,8,0,0,,,0,355,HUGO,226.5,2.87,2,487,2,1,0,X among T,314
vs12,hugo,4,2,17-janv-13,1539,mixed,500,400,2000,8,15,6.2564467902,1,L,4,N,0,1500,,,,,,,,,A,1574,0,Vert,0,2,0,0,,,0,0,HUGO,1567.5,0.34,2,3151,2,1,0,L among T,315
vs12,hugo,4,2,17-janv-13,1539,mixed,500,400,2000,8,16,3.13111430391,0,L,16,z,1,875,,,,,,,,,D,1841,9,Vert,0,11,0,0,,,0,2357,HUGO,198.82,3.67,2,2490,11,10,0,L among T,316
vs12,hugo,4,2,17-janv-13,1539,mixed,500,400,2000,8,17,5.90634160203,1,X,4,a,1,533,,,,,,,,,B,3586,5,Rouge,0,4,0,0,,,0,891,HUGO,322.33,3.32,2,1026,3,2,0,X among T,317
vs12,hugo,4,2,17-janv-13,1539,mixed,500,400,2000,8,18,5.09798233636,1,X,16,a,1,498,,,,,,,,,A,1842,0,Rouge,0,15,0,0,,,0,599,HUGO,230.67,1.68,2,736,3,2,0,X among T,318
vs12,hugo,4,2,17-janv-13,1539,mixed,500,400,2000,8,19,1.86612026346,1,L,16,z,1,394,,,,,,,,,A,1469,0,Vert,0,10,0,0,,,0,70,HUGO,199,0,2,207,1,0,0,L among T,319
vs12,hugo,4,2,17-janv-13,1539,mixed,500,400,2000,8,20,4.87765692764,0,L,16,z,1,691,,,,,,,,,D,1617,8,Vert,0,16,0,0,,,0,2020,HUGO,187.1,3.75,2,2157,10,9,0,L among T,320
vs12,hugo,4,2,17-janv-13,1540,mixed,500,400,2000,8,21,2.87611242163,1,L,8,z,1,569,,,,,,,,,D,1078,8,Vert,0,6,0,0,,,0,873,HUGO,172.2,5.22,2,1007,5,4,0,L among T,321
vs12,hugo,4,2,17-janv-13,1540,mixed,500,400,2000,8,22,3.16334846446,0,X,16,N,0,1500,,,,,,,,,A,2401,1,Rouge,0,6,0,0,,,0,0,HUGO,611.8,2.1,2,3152,5,4,0,X among T,322
vs12,hugo,4,2,17-janv-13,1540,mixed,500,400,2000,8,23,1.36549829597,0,L,16,z,1,624,,,,,,,,,A,1685,0,Vert,0,1,0,0,,,0,0,HUGO,772.5,1.12,2,3144,4,3,0,L among T,323
vs12,hugo,4,2,17-janv-13,1540,mixed,500,400,2000,8,24,3.94912397339,1,L,16,z,1,398,,,,,,,,,A,1728,0,Vert,0,3,0,0,,,0,929,HUGO,243.25,3.2,2,1067,4,3,0,L among T,324
vs12,hugo,4,2,17-janv-13,1540,mixed,500,400,2000,8,25,4.47718142665,0,X,4,a,1,346,,,,,,,,,A,2228,2,Rouge,0,4,0,0,,,0,636,HUGO,166.75,5.45,2,772,4,3,0,X among T,325
vs12,hugo,4,2,17-janv-13,1540,mixed,500,400,2000,8,26,3.02475110075,0,X,4,z,1,454,,,,,,,,,A,2881,0,Vert,0,4,0,0,,,0,598,HUGO,157.25,3.62,2,733,4,3,0,X among T,326
vs12,hugo,4,2,17-janv-13,1540,mixed,500,400,2000,8,27,2.48932187432,1,X,8,z,1,502,,,,,,,,,A,890,0,Vert,0,8,0,0,,,0,1486,HUGO,523.33,3.04,2,1626,3,2,0,X among T,327
vs12,hugo,4,2,17-janv-13,1540,mixed,500,400,2000,8,28,5.23108619371,0,L,8,z,1,402,,,,,,,,,B,861,4,Vert,0,5,0,0,,,0,1348,HUGO,265.8,5.81,2,1480,5,4,0,L among T,328
vs12,hugo,4,2,17-janv-13,1540,mixed,500,400,2000,8,29,3.7390578632,1,L,16,z,1,475,,,,,,,,,A,2275,0,Vert,0,3,0,0,,,0,340,HUGO,213.5,5.63,0,474,2,1,0,L among T,329
vs12,hugo,4,2,17-janv-13,1540,mixed,500,400,2000,8,30,5.85357132736,1,X,16,a,1,508,,,,,,,,,A,2304,2,Rouge,0,4,0,0,,,0,991,HUGO,245.5,7.72,2,1124,4,3,0,X among T,330
vs12,hugo,4,2,17-janv-13,1541,mixed,500,400,2000,8,31,1.27843743821,0,X,8,z,1,495,,,,,,,,,A,1516,0,Vert,0,5,0,0,,,0,360,HUGO,225.5,5.5,2,496,2,1,0,X among T,331
vs12,hugo,4,2,17-janv-13,1541,mixed,500,400,2000,8,32,1.57853639755,0,X,16,a,1,389,,,,,,,,,A,1691,1,Rouge,0,15,0,0,,,0,630,HUGO,219.33,11.77,2,768,3,2,0,X among T,332
vs12,hugo,4,2,17-janv-13,1541,mixed,500,400,2000,8,33,3.50105832008,0,L,4,a,1,399,,,,,,,,,A,2006,2,Rouge,0,3,0,0,,,0,1223,HUGO,306.75,7.3,2,1360,4,3,0,L among T,333
vs12,hugo,4,2,17-janv-13,1541,mixed,500,400,2000,8,34,4.84308601492,1,X,4,z,1,486,,,,,,,,,A,950,3,Vert,0,4,0,0,,,0,566,HUGO,205,5.08,2,705,3,2,0,X among T,334
vs12,hugo,4,2,17-janv-13,1541,mixed,500,400,2000,8,35,6.11804731499,1,L,4,a,1,515,,,,,,,,,A,1056,0,Rouge,0,1,0,0,,,0,444,HUGO,205.5,6.21,2,583,2,1,0,L among T,335
vs12,hugo,4,2,17-janv-13,1541,mixed,500,400,2000,8,36,0.781986714452,0,L,8,a,1,450,,,,,,,,,D,709,8,Rouge,0,4,0,0,,,0,1025,HUGO,234,6.62,2,1159,4,3,0,L among T,336
vs12,julie,4,2,17-janv-13,1143,Ent1,500,400,2000,1,1,2.76654324349,1,X,8,z,1,1297,,,,,,,,,,,,Vert,0,2,0,0,,,0,2057,JULIE,271.29,8.27,2,2195,7,6,0,X among T,337
vs12,julie,4,2,17-janv-13,1143,Ent1,500,400,2000,1,2,5.41932700522,1,L,16,N,0,1500,,,,,,,,,,,,Vert,0,14,0,0,,,0,0,JULIE,234.55,7.11,2,3149,11,10,0,L among T,338
vs12,julie,4,2,17-janv-13,1144,Ent1,500,400,2000,1,3,5.92989819105,1,L,8,N,0,1500,,,,,,,,,,,,Vert,0,6,0,0,,,0,0,JULIE,254.5,10.45,2,3147,8,7,0,L among T,339
vs12,julie,4,2,17-janv-13,1144,Ent1,500,400,2000,1,4,2.1723440134,1,X,16,z,1,441,,,,,,,,,,,,Vert,0,11,0,0,,,0,769,JULIE,219.67,0,2,905,3,3,0,X among T,340
vs12,julie,4,2,17-janv-13,1144,Ent1,500,400,2000,1,5,1.95282129631,0,L,8,z,1,406,,,,,,,,,,,,Vert,0,7,0,0,,,0,2112,JULIE,229.8,0,2,2246,5,5,0,L among T,341
vs12,julie,4,2,17-janv-13,1144,Ent1,500,400,2000,1,6,4.04427936542,0,X,4,a,1,598,,,,,,,,,,,,Rouge,0,1,0,0,,,0,497,JULIE,258,0,2,629,2,2,0,X among T,342
vs12,julie,4,2,17-janv-13,1144,Ent1,500,400,2000,1,7,0.344706117848,0,L,4,a,1,565,,,,,,,,,,,,Rouge,0,3,0,0,,,0,1062,JULIE,285.5,0,2,1196,2,2,0,L among T,343
vs12,julie,4,2,17-janv-13,1144,Ent1,500,400,2000,1,8,2.41946395177,1,X,4,a,1,387,,,,,,,,,,,,Rouge,0,2,0,0,,,0,825,JULIE,236,0,2,960,3,3,0,X among T,344
vs12,julie,4,2,17-janv-13,1144,Ent1,500,400,2000,1,9,1.92064534367,1,L,4,a,1,916,,,,,,,,,,,,Rouge,0,1,0,0,,,0,430,JULIE,209,0,2,563,2,2,0,L among T,345
vs12,julie,4,2,17-janv-13,1144,Ent1,500,400,2000,1,10,1.78074615419,0,L,16,z,1,450,,,,,,,,,,,,Vert,0,10,0,0,,,0,1667,JULIE,255.17,0,2,1800,6,6,0,L among T,346
vs12,julie,4,2,17-janv-13,1144,Ent1,500,400,2000,1,11,4.12591323961,0,X,16,a,0,637,,,,,,,,,,,,Vert,0,12,0,0,,,0,0,JULIE,234.36,0,2,3151,11,12,0,X among T,347
vs12,julie,4,2,17-janv-13,1144,Ent1,500,400,2000,1,12,1.41309226441,0,X,8,a,1,1161,,,,,,,,,,,,Rouge,0,7,0,0,,,0,648,JULIE,230.67,6.04,2,783,3,2,0,X among T,348
vs12,julie,4,2,17-janv-13,1144,Ent1,500,400,2000,1,1,0.0128537604211,1,X,8,z,1,434,,,,,,,,,,,,Vert,0,5,0,0,,,0,2597,JULIE,268.5,7.17,2,2734,6,5,0,X among T,349
vs12,julie,4,2,17-janv-13,1144,Ent1,500,400,2000,1,2,1.43687374694,1,L,16,z,1,319,,,,,,,,,,,,Vert,0,5,0,0,,,0,737,JULIE,241,0,0,871,3,3,0,L among T,350
vs12,julie,4,2,17-janv-13,1145,Ent1,500,400,2000,1,3,5.4198588859,1,L,8,a,1,383,,,,,,,,,,,,Rouge,0,1,0,0,,,0,0,JULIE,289.86,0,2,3144,7,7,0,L among T,351
vs12,julie,4,2,17-janv-13,1145,Ent1,500,400,2000,1,4,1.94023848005,1,X,16,a,1,514,,,,,,,,,,,,Rouge,0,1,0,0,,,0,646,JULIE,213,0,2,780,3,3,0,X among T,352
vs12,julie,4,2,17-janv-13,1145,Ent1,500,400,2000,1,5,3.5462631904,0,L,8,z,1,233,,,,,,,,,,,,Vert,0,1,0,0,,,0,547,JULIE,183.33,0,2,683,3,4,0,L among T,353
vs12,julie,4,2,17-janv-13,1145,Ent1,500,400,2000,1,6,3.20595614978,0,X,4,z,1,289,,,,,,,,,,,,Vert,0,3,0,0,,,0,402,JULIE,242,6.98,2,535,2,1,0,X among T,354
vs12,julie,4,2,17-janv-13,1145,Ent1,500,400,2000,1,7,5.00753222833,0,L,4,z,1,236,,,,,,,,,,,,Vert,0,4,0,0,,,0,701,JULIE,214.33,12.67,2,835,3,3,0,L among T,355
vs12,julie,4,2,17-janv-13,1145,Ent1,500,400,2000,1,8,2.34857500216,1,X,4,a,1,277,,,,,,,,,,,,Rouge,0,1,0,0,,,0,0,JULIE,370.67,6.59,2,3150,6,5,0,X among T,356
vs12,julie,4,2,17-janv-13,1145,Ent1,500,400,2000,1,9,6.1783564387,1,L,4,N,0,1500,,,,,,,,,,,,Rouge,0,2,0,0,,,0,0,JULIE,302.14,0,2,3147,7,8,0,L among T,357
vs12,julie,4,2,17-janv-13,1145,Ent1,500,400,2000,1,10,3.87625799903,0,L,16,z,1,232,,,,,,,,,,,,Vert,0,8,0,0,,,0,445,JULIE,263.5,6.95,2,578,2,1,0,L among T,358
vs12,julie,4,2,17-janv-13,1145,Ent1,500,400,2000,1,11,2.54966002213,0,X,16,z,1,220,,,,,,,,,,,,Vert,0,3,0,0,,,0,831,JULIE,212.25,4.82,2,965,4,3,0,X among T,359
vs12,julie,4,2,17-janv-13,1145,Ent1,500,400,2000,1,12,3.29027456503,0,X,8,z,1,244,,,,,,,,,,,,Vert,0,3,0,0,,,0,395,JULIE,241.5,7.28,2,531,2,1,0,X among T,360
vs12,julie,4,2,17-janv-13,1147,Ent2,500,400,2000,1,1,1.71456530724,0,X,4,z,0,379,,,,,,,,,A,30940,1,Rouge,0,1,0,0,,,0,0,JULIE,334.71,7.25,2,3146,7,6,0,X among T,361
vs12,julie,4,2,17-janv-13,1147,Ent2,500,400,2000,1,2,3.71003608221,0,L,16,a,1,498,,,,,,,,,A,2096,2,Rouge,0,3,0,0,,,0,1195,JULIE,242.6,3.74,0,1331,5,4,0,L among T,362
vs12,julie,4,2,17-janv-13,1147,Ent2,500,400,2000,1,3,3.91676707922,0,X,16,N,0,1500,,,,,,,,,A,7208,3,Vert,0,14,0,0,,,0,2694,JULIE,345.43,0,2,2827,7,7,0,X among T,363
vs12,julie,4,2,17-janv-13,1147,Ent2,500,400,2000,1,4,1.56688164043,0,X,8,z,1,560,,,,,,,,,A,1384,0,Vert,0,6,0,0,,,0,558,JULIE,198.33,7.17,2,693,3,2,0,X among T,364
vs12,julie,4,2,17-janv-13,1148,Ent2,500,400,2000,1,5,2.64939899781,1,X,8,a,1,327,,,,,,,,,A,1508,0,Rouge,0,3,0,0,,,0,344,JULIE,215,6.46,2,481,2,1,0,X among T,365
vs12,julie,4,2,17-janv-13,1148,Ent2,500,400,2000,1,6,1.46680212501,1,L,4,a,1,435,,,,,,,,,A,1960,0,Rouge,0,3,0,0,,,0,330,JULIE,206,7.54,2,464,2,1,0,L among T,366
vs12,julie,4,2,17-janv-13,1148,Ent2,500,400,2000,1,7,2.19617515238,1,L,16,a,1,505,,,,,,,,,B,1786,5,Rouge,0,13,0,0,,,0,1752,JULIE,185.88,5.37,2,1887,8,7,0,L among T,367
vs12,julie,4,2,17-janv-13,1148,Ent2,500,400,2000,1,8,4.43244270014,0,L,8,N,0,1500,,,,,,,,,A,3972,2,Vert,0,3,0,0,,,0,0,JULIE,327.14,7.32,2,3148,7,6,0,L among T,368
vs12,julie,4,2,17-janv-13,1148,Ent2,500,400,2000,1,9,1.27130187517,0,L,4,z,1,280,,,,,,,,,A,2447,0,Vert,0,4,0,0,,,0,2867,JULIE,258.5,8.52,2,3003,8,7,0,L among T,369
vs12,julie,4,2,17-janv-13,1148,Ent2,500,400,2000,1,10,2.66051675387,1,X,4,z,1,424,,,,,,,,,A,1803,1,Vert,0,3,0,0,,,0,1149,JULIE,172,8.71,2,1284,6,5,0,X among T,370
vs12,julie,4,2,17-janv-13,1148,Ent2,500,400,2000,1,11,1.95883460766,1,L,8,z,1,262,,,,,,,,,A,1500,2,Vert,0,3,0,0,,,0,841,JULIE,210.25,6.41,2,975,4,3,0,L among T,371
vs12,julie,4,2,17-janv-13,1148,Ent2,500,400,2000,1,12,1.43202216058,1,X,16,a,1,389,,,,,,,,,A,1875,2,Rouge,0,7,0,0,,,0,1377,JULIE,274.4,5.16,2,1514,5,4,0,X among T,372
vs12,julie,4,2,17-janv-13,1151,mixed,500,400,2000,1,1,5.96797545213,1,X,4,a,1,287,,,,,,,,,A,1960,0,Rouge,0,1,0,0,,,0,1400,JULIE,244.4,0,2,1557,5,5,0,X among T,373
vs12,julie,4,2,17-janv-13,1151,mixed,500,400,2000,1,2,0.509341729561,1,X,16,a,1,550,,,,,,,,,A,1167,0,Rouge,0,7,0,0,,,0,1016,JULIE,220.5,0,2,1148,4,4,0,X among T,374
vs12,julie,4,2,17-janv-13,1151,mixed,500,400,2000,1,3,4.7827323681,0,X,4,a,1,567,,,,,,,,,A,1161,0,Rouge,0,2,0,0,,,0,602,JULIE,308.5,0,2,735,2,2,0,X among T,375
vs12,julie,4,2,17-janv-13,1151,mixed,500,400,2000,1,4,3.61809010641,0,L,4,a,1,362,,,,,,,,,A,1289,2,Rouge,0,1,0,0,,,0,1309,JULIE,204.5,7.62,2,1445,6,5,0,L among T,376
vs12,julie,4,2,17-janv-13,1151,mixed,500,400,2000,1,5,5.65574219685,1,X,8,a,1,586,,,,,,,,,B,1383,5,Rouge,0,6,0,0,,,0,2091,JULIE,239,7.6,0,2224,8,7,0,X among T,377
vs12,julie,4,2,17-janv-13,1151,mixed,500,400,2000,1,6,6.08828271772,0,L,16,z,1,731,,,,,,,,,B,1646,4,Vert,0,14,0,0,,,0,2436,JULIE,249,5.62,2,2571,9,8,0,L among T,378
vs12,julie,4,2,17-janv-13,1151,mixed,500,400,2000,1,7,5.99679550518,1,L,8,a,1,263,,,,,,,,,A,1086,2,Rouge,0,6,0,0,,,0,620,JULIE,212.67,6.72,2,754,3,2,0,L among T,379
vs12,julie,4,2,17-janv-13,1151,mixed,500,400,2000,1,8,2.23892198999,1,X,4,a,1,275,,,,,,,,,A,1159,0,Rouge,0,2,0,0,,,0,395,JULIE,189.5,0,0,527,2,2,0,X among T,380
vs12,julie,4,2,17-janv-13,1151,mixed,500,400,2000,1,9,6.18671519078,1,X,8,a,1,281,,,,,,,,,A,1717,2,Rouge,0,5,0,0,,,0,899,JULIE,222.25,0,2,1035,4,4,0,X among T,381
vs12,julie,4,2,17-janv-13,1151,mixed,500,400,2000,1,10,1.12474658383,0,X,8,a,1,468,,,,,,,,,A,1609,1,Rouge,0,8,0,0,,,0,409,JULIE,246,7.17,2,543,2,1,0,X among T,382
vs12,julie,4,2,17-janv-13,1152,mixed,500,400,2000,1,11,2.29503600539,0,X,16,z,1,300,,,,,,,,,A,1326,0,Vert,0,3,0,0,,,0,907,JULIE,208,10.06,2,1043,4,3,0,X among T,383
vs12,julie,4,2,17-janv-13,1152,mixed,500,400,2000,1,12,4.02109486574,0,X,8,z,1,468,,,,,,,,,A,1437,0,Vert,0,5,0,0,,,0,315,JULIE,191,0,2,450,2,2,0,X among T,384
vs12,julie,4,2,17-janv-13,1152,mixed,500,400,2000,1,13,0.793874283725,0,X,4,a,1,343,,,,,,,,,A,1224,0,Rouge,0,1,0,0,,,0,790,JULIE,271.33,8.89,2,925,3,2,0,X among T,385
vs12,julie,4,2,17-janv-13,1152,mixed,500,400,2000,1,14,4.17504317472,0,X,16,z,1,363,,,,,,,,,A,1399,2,Vert,0,9,0,0,,,0,1141,JULIE,179.83,4.84,2,1277,6,5,0,X among T,386
vs12,julie,4,2,17-janv-13,1152,mixed,500,400,2000,1,15,3.19171249531,0,X,16,z,1,492,,,,,,,,,A,1415,0,Vert,0,10,0,0,,,0,734,JULIE,261,5.57,2,868,3,2,0,X among T,387
vs12,julie,4,2,17-janv-13,1152,mixed,500,400,2000,1,16,4.06213638586,0,L,4,z,1,475,,,,,,,,,A,1484,0,Vert,0,4,0,0,,,0,708,JULIE,251,3.06,2,843,3,3,0,L among T,388
vs12,julie,4,2,17-janv-13,1152,mixed,500,400,2000,1,17,1.25427128292,0,L,4,a,1,245,,,,,,,,,A,1539,0,Rouge,0,3,0,0,,,0,525,JULIE,194.33,4.13,2,660,3,2,0,L among T,389
vs12,julie,4,2,17-janv-13,1152,mixed,500,400,2000,1,18,0.837302490417,1,X,16,N,0,1500,,,,,,,,,A,1006,1,Vert,0,9,0,0,,,0,0,JULIE,315.14,5.72,0,3149,7,6,0,X among T,390
vs12,julie,4,2,17-janv-13,1152,mixed,500,400,2000,1,19,1.16683375979,1,L,16,z,1,429,,,,,,,,,A,878,1,Vert,0,16,0,0,,,0,1338,JULIE,206.83,6.77,2,1472,6,5,0,L among T,391
vs12,julie,4,2,17-janv-13,1152,mixed,500,400,2000,1,20,4.66727856668,0,L,8,a,1,333,,,,,,,,,A,1243,1,Rouge,0,6,0,0,,,0,1094,JULIE,275,6.89,2,1231,4,3,0,L among T,392
vs12,julie,4,2,17-janv-13,1152,mixed,500,400,2000,1,21,6.05782734366,1,L,16,a,1,321,,,,,,,,,A,965,0,Rouge,0,7,0,0,,,0,643,JULIE,235,4.69,2,777,3,2,0,L among T,393
vs12,julie,4,2,17-janv-13,1152,mixed,500,400,2000,1,22,1.1407749061,0,L,8,z,1,541,,,,,,,,,A,733,3,Vert,0,7,0,0,,,0,1750,JULIE,187.38,7.01,2,1885,8,8,0,L among T,394
vs12,julie,4,2,17-janv-13,1153,mixed,500,400,2000,1,23,3.76774420369,1,L,4,z,1,246,,,,,,,,,A,909,3,Vert,0,2,0,0,,,0,728,JULIE,253.67,6.93,2,863,3,2,0,L among T,395
vs12,julie,4,2,17-janv-13,1153,mixed,500,400,2000,1,24,2.03263454538,1,L,4,z,1,469,,,,,,,,,A,883,0,Vert,0,4,0,0,,,0,583,JULIE,143,8.15,2,717,4,3,0,L among T,396
vs12,julie,4,2,17-janv-13,1153,mixed,500,400,2000,1,25,3.81324308851,0,X,8,z,1,265,,,,,,,,,A,897,0,Vert,0,3,0,0,,,0,414,JULIE,160.33,3.98,0,551,3,2,0,X among T,397
vs12,julie,4,2,17-janv-13,1153,mixed,500,400,2000,1,26,2.40487448891,1,L,4,a,1,243,,,,,,,,,A,992,0,Rouge,0,2,0,0,,,0,952,JULIE,175.2,7.92,2,1086,5,4,0,L among T,398
vs12,julie,4,2,17-janv-13,1153,mixed,500,400,2000,1,27,0.301453888886,0,X,4,z,1,361,,,,,,,,,A,1108,0,Vert,0,2,0,0,,,0,867,JULIE,212.25,9.7,2,1002,4,3,0,X among T,399
vs12,julie,4,2,17-janv-13,1153,mixed,500,400,2000,1,28,3.67251579521,1,X,8,a,1,208,,,,,,,,,A,971,0,Rouge,0,6,0,0,,,0,295,JULIE,192.5,4.97,2,431,2,1,0,X among T,400
vs12,julie,4,2,17-janv-13,1153,mixed,500,400,2000,1,29,3.62542844148,1,L,16,z,1,522,,,,,,,,,A,1305,3,Vert,0,7,0,0,,,0,1902,JULIE,253.86,6.21,2,2038,7,6,0,L among T,401
vs12,julie,4,2,17-janv-13,1153,mixed,500,400,2000,1,30,2.40585374737,1,X,4,z,1,219,,,,,,,,,A,874,1,Vert,0,4,0,0,,,0,505,JULIE,175,9.14,2,642,3,2,0,X among T,402
vs12,julie,4,2,17-janv-13,1153,mixed,500,400,2000,1,31,5.3454896404,1,L,8,z,1,246,,,,,,,,,A,860,0,Vert,0,4,0,0,,,0,1962,JULIE,259.14,8.98,2,2099,7,6,0,L among T,403
vs12,julie,4,2,17-janv-13,1153,mixed,500,400,2000,1,32,4.35194720762,0,L,8,a,1,308,,,,,,,,,A,1288,2,Rouge,0,1,0,0,,,0,1940,JULIE,163.67,5.21,2,2074,6,5,0,L among T,404
vs12,julie,4,2,17-janv-13,1153,mixed,500,400,2000,1,33,2.7755710726,1,L,8,z,1,292,,,,,,,,,A,1204,1,Vert,0,4,0,0,,,0,571,JULIE,199,9.48,2,705,3,2,0,L among T,405
vs12,julie,4,2,17-janv-13,1154,mixed,500,400,2000,1,34,2.91767732709,0,L,16,N,0,1500,,,,,,,,,A,969,0,Rouge,0,8,0,0,,,0,0,JULIE,240,4.38,2,3149,7,6,0,L among T,406
vs12,julie,4,2,17-janv-13,1154,mixed,500,400,2000,1,35,2.44479487418,1,X,16,a,1,334,,,,,,,,,A,1150,3,Rouge,0,15,0,0,,,0,1064,JULIE,206,5.23,2,1199,5,4,0,X among T,407
vs12,julie,4,2,17-janv-13,1154,mixed,500,400,2000,1,36,2.00544892672,0,L,16,a,1,516,,,,,,,,,B,1375,5,Rouge,0,3,0,0,,,0,2566,JULIE,228,5.97,2,2700,10,9,0,L among T,408
vs12,julie,4,2,17-janv-13,1156,mixed,500,400,2000,2,1,0.26301481741,0,X,16,z,1,305,,,,,,,,,A,1152,0,Vert,0,5,0,0,,,0,871,JULIE,219.25,7.59,2,1033,4,4,0,X among T,409
vs12,julie,4,2,17-janv-13,1156,mixed,500,400,2000,2,2,5.97646965331,0,X,4,z,1,289,,,,,,,,,A,1116,0,Vert,0,3,0,0,,,0,581,JULIE,207,7.66,0,714,3,2,0,X among T,410
vs12,julie,4,2,17-janv-13,1156,mixed,500,400,2000,2,3,4.27733679745,0,L,4,z,1,255,,,,,,,,,A,1080,0,Vert,0,4,0,0,,,0,532,JULIE,126.75,0,2,667,4,4,0,L among T,411
vs12,julie,4,2,17-janv-13,1156,mixed,500,400,2000,2,4,4.82035415118,0,X,16,z,1,333,,,,,,,,,A,968,0,Vert,0,12,0,0,,,0,557,JULIE,193.33,9.9,2,690,3,2,0,X among T,412
vs12,julie,4,2,17-janv-13,1156,mixed,500,400,2000,2,5,3.59035731557,1,X,8,z,1,526,,,,,,,,,A,824,1,Vert,0,7,0,0,,,0,578,JULIE,199,0,2,714,3,3,0,X among T,413
vs12,julie,4,2,17-janv-13,1157,mixed,500,400,2000,2,6,4.87138585981,0,X,8,z,1,562,,,,,,,,,A,957,0,Vert,0,5,0,0,,,0,529,JULIE,196.33,4.76,2,665,3,2,0,X among T,414
vs12,julie,4,2,17-janv-13,1157,mixed,500,400,2000,2,7,4.70386638353,0,L,4,a,1,360,,,,,,,,,A,1118,2,Rouge,0,4,0,0,,,0,390,JULIE,222,6.72,2,525,2,2,0,L among T,415
vs12,julie,4,2,17-janv-13,1157,mixed,500,400,2000,2,8,5.71634193626,1,X,4,z,1,514,,,,,,,,,A,641,0,Vert,0,2,0,0,,,0,0,JULIE,256,10.72,2,3151,7,6,0,X among T,416
vs12,julie,4,2,17-janv-13,1157,mixed,500,400,2000,2,9,4.53105517331,0,L,8,a,1,311,,,,,,,,,A,979,3,Rouge,0,7,0,0,,,0,1182,JULIE,289,8.21,2,1317,4,3,0,L among T,417
vs12,julie,4,2,17-janv-13,1157,mixed,500,400,2000,2,10,5.05267141532,1,X,4,a,1,347,,,,,,,,,A,788,0,Rouge,0,1,0,0,,,0,481,JULIE,281,8.54,0,614,2,1,0,X among T,418
vs12,julie,4,2,17-janv-13,1157,mixed,500,400,2000,2,11,3.47266385861,1,L,16,a,1,677,,,,,,,,,A,1474,2,Rouge,0,16,0,0,,,0,2154,JULIE,219.22,5.47,2,2288,9,8,0,L among T,419
vs12,julie,4,2,17-janv-13,1157,mixed,500,400,2000,2,12,1.40229276318,1,X,8,a,1,392,,,,,,,,,A,885,0,Rouge,0,8,0,0,,,0,1761,JULIE,287.6,3.9,2,1896,5,4,0,X among T,420
vs12,julie,4,2,17-janv-13,1157,mixed,500,400,2000,2,13,5.78802554446,1,L,4,a,1,467,,,,,,,,,A,1080,0,Rouge,0,1,0,0,,,0,639,JULIE,153.75,0,2,772,4,4,0,L among T,421
vs12,julie,4,2,17-janv-13,1157,mixed,500,400,2000,2,14,5.07617959243,0,L,16,z,1,430,,,,,,,,,A,1000,2,Vert,0,6,0,0,,,0,389,JULIE,237,7.43,2,526,2,1,0,L among T,422
vs12,julie,4,2,17-janv-13,1157,mixed,500,400,2000,2,15,0.971465053846,1,L,8,z,1,328,,,,,,,,,A,922,2,Vert,0,5,0,0,,,0,1335,JULIE,209.67,6.44,2,1469,6,5,0,L among T,423
vs12,julie,4,2,17-janv-13,1157,mixed,500,400,2000,2,16,1.81553381858,1,X,16,a,1,344,,,,,,,,,A,718,1,Rouge,0,4,0,0,,,0,716,JULIE,177.75,5.53,2,850,4,4,0,X among T,424
vs12,julie,4,2,17-janv-13,1158,mixed,500,400,2000,2,17,0.229970516061,0,L,16,N,0,1500,,,,,,,,,A,827,1,Rouge,0,7,0,0,,,0,0,JULIE,227.33,5.21,2,3152,12,11,0,L among T,425
vs12,julie,4,2,17-janv-13,1158,mixed,500,400,2000,2,18,3.19922839151,1,L,8,z,1,413,,,,,,,,,B,1047,4,Vert,0,6,0,0,,,0,644,JULIE,233.33,4.7,2,779,3,2,0,L among T,426
vs12,julie,4,2,17-janv-13,1158,mixed,500,400,2000,2,19,3.10686650591,0,L,4,a,1,371,,,,,,,,,A,752,3,Rouge,0,2,0,0,,,0,889,JULIE,215.75,9.76,2,1023,4,3,0,L among T,427
vs12,julie,4,2,17-janv-13,1158,mixed,500,400,2000,2,20,0.0476659542966,1,X,16,a,1,387,,,,,,,,,A,949,1,Rouge,0,8,0,0,,,0,368,JULIE,226.5,7.54,2,504,2,1,0,X among T,428
vs12,julie,4,2,17-janv-13,1158,mixed,500,400,2000,2,21,2.30024427324,0,L,8,z,1,359,,,,,,,,,A,895,0,Vert,0,5,0,0,,,0,577,JULIE,219.33,2.49,2,712,3,2,0,L among T,429
vs12,julie,4,2,17-janv-13,1158,mixed,500,400,2000,2,22,4.75344255316,1,L,4,a,1,283,,,,,,,,,A,716,3,Rouge,0,2,0,0,,,0,966,JULIE,233.5,9.11,2,1101,4,3,0,L among T,430
vs12,julie,4,2,17-janv-13,1158,mixed,500,400,2000,2,23,2.43276182104,1,L,8,a,1,384,,,,,,,,,A,814,3,Rouge,0,4,0,0,,,0,1170,JULIE,226.2,6.59,2,1308,5,4,0,L among T,431
vs12,julie,4,2,17-janv-13,1158,mixed,500,400,2000,2,24,4.48545665302,0,X,16,a,1,516,,,,,,,,,A,900,1,Rouge,0,4,0,0,,,0,850,JULIE,214.5,4.63,0,984,4,3,0,X among T,432
vs12,julie,4,2,17-janv-13,1158,mixed,500,400,2000,2,25,1.51348893065,1,L,16,a,1,361,,,,,,,,,A,975,2,Rouge,0,8,0,0,,,0,1286,JULIE,245,7.37,2,1420,5,4,0,L among T,433
vs12,julie,4,2,17-janv-13,1158,mixed,500,400,2000,2,26,4.27314974207,1,X,8,z,1,261,,,,,,,,,A,1025,0,Vert,0,7,0,0,,,0,0,JULIE,269.2,6.42,2,3146,5,4,0,X among T,434
vs12,julie,4,2,17-janv-13,1158,mixed,500,400,2000,2,27,2.98286275988,0,X,8,a,1,317,,,,,,,,,A,646,2,Rouge,0,8,0,0,,,0,348,JULIE,214.5,7.81,2,482,2,1,0,X among T,435
vs12,julie,4,2,17-janv-13,1158,mixed,500,400,2000,2,28,4.72326190967,0,L,16,N,0,1500,,,,,,,,,A,1231,3,Vert,0,2,0,0,,,0,0,JULIE,231.75,3.59,2,3148,12,11,0,L among T,436
vs12,julie,4,2,17-janv-13,1159,mixed,500,400,2000,2,29,0.0674435889142,1,X,4,z,1,292,,,,,,,,,A,761,1,Vert,0,2,0,0,,,0,2842,JULIE,485.75,4.94,2,2979,4,3,0,X among T,437
vs12,julie,4,2,17-janv-13,1159,mixed,500,400,2000,2,30,4.91326042892,0,L,8,z,1,423,,,,,,,,,A,700,0,Vert,0,2,0,0,,,0,1078,JULIE,201,9.68,2,1213,5,4,0,L among T,438
vs12,julie,4,2,17-janv-13,1159,mixed,500,400,2000,2,31,3.581344879,0,X,4,z,1,524,,,,,,,,,A,702,0,Vert,0,1,0,0,,,0,330,JULIE,199,8.86,2,464,2,1,0,X among T,439
vs12,julie,4,2,17-janv-13,1159,mixed,500,400,2000,2,32,1.24899465637,1,L,4,z,1,266,,,,,,,,,A,748,0,Vert,0,2,0,0,,,0,0,JULIE,281.25,6.89,2,3151,8,7,0,L among T,440
vs12,julie,4,2,17-janv-13,1159,mixed,500,400,2000,2,33,1.70183465026,0,X,8,a,1,569,,,,,,,,,A,782,0,Rouge,0,6,0,0,,,0,350,JULIE,216,5.79,2,485,2,1,0,X among T,441
vs12,julie,4,2,17-janv-13,1159,mixed,500,400,2000,2,34,2.83240841931,1,L,16,N,0,1500,,,,,,,,,C,979,7,Rouge,0,16,0,0,,,0,0,JULIE,249.91,4.98,2,3147,11,10,0,L among T,442
vs12,julie,4,2,17-janv-13,1159,mixed,500,400,2000,2,35,0.609674674165,1,X,16,z,1,449,,,,,,,,,A,700,0,Vert,0,12,0,0,,,0,565,JULIE,174.67,3.84,2,702,3,3,0,X among T,443
vs12,julie,4,2,17-janv-13,1159,mixed,500,400,2000,2,36,0.162981972383,0,X,4,a,1,273,,,,,,,,,A,1107,2,Rouge,0,3,0,0,,,0,2115,JULIE,232.25,10.71,2,2249,8,7,0,X among T,444
vs12,julie,4,2,17-janv-13,1200,mixed,500,400,2000,3,1,4.08386122818,0,X,8,z,1,349,,,,,,,,,A,856,1,Vert,0,2,0,0,,,0,2291,JULIE,298.5,7.03,2,2423,4,3,0,X among T,445
vs12,julie,4,2,17-janv-13,1201,mixed,500,400,2000,3,2,3.23680844697,1,L,4,a,1,297,,,,,,,,,A,802,1,Rouge,0,4,0,0,,,0,366,JULIE,134.67,4.66,2,501,3,3,0,L among T,446
vs12,julie,4,2,17-janv-13,1201,mixed,500,400,2000,3,3,5.67301133395,0,L,4,a,1,320,,,,,,,,,A,668,0,Rouge,0,3,0,0,,,0,2274,JULIE,211,8.11,2,2411,6,5,0,L among T,447
vs12,julie,4,2,17-janv-13,1201,mixed,500,400,2000,3,4,5.52878524726,0,X,4,N,0,1500,,,,,,,,,A,763,3,Vert,0,2,0,0,,,0,0,JULIE,360.33,7.77,2,3142,6,6,0,X among T,448
vs12,julie,4,2,17-janv-13,1201,mixed,500,400,2000,3,5,5.77319461083,0,L,8,N,0,1500,,,,,,,,,A,952,0,Vert,0,1,0,0,,,0,0,JULIE,241.14,6.63,2,3145,7,6,0,L among T,449
vs12,julie,4,2,17-janv-13,1201,mixed,500,400,2000,3,6,4.44839478447,1,X,4,z,1,1274,,,,,,,,,A,861,2,Vert,0,3,0,0,,,0,1576,JULIE,218.5,4.66,2,1713,4,3,0,X among T,450
vs12,julie,4,2,17-janv-13,1201,mixed,500,400,2000,3,7,5.67628078871,0,X,8,a,1,370,,,,,,,,,A,678,1,Rouge,0,2,0,0,,,0,954,JULIE,235.5,8.88,2,1087,4,3,0,X among T,451
vs12,julie,4,2,17-janv-13,1201,mixed,500,400,2000,3,8,2.36493874307,1,L,4,a,1,493,,,,,,,,,A,1147,1,Rouge,0,2,0,0,,,0,531,JULIE,187.67,8.44,2,666,3,2,0,L among T,452
vs12,julie,4,2,17-janv-13,1201,mixed,500,400,2000,3,9,5.020163695,1,X,8,z,1,1117,,,,,,,,,A,827,1,Vert,0,7,0,0,,,0,549,JULIE,178.67,0,2,686,3,3,0,X among T,453
vs12,julie,4,2,17-janv-13,1201,mixed,500,400,2000,3,10,0.462946743837,1,X,16,a,1,306,,,,,,,,,A,614,1,Rouge,0,8,0,0,,,0,713,JULIE,180.25,5.62,2,847,4,3,0,X among T,454
vs12,julie,4,2,17-janv-13,1201,mixed,500,400,2000,3,11,5.88067659436,0,X,16,a,1,302,,,,,,,,,A,816,0,Rouge,0,13,0,0,,,0,333,JULIE,210,5.29,2,466,2,1,0,X among T,455
vs12,julie,4,2,17-janv-13,1201,mixed,500,400,2000,3,12,6.05373064535,1,X,8,a,1,311,,,,,,,,,A,653,2,Rouge,0,8,0,0,,,0,419,JULIE,156,7.29,0,556,3,2,0,X among T,456
vs12,julie,4,2,17-janv-13,1201,mixed,500,400,2000,3,13,1.9233953408,1,L,16,z,1,366,,,,,,,,,A,739,1,Vert,0,9,0,0,,,0,1076,JULIE,204.4,7.03,2,1211,5,4,0,L among T,457
vs12,julie,4,2,17-janv-13,1202,mixed,500,400,2000,3,14,0.204518295941,1,L,8,a,1,332,,,,,,,,,A,522,2,Rouge,0,3,0,0,,,0,1318,JULIE,206.83,6.41,2,1454,6,5,0,L among T,458
vs12,julie,4,2,17-janv-13,1202,mixed,500,400,2000,3,15,2.91121316207,1,X,4,a,1,410,,,,,,,,,A,694,0,Rouge,0,3,0,0,,,0,517,JULIE,191.67,6.05,2,652,3,2,0,X among T,459
vs12,julie,4,2,17-janv-13,1202,mixed,500,400,2000,3,16,4.54535776757,0,L,4,z,1,290,,,,,,,,,A,738,1,Vert,0,3,0,0,,,0,761,JULIE,262.33,9.23,2,894,3,2,0,L among T,460
vs12,julie,4,2,17-janv-13,1202,mixed,500,400,2000,3,17,1.12898816092,0,X,16,z,1,400,,,,,,,,,A,689,1,Vert,0,11,0,0,,,0,738,JULIE,253,0,0,872,3,3,0,X among T,461
vs12,julie,4,2,17-janv-13,1202,mixed,500,400,2000,3,18,2.82117510508,0,L,8,a,1,308,,,,,,,,,A,662,1,Rouge,0,5,0,0,,,0,1064,JULIE,200.6,8.46,2,1201,5,4,0,L among T,462
vs12,julie,4,2,17-janv-13,1202,mixed,500,400,2000,3,19,5.17781965026,0,X,16,N,0,1500,,,,,,,,,A,813,0,Vert,0,5,0,0,,,0,0,JULIE,255.38,10.14,0,3144,8,7,0,X among T,463
vs12,julie,4,2,17-janv-13,1202,mixed,500,400,2000,3,20,3.68968957421,1,L,8,N,0,1500,,,,,,,,,A,907,0,Rouge,0,7,0,0,,,0,0,JULIE,210.5,7.94,2,3151,10,10,0,L among T,464
vs12,julie,4,2,17-janv-13,1202,mixed,500,400,2000,3,21,5.78249870235,0,L,8,a,1,270,,,,,,,,,A,692,1,Rouge,0,4,0,0,,,0,1436,JULIE,250.2,0,2,1571,5,5,0,L among T,465
vs12,julie,4,2,17-janv-13,1202,mixed,500,400,2000,3,22,4.41214093631,1,L,8,a,1,322,,,,,,,,,A,957,2,Rouge,0,5,0,0,,,0,814,JULIE,199,8.19,2,950,4,3,0,L among T,466
vs12,julie,4,2,17-janv-13,1202,mixed,500,400,2000,3,23,3.24573748489,0,X,4,z,1,264,,,,,,,,,A,769,1,Vert,0,3,0,0,,,0,590,JULIE,185.67,0,2,724,3,3,0,X among T,467
vs12,julie,4,2,17-janv-13,1202,mixed,500,400,2000,3,24,4.13431429548,0,X,8,a,1,384,,,,,,,,,A,649,1,Rouge,0,8,0,0,,,0,0,JULIE,497.75,0,2,3149,4,4,0,X among T,468
vs12,julie,4,2,17-janv-13,1202,mixed,500,400,2000,3,25,1.25384243577,1,X,8,z,1,598,,,,,,,,,A,856,0,Vert,0,3,0,0,,,0,415,JULIE,246.5,8.82,2,550,2,1,0,X among T,469
vs12,julie,4,2,17-janv-13,1203,mixed,500,400,2000,3,26,4.27417145915,0,L,4,z,1,298,,,,,,,,,A,672,0,Vert,0,1,0,0,,,0,342,JULIE,213.5,5.9,2,476,2,1,0,L among T,470
vs12,julie,4,2,17-janv-13,1203,mixed,500,400,2000,3,27,2.62371441061,1,L,4,z,1,248,,,,,,,,,A,723,0,Vert,0,3,0,0,,,0,694,JULIE,161,0,2,831,4,4,0,L among T,471
vs12,julie,4,2,17-janv-13,1203,mixed,500,400,2000,3,28,5.26710013671,0,L,16,z,1,537,,,,,,,,,A,739,3,Vert,0,3,0,0,,,0,1205,JULIE,191.33,5.79,2,1340,6,5,0,L among T,472
vs12,julie,4,2,17-janv-13,1203,mixed,500,400,2000,3,29,1.92385609188,0,L,16,a,1,310,,,,,,,,,A,959,3,Rouge,0,15,0,0,,,0,1394,JULIE,275.6,5.34,2,1529,5,4,0,L among T,473
vs12,julie,4,2,17-janv-13,1203,mixed,500,400,2000,3,30,3.90994664348,0,L,16,a,1,387,,,,,,,,,A,1150,2,Rouge,0,10,0,0,,,0,0,JULIE,211.25,4.06,2,3153,12,11,0,L among T,474
vs12,julie,4,2,17-janv-13,1203,mixed,500,400,2000,3,31,1.77682149718,1,X,16,a,1,334,,,,,,,,,A,792,2,Rouge,0,12,0,0,,,0,374,JULIE,228,7.5,2,508,2,1,0,X among T,475
vs12,julie,4,2,17-janv-13,1203,mixed,500,400,2000,3,32,3.75612362655,1,L,16,a,0,554,,,,,,,,,A,2297,3,Vert,0,8,0,0,,,0,2568,JULIE,260.67,7.62,2,2704,9,8,0,L among T,476
vs12,julie,4,2,17-janv-13,1203,mixed,500,400,2000,3,33,4.00415937821,1,X,4,a,1,261,,,,,,,,,A,980,1,Rouge,0,3,0,0,,,0,450,JULIE,265,8.64,2,585,2,1,0,X among T,477
vs12,julie,4,2,17-janv-13,1203,mixed,500,400,2000,3,34,5.30857389884,1,L,16,z,1,488,,,,,,,,,A,666,3,Vert,0,1,0,0,,,0,1212,JULIE,232,6.19,2,1345,5,4,0,L among T,478
vs12,julie,4,2,17-janv-13,1203,mixed,500,400,2000,3,35,1.10294871978,0,X,4,z,1,383,,,,,,,,,A,725,1,Vert,0,4,0,0,,,0,1844,JULIE,239.5,5.33,2,1978,4,3,0,X among T,479
vs12,julie,4,2,17-janv-13,1203,mixed,500,400,2000,3,36,1.42425256989,1,X,16,z,1,289,,,,,,,,,A,638,1,Vert,0,9,0,0,,,0,432,JULIE,160.33,7.41,2,567,3,2,0,X among T,480
vs12,julie,4,2,17-janv-13,1206,mixed,500,400,2000,4,1,5.83560891289,0,X,8,z,1,386,,,,,,,,,A,955,2,Vert,0,3,0,0,,,0,1791,JULIE,202.6,10.17,2,1953,5,4,0,X among T,481
vs12,julie,4,2,17-janv-13,1206,mixed,500,400,2000,4,2,5.05226863727,0,L,8,z,1,260,,,,,,,,,A,592,1,Vert,0,4,0,0,,,0,1041,JULIE,199.8,6.22,2,1173,5,4,0,L among T,482
vs12,julie,4,2,17-janv-13,1206,mixed,500,400,2000,4,3,2.98610891497,0,X,4,a,1,229,,,,,,,,,A,686,1,Rouge,0,3,0,0,,,0,509,JULIE,173.67,0,2,645,3,3,0,X among T,483
vs12,julie,4,2,17-janv-13,1206,mixed,500,400,2000,4,4,1.59439271063,0,X,16,a,1,255,,,,,,,,,A,585,1,Rouge,0,5,0,0,,,0,734,JULIE,180.5,5.84,2,866,4,3,0,X among T,484
vs12,julie,4,2,17-janv-13,1206,mixed,500,400,2000,4,5,5.14664905789,0,X,16,a,1,246,,,,,,,,,A,632,1,Rouge,0,12,0,0,,,0,330,JULIE,204.5,7.7,2,463,2,1,0,X among T,485
vs12,julie,4,2,17-janv-13,1206,mixed,500,400,2000,4,6,4.22182159442,0,L,4,z,1,249,,,,,,,,,A,675,2,Vert,0,4,0,0,,,0,609,JULIE,210.67,10.01,0,747,3,2,0,L among T,486
vs12,julie,4,2,17-janv-13,1206,mixed,500,400,2000,4,7,0.214302718215,0,X,8,z,1,204,,,,,,,,,A,664,1,Vert,0,6,0,0,,,0,357,JULIE,220.5,7.08,2,491,2,1,0,X among T,487
vs12,julie,4,2,17-janv-13,1206,mixed,500,400,2000,4,8,4.90335421009,0,L,4,a,1,284,,,,,,,,,A,682,0,Rouge,0,2,0,0,,,0,855,JULIE,202.5,10.39,2,988,4,3,0,L among T,488
vs12,julie,4,2,17-janv-13,1206,mixed,500,400,2000,4,9,1.51049794139,0,X,4,a,1,291,,,,,,,,,A,730,0,Rouge,0,2,0,0,,,0,525,JULIE,173.67,0,2,661,3,3,0,X among T,489
vs12,julie,4,2,17-janv-13,1206,mixed,500,400,2000,4,10,4.28837860486,1,X,4,a,1,241,,,,,,,,,A,700,0,Rouge,0,3,0,0,,,0,317,JULIE,202,5.85,2,455,2,1,0,X among T,490
vs12,julie,4,2,17-janv-13,1206,mixed,500,400,2000,4,11,2.21403281476,0,X,16,a,1,404,,,,,,,,,A,667,0,Rouge,0,3,0,0,,,0,524,JULIE,184.67,6.13,2,656,3,2,0,X among T,491
vs12,julie,4,2,17-janv-13,1206,mixed,500,400,2000,4,12,5.30954404709,1,X,4,z,1,458,,,,,,,,,A,600,1,Vert,0,1,0,0,,,0,616,JULIE,211,8.38,2,750,3,2,0,X among T,492
vs12,julie,4,2,17-janv-13,1206,mixed,500,400,2000,4,13,3.71035345492,1,L,8,z,1,470,,,,,,,,,A,824,3,Vert,0,7,0,0,,,0,674,JULIE,234,7.29,2,810,3,2,0,L among T,493
vs12,julie,4,2,17-janv-13,1207,mixed,500,400,2000,4,14,5.26516822517,1,X,4,N,0,1500,,,,,,,,,A,715,0,Rouge,0,2,0,0,,,0,0,JULIE,481,5.53,2,3144,5,4,0,X among T,494
vs12,julie,4,2,17-janv-13,1207,mixed,500,400,2000,4,15,0.694120660526,0,X,8,a,1,306,,,,,,,,,A,650,1,Rouge,0,2,0,0,,,0,351,JULIE,218,6.08,2,486,2,1,0,X among T,495
vs12,julie,4,2,17-janv-13,1207,mixed,500,400,2000,4,16,4.53126895922,1,X,8,a,1,310,,,,,,,,,A,618,0,Rouge,0,2,0,0,,,0,517,JULIE,187,5.28,2,654,3,2,0,X among T,496
vs12,julie,4,2,17-janv-13,1207,mixed,500,400,2000,4,17,5.3013717325,0,L,16,z,1,367,,,,,,,,,B,789,4,Vert,0,11,0,0,,,0,2509,JULIE,223,5.28,2,2641,10,10,0,L among T,497
vs12,julie,4,2,17-janv-13,1207,mixed,500,400,2000,4,18,4.19554185468,1,L,8,z,1,440,,,,,,,,,A,570,2,Vert,0,7,0,0,,,0,847,JULIE,208,6.59,2,982,4,3,0,L among T,498
vs12,julie,4,2,17-janv-13,1207,mixed,500,400,2000,4,19,5.52899673708,1,L,16,z,1,434,,,,,,,,,A,726,2,Vert,0,11,0,0,,,0,1553,JULIE,245.17,5.65,2,1689,6,5,0,L among T,499
vs12,julie,4,2,17-janv-13,1207,mixed,500,400,2000,4,20,4.6560810705,1,X,8,a,0,501,,,,,,,,,C,1402,6,Vert,0,6,0,0,,,0,762,JULIE,192.5,5.8,2,895,4,3,0,X among T,500
vs12,julie,4,2,17-janv-13,1207,mixed,500,400,2000,4,21,1.25605041316,1,X,16,z,1,457,,,,,,,,,C,1221,6,Vert,0,11,0,0,,,0,2210,JULIE,252.75,7.13,2,2345,8,7,0,X among T,501
vs12,julie,4,2,17-janv-13,1207,mixed,500,400,2000,4,22,2.03860759176,1,L,8,a,1,308,,,,,,,,,A,749,1,Rouge,0,2,0,0,,,0,1293,JULIE,249.6,7.08,2,1429,5,4,0,L among T,502
vs12,julie,4,2,17-janv-13,1207,mixed,500,400,2000,4,23,0.567424584296,1,X,8,N,0,1500,,,,,,,,,A,1270,3,Vert,0,4,0,0,,,0,0,JULIE,326.25,7.13,2,3141,8,7,0,X among T,503
vs12,julie,4,2,17-janv-13,1207,mixed,500,400,2000,4,24,2.35052558811,1,L,4,z,1,244,,,,,,,,,A,670,2,Vert,0,1,0,0,,,0,291,JULIE,189,4.84,2,425,2,1,0,L among T,504
vs12,julie,4,2,17-janv-13,1207,mixed,500,400,2000,4,25,0.21559693037,1,L,16,z,1,408,,,,,,,,,A,683,1,Vert,0,6,0,0,,,0,515,JULIE,201.67,1.49,2,651,3,2,0,L among T,505
vs12,julie,4,2,17-janv-13,1207,mixed,500,400,2000,4,26,0.478039433076,1,L,4,a,1,340,,,,,,,,,A,743,3,Rouge,0,2,0,0,,,0,2395,JULIE,248.25,10.18,2,2529,8,7,0,L among T,506
vs12,julie,4,2,17-janv-13,1208,mixed,500,400,2000,4,27,1.13487924009,0,L,8,a,1,309,,,,,,,,,A,703,2,Rouge,0,1,0,0,,,0,336,JULIE,209.5,6.73,2,470,2,1,0,L among T,507
vs12,julie,4,2,17-janv-13,1208,mixed,500,400,2000,4,28,1.99195663309,1,L,16,z,1,306,,,,,,,,,A,861,3,Vert,0,11,0,0,,,0,2304,JULIE,233.78,5.26,2,2442,9,8,0,L among T,508
vs12,julie,4,2,17-janv-13,1208,mixed,500,400,2000,4,29,5.04344783275,0,L,8,a,1,351,,,,,,,,,A,736,2,Rouge,0,7,0,0,,,0,665,JULIE,201.67,10.48,2,797,3,3,0,L among T,509
vs12,julie,4,2,17-janv-13,1208,mixed,500,400,2000,4,30,2.52790485299,0,X,4,N,0,1500,,,,,,,,,A,855,0,Rouge,0,1,0,0,,,0,0,JULIE,353,5.05,2,3149,5,4,0,X among T,510
vs12,julie,4,2,17-janv-13,1208,mixed,500,400,2000,4,31,1.35857695308,1,X,16,a,1,277,,,,,,,,,A,624,1,Rouge,0,7,0,0,,,0,546,JULIE,198.67,4.35,2,682,3,2,0,X among T,511
vs12,julie,4,2,17-janv-13,1208,mixed,500,400,2000,4,32,0.674371985737,1,X,16,z,1,263,,,,,,,,,A,663,2,Vert,0,1,0,0,,,0,491,JULIE,179.33,5.18,2,625,3,2,0,X among T,512
vs12,julie,4,2,17-janv-13,1208,mixed,500,400,2000,4,33,6.07637180179,0,L,16,a,1,769,,,,,,,,,A,1281,3,Rouge,0,13,0,0,,,0,2973,JULIE,274.2,5.54,2,3109,10,9,0,L among T,513
vs12,julie,4,2,17-janv-13,1208,mixed,500,400,2000,4,34,4.24137111248,0,L,4,a,1,322,,,,,,,,,B,725,4,Rouge,0,3,0,0,,,0,349,JULIE,208,0,2,485,2,2,0,L among T,514
vs12,julie,4,2,17-janv-13,1208,mixed,500,400,2000,4,35,4.17267490093,0,L,16,N,0,1500,,,,,,,,,C,1243,7,Vert,0,15,0,0,,,0,0,JULIE,254.09,4.64,2,3143,11,10,0,L among T,515
vs12,julie,4,2,17-janv-13,1208,mixed,500,400,2000,4,36,2.47475937962,1,L,4,z,1,330,,,,,,,,,A,698,1,Vert,0,3,0,0,,,0,528,JULIE,183.33,9.11,2,662,3,2,0,L among T,516
vs12,julie,4,2,17-janv-13,1210,mixed,500,400,2000,5,1,4.49919269319,0,X,4,N,0,1500,,,,,,,,,A,1065,0,Vert,0,1,0,0,,,0,0,JULIE,473,9.76,2,3145,5,4,0,X among T,517
vs12,julie,4,2,17-janv-13,1210,mixed,500,400,2000,5,2,2.05676599082,1,L,16,z,1,337,,,,,,,,,A,724,1,Vert,0,9,0,0,,,0,1468,JULIE,219.33,5.51,2,1605,6,6,0,L among T,518
vs12,julie,4,2,17-janv-13,1210,mixed,500,400,2000,5,3,4.62374351435,1,X,16,a,1,290,,,,,,,,,A,603,3,Rouge,0,5,0,0,,,0,962,JULIE,175.4,5.12,2,1095,5,5,0,X among T,519
vs12,julie,4,2,17-janv-13,1210,mixed,500,400,2000,5,4,2.78557545232,0,X,8,N,0,1500,,,,,,,,,A,1052,2,Rouge,0,8,0,0,,,0,0,JULIE,404.17,11.98,2,3152,6,5,0,X among T,520
vs12,julie,4,2,17-janv-13,1210,mixed,500,400,2000,5,5,0.561849918772,0,L,16,a,0,505,,,,,,,,,B,832,5,Vert,0,1,0,0,,,0,0,JULIE,224,6.81,2,3150,12,11,0,L among T,521
vs12,julie,4,2,17-janv-13,1210,mixed,500,400,2000,5,6,0.818004547034,1,X,16,z,1,335,,,,,,,,,A,890,1,Vert,0,10,0,0,,,0,591,JULIE,203,0,2,724,3,3,0,X among T,522
vs12,julie,4,2,17-janv-13,1210,mixed,500,400,2000,5,7,5.55910825649,0,L,4,a,1,249,,,,,,,,,A,808,1,Rouge,0,4,0,0,,,0,970,JULIE,172.8,0,2,1103,5,5,0,L among T,523
vs12,julie,4,2,17-janv-13,1210,mixed,500,400,2000,5,8,2.40412183677,1,X,4,z,1,300,,,,,,,,,A,783,2,Vert,0,2,0,0,,,0,560,JULIE,196.67,9.11,2,696,3,2,0,X among T,524
vs12,julie,4,2,17-janv-13,1210,mixed,500,400,2000,5,9,3.41197001547,0,L,8,z,1,365,,,,,,,,,A,615,1,Vert,0,4,0,0,,,0,306,JULIE,196.5,4.88,2,439,2,1,0,L among T,525
vs12,julie,4,2,17-janv-13,1210,mixed,500,400,2000,5,10,3.06435847645,0,L,4,z,1,277,,,,,,,,,A,698,0,Vert,0,1,0,0,,,0,322,JULIE,204,6.37,2,457,2,1,0,L among T,526
vs12,julie,4,2,17-janv-13,1210,mixed,500,400,2000,5,11,5.11905210405,1,X,8,z,1,352,,,,,,,,,A,680,0,Vert,0,2,0,0,,,0,422,JULIE,250.5,8.47,2,559,2,1,0,X among T,527
vs12,julie,4,2,17-janv-13,1210,mixed,500,400,2000,5,12,1.34940781047,1,X,4,a,1,204,,,,,,,,,A,645,1,Rouge,0,1,0,0,,,0,509,JULIE,179.67,8.35,2,643,3,2,0,X among T,528
vs12,julie,4,2,17-janv-13,1211,mixed,500,400,2000,5,13,2.91688074576,1,X,8,a,1,369,,,,,,,,,A,632,0,Rouge,0,8,0,0,,,0,510,JULIE,163.67,0,0,646,3,3,0,X among T,529
vs12,julie,4,2,17-janv-13,1211,mixed,500,400,2000,5,14,5.52612203542,1,L,16,a,1,371,,,,,,,,,A,574,0,Rouge,0,12,0,0,,,0,2107,JULIE,238.5,8.79,2,2244,8,7,0,L among T,530
vs12,julie,4,2,17-janv-13,1211,mixed,500,400,2000,5,15,0.470990754218,0,L,8,z,1,318,,,,,,,,,A,559,3,Vert,0,6,0,0,,,0,1672,JULIE,215.57,0,2,1806,7,7,0,L among T,531
vs12,julie,4,2,17-janv-13,1211,mixed,500,400,2000,5,16,5.71146352628,1,X,4,z,1,439,,,,,,,,,A,971,1,Vert,0,2,0,0,,,0,2156,JULIE,221.5,12.25,2,2289,6,5,0,X among T,532
vs12,julie,4,2,17-janv-13,1211,mixed,500,400,2000,5,17,3.20036544271,1,X,16,z,1,311,,,,,,,,,A,671,1,Vert,0,9,0,0,,,0,523,JULIE,182.67,10.2,2,660,3,2,0,X among T,533
vs12,julie,4,2,17-janv-13,1211,mixed,500,400,2000,5,18,5.30175016639,1,L,8,a,1,312,,,,,,,,,A,685,1,Rouge,0,3,0,0,,,0,1161,JULIE,222.4,7.27,2,1296,5,4,0,L among T,534
vs12,julie,4,2,17-janv-13,1211,mixed,500,400,2000,5,19,0.5695175566,0,X,8,z,1,371,,,,,,,,,A,827,2,Vert,0,4,0,0,,,0,609,JULIE,205.67,0,2,743,3,3,0,X among T,535
vs12,julie,4,2,17-janv-13,1211,mixed,500,400,2000,5,20,4.0032414033,0,X,16,a,1,311,,,,,,,,,A,549,1,Rouge,0,11,0,0,,,0,564,JULIE,210,4.39,2,700,3,2,0,X among T,536
vs12,julie,4,2,17-janv-13,1211,mixed,500,400,2000,5,21,0.736217083603,1,L,4,z,1,303,,,,,,,,,A,640,1,Vert,0,3,0,0,,,0,518,JULIE,185,8.13,2,652,3,2,0,L among T,537
vs12,julie,4,2,17-janv-13,1211,mixed,500,400,2000,5,22,2.2693589541,1,L,8,a,1,371,,,,,,,,,A,592,3,Rouge,0,6,0,0,,,0,1054,JULIE,258.25,7.38,2,1188,4,3,0,L among T,538
vs12,julie,4,2,17-janv-13,1211,mixed,500,400,2000,5,23,5.71495151762,1,X,8,a,1,246,,,,,,,,,A,683,1,Rouge,0,4,0,0,,,0,462,JULIE,273,8.01,2,598,2,1,0,X among T,539
vs12,julie,4,2,17-janv-13,1211,mixed,500,400,2000,5,24,5.32357569388,1,L,4,z,1,383,,,,,,,,,A,701,2,Vert,0,3,0,0,,,0,1189,JULIE,221.4,8.76,2,1323,5,4,0,L among T,540
vs12,julie,4,2,17-janv-13,1211,mixed,500,400,2000,5,25,3.83799812714,1,L,16,z,1,467,,,,,,,,,A,825,2,Vert,0,4,0,0,,,0,1468,JULIE,285.6,6.83,2,1602,5,4,0,L among T,541
vs12,julie,4,2,17-janv-13,1212,mixed,500,400,2000,5,26,0.141343365326,0,X,16,a,1,428,,,,,,,,,A,841,1,Rouge,0,15,0,0,,,0,589,JULIE,211.67,6.5,2,725,3,2,0,X among T,542
vs12,julie,4,2,17-janv-13,1212,mixed,500,400,2000,5,27,0.0746178692741,0,L,4,a,1,284,,,,,,,,,A,663,1,Rouge,0,2,0,0,,,0,549,JULIE,190.67,7.71,2,684,3,2,0,L among T,543
vs12,julie,4,2,17-janv-13,1212,mixed,500,400,2000,5,28,5.46663977004,0,X,4,a,1,276,,,,,,,,,A,658,0,Rouge,0,1,0,0,,,0,610,JULIE,196.67,0,2,743,3,3,0,X among T,544
vs12,julie,4,2,17-janv-13,1212,mixed,500,400,2000,5,29,0.187974395972,0,X,16,z,1,366,,,,,,,,,A,765,1,Vert,0,5,0,0,,,0,2136,JULIE,251,4.71,2,2272,6,5,0,X among T,545
vs12,julie,4,2,17-janv-13,1212,mixed,500,400,2000,5,30,5.32030800381,0,X,8,a,1,355,,,,,,,,,A,667,1,Rouge,0,1,0,0,,,0,506,JULIE,167.67,0,2,640,3,3,0,X among T,546
vs12,julie,4,2,17-janv-13,1212,mixed,500,400,2000,5,31,6.22153337913,1,L,4,N,0,1500,,,,,,,,,A,780,1,Vert,0,4,0,0,,,0,0,JULIE,320,6.73,2,3142,8,7,0,L among T,547
vs12,julie,4,2,17-janv-13,1212,mixed,500,400,2000,5,32,5.03291238025,0,X,4,z,1,285,,,,,,,,,A,608,1,Vert,0,2,0,0,,,0,458,JULIE,230.5,6.54,2,593,2,2,0,X among T,548
vs12,julie,4,2,17-janv-13,1212,mixed,500,400,2000,5,33,0.0697480794909,0,L,16,z,1,379,,,,,,,,,A,560,1,Vert,0,13,0,0,,,0,0,JULIE,283.1,4.82,2,3145,10,9,0,L among T,549
vs12,julie,4,2,17-janv-13,1212,mixed,500,400,2000,5,34,4.64010767151,1,L,8,N,0,1500,,,,,,,,,A,1012,1,Vert,0,4,0,0,,,0,0,JULIE,298.62,5.03,2,3144,8,7,0,L among T,550
vs12,julie,4,2,17-janv-13,1212,mixed,500,400,2000,5,35,3.89944626733,0,L,8,a,1,311,,,,,,,,,A,639,2,Rouge,0,6,0,0,,,0,1759,JULIE,231.86,0,2,1896,7,7,0,L among T,551
vs12,julie,4,2,17-janv-13,1212,mixed,500,400,2000,5,36,1.48542046402,0,L,16,z,1,500,,,,,,,,,B,719,5,Vert,0,12,0,0,,,0,2521,JULIE,259.67,6.53,2,2658,9,8,0,L among T,552
vs12,julie,4,2,17-janv-13,1213,mixed,500,400,2000,6,1,1.1913649877,0,L,4,a,1,534,,,,,,,,,A,766,3,Rouge,0,4,0,0,,,0,922,JULIE,224.5,9.05,2,1054,4,3,0,L among T,553
vs12,julie,4,2,17-janv-13,1213,mixed,500,400,2000,6,2,6.26989829845,0,L,8,z,1,426,,,,,,,,,A,701,3,Vert,0,1,0,0,,,0,1734,JULIE,223.57,0,2,1870,7,7,0,L among T,554
vs12,julie,4,2,17-janv-13,1214,mixed,500,400,2000,6,3,2.99433132553,1,X,16,a,1,745,,,,,,,,,A,1042,3,Rouge,0,16,0,0,,,0,2577,JULIE,239.4,4.41,2,2710,10,9,0,X among T,555
vs12,julie,4,2,17-janv-13,1214,mixed,500,400,2000,6,4,0.798949432217,0,X,8,z,1,477,,,,,,,,,A,842,0,Vert,0,2,0,0,,,0,429,JULIE,254,8.62,2,564,2,1,0,X among T,556
vs12,julie,4,2,17-janv-13,1214,mixed,500,400,2000,6,5,0.634573263048,0,X,4,z,1,260,,,,,,,,,A,756,0,Vert,0,3,0,0,,,0,343,JULIE,213,7.59,2,478,2,1,0,X among T,557
vs12,julie,4,2,17-janv-13,1214,mixed,500,400,2000,6,6,0.987028157059,0,X,8,a,1,263,,,,,,,,,A,1061,0,Rouge,0,2,0,0,,,0,825,JULIE,191.75,0,2,958,4,4,0,X among T,558
vs12,julie,4,2,17-janv-13,1214,mixed,500,400,2000,6,7,4.88493107429,0,X,16,z,1,323,,,,,,,,,A,961,0,Vert,0,13,0,0,,,0,745,JULIE,190.25,0,2,880,4,4,0,X among T,559
vs12,julie,4,2,17-janv-13,1214,mixed,500,400,2000,6,8,0.245308586042,0,X,4,a,1,326,,,,,,,,,A,972,2,Rouge,0,1,0,0,,,0,518,JULIE,180.67,0,2,655,3,3,0,X among T,560
vs12,julie,4,2,17-janv-13,1214,mixed,500,400,2000,6,9,3.9717958711,0,L,16,a,1,334,,,,,,,,,A,859,3,Rouge,0,9,0,0,,,0,2182,JULIE,292.71,6.51,2,2315,7,6,0,L among T,561
vs12,julie,4,2,17-janv-13,1214,mixed,500,400,2000,6,10,1.96588237606,1,L,4,z,1,311,,,,,,,,,A,600,1,Vert,0,3,0,0,,,0,2245,JULIE,268.25,6.34,2,2380,4,3,0,L among T,562
vs12,julie,4,2,17-janv-13,1214,mixed,500,400,2000,6,11,2.20649541557,0,L,16,N,0,1500,,,,,,,,,C,771,6,Rouge,0,7,0,0,,,0,0,JULIE,248,6.47,2,3149,11,10,0,L among T,563
vs12,julie,4,2,17-janv-13,1214,mixed,500,400,2000,6,12,3.38270905615,1,X,4,a,1,277,,,,,,,,,A,840,0,Rouge,0,4,0,0,,,0,412,JULIE,246.5,8.09,2,546,2,1,0,X among T,564
vs12,julie,4,2,17-janv-13,1214,mixed,500,400,2000,6,13,1.2538793505,1,L,8,a,1,282,,,,,,,,,A,683,2,Rouge,0,2,0,0,,,0,751,JULIE,189.5,0,2,886,4,4,0,L among T,565
vs12,julie,4,2,17-janv-13,1214,mixed,500,400,2000,6,14,4.63462587957,0,L,4,a,1,291,,,,,,,,,A,937,2,Rouge,0,4,0,0,,,0,612,JULIE,219,7.29,2,748,3,2,0,L among T,566
vs12,julie,4,2,17-janv-13,1215,mixed,500,400,2000,6,15,2.52103486928,0,L,4,a,1,337,,,,,,,,,A,747,1,Rouge,0,2,0,0,,,0,592,JULIE,207,8.13,2,726,3,2,0,L among T,567
vs12,julie,4,2,17-janv-13,1215,mixed,500,400,2000,6,16,2.9313041356,1,X,16,z,1,457,,,,,,,,,A,686,0,Vert,0,15,0,0,,,0,456,JULIE,270,5.94,2,591,2,1,0,X among T,568
vs12,julie,4,2,17-janv-13,1215,mixed,500,400,2000,6,17,1.1547134053,1,L,8,z,1,339,,,,,,,,,A,641,0,Vert,0,8,0,0,,,0,931,JULIE,237.75,5.13,2,1067,4,3,0,L among T,569
vs12,julie,4,2,17-janv-13,1215,mixed,500,400,2000,6,18,5.09289217583,1,L,16,z,1,426,,,,,,,,,A,798,2,Vert,0,10,0,0,,,0,1144,JULIE,225.2,6.03,2,1278,5,4,0,L among T,570
vs12,julie,4,2,17-janv-13,1215,mixed,500,400,2000,6,19,1.68431596535,0,X,8,z,1,507,,,,,,,,,A,642,1,Vert,0,3,0,0,,,0,515,JULIE,190.67,4.99,2,650,3,2,0,X among T,571
vs12,julie,4,2,17-janv-13,1215,mixed,500,400,2000,6,20,4.69882244589,0,X,16,a,1,548,,,,,,,,,A,755,0,Rouge,0,10,0,0,,,0,717,JULIE,191.25,4.07,2,855,4,3,0,X among T,572
vs12,julie,4,2,17-janv-13,1215,mixed,500,400,2000,6,21,4.36277830133,0,X,16,a,1,260,,,,,,,,,A,1093,0,Rouge,0,10,0,0,,,0,379,JULIE,229.5,7.24,0,513,2,1,0,X among T,573
vs12,julie,4,2,17-janv-13,1215,mixed,500,400,2000,6,22,2.21219116062,1,L,8,z,1,331,,,,,,,,,B,861,4,Vert,0,4,0,0,,,0,1604,JULIE,249.5,7.45,2,1738,6,5,0,L among T,574
vs12,julie,4,2,17-janv-13,1215,mixed,500,400,2000,6,23,1.20033247258,1,X,4,z,1,434,,,,,,,,,A,842,0,Vert,0,2,0,0,,,0,428,JULIE,255.5,8.31,2,564,2,1,0,X among T,575
vs12,julie,4,2,17-janv-13,1215,mixed,500,400,2000,6,24,0.310163486976,0,L,8,z,1,233,,,,,,,,,A,740,1,Vert,0,4,0,0,,,0,557,JULIE,203.67,0,2,691,3,3,0,L among T,576
vs12,julie,4,2,17-janv-13,1215,mixed,500,400,2000,6,25,5.73181519116,1,L,4,z,1,550,,,,,,,,,A,709,3,Vert,0,2,0,0,,,0,1763,JULIE,182.8,5.04,2,1897,5,4,0,L among T,577
vs12,julie,4,2,17-janv-13,1215,mixed,500,400,2000,6,26,2.94528043892,1,X,16,z,1,576,,,,,,,,,A,482,0,Vert,0,5,0,0,,,0,603,JULIE,210.33,0,2,740,3,3,0,X among T,578
vs12,julie,4,2,17-janv-13,1215,mixed,500,400,2000,6,27,0.936897624057,0,X,4,a,1,500,,,,,,,,,A,741,0,Rouge,0,2,0,0,,,0,631,JULIE,215.67,10.58,2,765,3,2,0,X among T,579
vs12,julie,4,2,17-janv-13,1216,mixed,500,400,2000,6,28,3.44638719283,1,L,16,z,1,543,,,,,,,,,B,778,5,Vert,0,8,0,0,,,0,1881,JULIE,217.12,5.97,2,2015,8,7,0,L among T,580
vs12,julie,4,2,17-janv-13,1216,mixed,500,400,2000,6,29,1.26192168678,1,X,8,z,1,341,,,,,,,,,A,740,2,Vert,0,8,0,0,,,0,383,JULIE,233,9.02,2,520,2,1,0,X among T,581
vs12,julie,4,2,17-janv-13,1216,mixed,500,400,2000,6,30,2.57328448075,1,L,16,a,1,309,,,,,,,,,A,1135,2,Rouge,0,6,0,0,,,0,1400,JULIE,268.2,7.66,2,1534,5,4,0,L among T,582
vs12,julie,4,2,17-janv-13,1216,mixed,500,400,2000,6,31,5.92344826111,0,L,8,z,1,479,,,,,,,,,B,679,4,Vert,0,1,0,0,,,0,1770,JULIE,176.11,5.1,2,1905,9,8,0,L among T,583
vs12,julie,4,2,17-janv-13,1216,mixed,500,400,2000,6,32,0.566142633627,1,L,4,a,1,518,,,,,,,,,A,520,1,Rouge,0,3,0,0,,,0,864,JULIE,207.25,9.3,2,999,4,3,0,L among T,584
vs12,julie,4,2,17-janv-13,1216,mixed,500,400,2000,6,33,2.24525757613,0,L,16,z,1,457,,,,,,,,,A,598,3,Vert,0,4,0,0,,,0,1014,JULIE,254.25,7.65,2,1148,4,3,0,L among T,585
vs12,julie,4,2,17-janv-13,1216,mixed,500,400,2000,6,34,3.56016315004,1,X,8,a,1,377,,,,,,,,,A,645,1,Rouge,0,5,0,0,,,0,586,JULIE,179.33,0,2,721,3,3,0,X among T,586
vs12,julie,4,2,17-janv-13,1216,mixed,500,400,2000,6,35,3.120672108,1,X,4,N,0,1500,,,,,,,,,A,701,1,Rouge,0,1,0,0,,,0,0,JULIE,322.67,7.74,2,3153,6,5,0,X among T,587
vs12,julie,4,2,17-janv-13,1216,mixed,500,400,2000,6,36,3.05567174904,1,X,8,a,1,335,,,,,,,,,A,848,2,Rouge,0,7,0,0,,,0,382,JULIE,233,7.09,2,517,2,1,0,X among T,588
vs12,julie,4,2,17-janv-13,1218,mixed,500,400,2000,7,1,0.0934262154488,1,X,4,a,1,500,,,,,,,,,A,677,2,Rouge,0,2,0,0,,,0,1914,JULIE,179.25,12.25,2,2071,4,3,0,X among T,589
vs12,julie,4,2,17-janv-13,1218,mixed,500,400,2000,7,2,5.57663572488,1,L,16,z,1,448,,,,,,,,,A,603,3,Vert,0,7,0,0,,,0,1542,JULIE,206,5.14,2,1674,7,6,0,L among T,590
vs12,julie,4,2,17-janv-13,1218,mixed,500,400,2000,7,3,3.18220677442,0,L,16,a,1,497,,,,,,,,,B,770,5,Rouge,0,7,0,0,,,0,2179,JULIE,226.44,4.47,2,2312,9,8,0,L among T,591
vs12,julie,4,2,17-janv-13,1218,mixed,500,400,2000,7,4,3.17324639101,0,L,8,a,1,363,,,,,,,,,A,638,3,Rouge,0,2,0,0,,,0,744,JULIE,173,7.14,2,878,4,4,0,L among T,592
vs12,julie,4,2,17-janv-13,1219,mixed,500,400,2000,7,5,4.01106639518,1,L,8,a,1,352,,,,,,,,,A,518,2,Rouge,0,8,0,0,,,0,1067,JULIE,203.2,9.63,2,1199,5,4,0,L among T,593
vs12,julie,4,2,17-janv-13,1219,mixed,500,400,2000,7,6,3.87114697354,0,X,8,z,1,329,,,,,,,,,A,702,2,Vert,0,8,0,0,,,0,561,JULIE,197,10.5,2,697,3,2,0,X among T,594
vs12,julie,4,2,17-janv-13,1219,mixed,500,400,2000,7,7,6.01063332094,0,X,16,z,1,414,,,,,,,,,A,903,1,Vert,0,14,0,0,,,0,395,JULIE,238,7.23,2,532,2,1,0,X among T,595
vs12,julie,4,2,17-janv-13,1219,mixed,500,400,2000,7,8,6.18274163181,1,L,4,z,1,332,,,,,,,,,A,613,2,Vert,0,2,0,0,,,0,405,JULIE,236.5,11.05,2,540,2,1,0,L among T,596
vs12,julie,4,2,17-janv-13,1219,mixed,500,400,2000,7,9,1.03165230582,1,X,8,z,1,440,,,,,,,,,A,610,1,Vert,0,7,0,0,,,0,1733,JULIE,247.33,8.46,2,1866,3,2,0,X among T,597
vs12,julie,4,2,17-janv-13,1219,mixed,500,400,2000,7,10,5.18999890537,0,L,4,a,1,501,,,,,,,,,A,647,2,Rouge,0,2,0,0,,,0,1889,JULIE,288.33,10.33,2,2026,6,5,0,L among T,598
vs12,julie,4,2,17-janv-13,1219,mixed,500,400,2000,7,11,3.67315033199,0,L,4,z,1,382,,,,,,,,,A,835,2,Vert,0,1,0,0,,,0,627,JULIE,210.67,0,2,761,3,3,0,L among T,599
vs12,julie,4,2,17-janv-13,1219,mixed,500,400,2000,7,12,1.27653670056,0,X,8,a,1,291,,,,,,,,,A,640,0,Rouge,0,4,0,0,,,0,625,JULIE,215,10.14,2,759,3,2,0,X among T,600
vs12,julie,4,2,17-janv-13,1219,mixed,500,400,2000,7,13,5.66091136675,1,L,8,a,1,460,,,,,,,,,A,707,2,Rouge,0,5,0,0,,,0,1033,JULIE,261.25,6.42,2,1168,4,3,0,L among T,601
vs12,julie,4,2,17-janv-13,1219,mixed,500,400,2000,7,14,3.87490164666,0,X,4,a,1,305,,,,,,,,,A,655,0,Rouge,0,3,0,0,,,0,354,JULIE,214,9.86,2,489,2,1,0,X among T,602
vs12,julie,4,2,17-janv-13,1219,mixed,500,400,2000,7,15,4.42378522173,0,L,8,z,1,412,,,,,,,,,A,651,2,Vert,0,5,0,0,,,0,2798,JULIE,235.17,9.78,2,2931,6,5,0,L among T,603
vs12,julie,4,2,17-janv-13,1219,mixed,500,400,2000,7,16,4.28379254354,0,X,4,z,1,422,,,,,,,,,A,707,0,Vert,0,3,0,0,,,0,360,JULIE,219,7.77,2,495,2,1,0,X among T,604
vs12,julie,4,2,17-janv-13,1219,mixed,500,400,2000,7,17,2.23914594735,1,X,16,a,1,480,,,,,,,,,A,602,2,Rouge,0,9,0,0,,,0,586,JULIE,207.67,8.73,2,722,3,2,0,X among T,605
vs12,julie,4,2,17-janv-13,1220,mixed,500,400,2000,7,18,3.23682382637,1,X,4,z,1,391,,,,,,,,,A,922,0,Vert,0,1,0,0,,,0,1867,JULIE,191,5.5,2,1999,4,3,0,X among T,606
vs12,julie,4,2,17-janv-13,1220,mixed,500,400,2000,7,19,2.41397591445,1,X,8,a,1,398,,,,,,,,,A,886,0,Rouge,0,5,0,0,,,0,2072,JULIE,256,7.82,2,2207,4,3,0,X among T,607
vs12,julie,4,2,17-janv-13,1220,mixed,500,400,2000,7,20,3.04137142508,0,L,8,z,1,377,,,,,,,,,A,706,1,Vert,0,4,0,0,,,0,1136,JULIE,282.25,0,2,1272,4,4,0,L among T,608
vs12,julie,4,2,17-janv-13,1220,mixed,500,400,2000,7,21,6.01615719905,1,L,8,a,1,489,,,,,,,,,A,727,2,Rouge,0,6,0,0,,,0,769,JULIE,188.5,7.9,2,901,4,3,0,L among T,609
vs12,julie,4,2,17-janv-13,1220,mixed,500,400,2000,7,22,4.84782176725,0,X,4,a,1,351,,,,,,,,,A,748,0,Rouge,0,1,0,0,,,0,425,JULIE,244,10.32,2,560,2,1,0,X among T,610
vs12,julie,4,2,17-janv-13,1220,mixed,500,400,2000,7,23,3.81601763002,1,L,16,a,1,522,,,,,,,,,B,828,4,Rouge,0,8,0,0,,,0,852,JULIE,213,7.44,2,989,4,3,0,L among T,611
