manip;subject;session;order;mm;tm;trialType;iti;fixDur;stimDur;nBlock;nTrial;alpha;present;targType;nItems;resp;acc;rt;confidence;estNItems;estTime;confidenceRT;estNItemsRT;estTimeRT;RecRT;Erreur;PostTest;Rec2Type;RecRT2;Rec2;couleur;Prime;CordCible;CordPrime;Yes/No;AV/AP;Diff;PostTest;DiffTime;RECORDING_SESSION_LABEL;AVERAGE_FIXATION_DURATION;AVERAGE_SACCADE_AMPLITUDE;BUTTON_PRESS_COUNT;DURATION;FIXATION_COUNT;SACCADE_COUNT
vs12;hugo;4;2;17-janv-13;1454;Ent1;500;400;2000;1;1;3.79721770073;False;L;4;a;1;340;None;None;None;None;None;None;None;None;None;None;None;None;Rouge;0;3;0;0;None;None;0;1758;HUGO;222.14;5.78;2;1894;7;6
vs12;hugo;4;2;17-janv-13;1454;Ent1;500;400;2000;1;2;0.518255832522;False;X;4;N;0;1500;None;None;None;None;None;None;None;None;None;None;None;None;Rouge;0;4;0;0;None;None;0;784;HUGO;203.5;5.83;2;920;4;3
vs12;hugo;4;2;17-janv-13;1454;Ent1;500;400;2000;1;3;2.03017224423;True;L;8;N;0;1500;None;None;None;None;None;None;None;None;None;None;None;None;Rouge;0;7;0;0;None;None;0;0;HUGO;182.18;6.91;2;3149;11;10
vs12;hugo;4;2;17-janv-13;1454;Ent1;500;400;2000;1;4;2.44388932911;True;L;4;a;1;642;None;None;None;None;None;None;None;None;None;None;None;None;Rouge;0;1;0;0;None;None;0;1358;HUGO;174.57;7.73;2;1492;7;6
vs12;hugo;4;2;17-janv-13;1454;Ent1;500;400;2000;1;5;2.30189103224;False;X;8;a;1;736;None;None;None;None;None;None;None;None;None;None;None;None;Rouge;0;7;0;0;None;None;0;1308;HUGO;173.14;6.53;2;1444;7;6
vs12;hugo;4;2;17-janv-13;1454;Ent1;500;400;2000;1;6;3.18943221214;True;L;16;a;1;655;None;None;None;None;None;None;None;None;None;None;None;None;Rouge;0;15;0;0;None;None;0;868;HUGO;173.8;3.48;2;1002;5;4
vs12;hugo;4;2;17-janv-13;1454;Ent1;500;400;2000;1;7;4.15596475355;False;X;16;z;1;347;None;None;None;None;None;None;None;None;None;None;None;None;Vert;0;15;0;0;None;None;0;1440;HUGO;82.33;13.67;2;1574;3;2
vs12;hugo;4;2;17-janv-13;1454;Ent1;500;400;2000;1;8;5.33182196658;False;L;8;z;1;452;None;None;None;None;None;None;None;None;None;None;None;None;Vert;0;8;0;0;None;None;0;994;HUGO;185.6;0;2;1133;5;5
vs12;hugo;4;2;17-janv-13;1454;Ent1;500;400;2000;1;9;3.15460290398;True;X;8;z;1;314;None;None;None;None;None;None;None;None;None;None;None;None;Vert;0;4;0;0;None;None;0;1539;HUGO;163;6.27;2;1673;8;8
vs12;hugo;4;2;17-janv-13;1454;Ent1;500;400;2000;1;10;0.0102878127692;True;X;4;z;1;294;None;None;None;None;None;None;None;None;None;None;None;None;Vert;0;2;0;0;None;None;0;1249;HUGO;281;2.41;2;1383;4;3
vs12;hugo;4;2;17-janv-13;1455;Ent1;500;400;2000;1;11;2.52364028597;True;X;16;a;1;309;None;None;None;None;None;None;None;None;None;None;None;None;Rouge;0;14;0;0;None;None;0;1959;HUGO;176.88;0;0;2096;8;8
vs12;hugo;4;2;17-janv-13;1455;Ent1;500;400;2000;1;12;2.95380074476;False;L;16;a;1;632;None;None;None;None;None;None;None;None;None;None;None;None;Rouge;0;11;0;0;None;None;0;1725;HUGO;200;4.92;2;1863;6;5
vs12;hugo;4;2;17-janv-13;1455;Ent1;500;400;2000;1;1;3.4648317935;False;L;4;a;1;310;None;None;None;None;None;None;None;None;None;None;None;None;Rouge;0;4;0;0;None;None;0;384;HUGO;216;7.54;2;520;2;1
vs12;hugo;4;2;17-janv-13;1455;Ent1;500;400;2000;1;2;4.20944891868;False;X;4;a;1;821;None;None;None;None;None;None;None;None;None;None;None;None;Rouge;0;4;0;0;None;None;0;677;HUGO;172.5;2.28;2;812;4;4
vs12;hugo;4;2;17-janv-13;1455;Ent1;500;400;2000;1;3;4.96645790255;True;L;8;a;1;589;None;None;None;None;None;None;None;None;None;None;None;None;Rouge;0;6;0;0;None;None;0;981;HUGO;183.5;0;2;1119;4;4
vs12;hugo;4;2;17-janv-13;1455;Ent1;500;400;2000;1;4;5.94580694819;True;L;4;a;1;561;None;None;None;None;None;None;None;None;None;None;None;None;Rouge;0;1;0;0;None;None;0;1351;HUGO;248.8;2.02;2;1486;5;4
vs12;hugo;4;2;17-janv-13;1455;Ent1;500;400;2000;1;5;3.74375134784;False;X;8;N;0;1500;None;None;None;None;None;None;None;None;None;None;None;None;Rouge;0;7;0;0;None;None;0;0;HUGO;235.36;6.48;2;3151;11;10
vs12;hugo;4;2;17-janv-13;1455;Ent1;500;400;2000;1;6;2.68901803594;True;L;16;N;0;1500;None;None;None;None;None;None;None;None;None;None;None;None;Rouge;0;14;0;0;None;None;0;0;HUGO;175.17;7.36;2;3143;12;12
vs12;hugo;4;2;17-janv-13;1455;Ent1;500;400;2000;1;7;2.91635480993;False;X;16;a;1;926;None;None;None;None;None;None;None;None;None;None;None;None;Rouge;0;3;0;0;None;None;0;594;HUGO;206.67;12.24;2;733;3;2
vs12;hugo;4;2;17-janv-13;1455;Ent1;500;400;2000;1;8;1.36958307816;False;L;8;N;0;1500;None;None;None;None;None;None;None;None;None;None;None;None;Rouge;0;3;0;0;None;None;0;0;HUGO;202.5;6.93;2;3152;12;11
vs12;hugo;4;2;17-janv-13;1455;Ent1;500;400;2000;1;9;3.35947294542;True;X;8;z;1;591;None;None;None;None;None;None;None;None;None;None;None;None;Vert;0;2;0;0;None;None;0;2413;HUGO;212.44;4.88;2;2547;9;8
vs12;hugo;4;2;17-janv-13;1455;Ent1;500;400;2000;1;10;0.8619108329;True;X;4;z;1;452;None;None;None;None;None;None;None;None;None;None;None;None;Vert;0;2;0;0;None;None;0;686;HUGO;197.67;4.83;2;823;3;2
vs12;hugo;4;2;17-janv-13;1456;Ent1;500;400;2000;1;11;4.7812484743;True;X;16;a;1;585;None;None;None;None;None;None;None;None;None;None;None;None;Rouge;0;3;0;0;None;None;0;1220;HUGO;206.2;5.4;2;1355;5;4
vs12;hugo;4;2;17-janv-13;1456;Ent1;500;400;2000;1;12;5.41181200204;False;L;16;N;0;1500;None;None;None;None;None;None;None;None;None;None;None;None;Rouge;0;9;0;0;None;None;0;0;HUGO;216.88;0;2;3146;8;8
vs12;hugo;4;2;17-janv-13;1456;Ent1;500;400;2000;1;1;5.07596852071;False;L;4;a;1;739;None;None;None;None;None;None;None;None;None;None;None;None;Rouge;0;4;0;0;None;None;0;852;HUGO;228;0;2;989;3;3
vs12;hugo;4;2;17-janv-13;1456;Ent1;500;400;2000;1;2;4.56190809531;False;X;4;a;1;454;None;None;None;None;None;None;None;None;None;None;None;None;Rouge;0;4;0;0;None;None;0;772;HUGO;123.8;7.43;2;906;5;4
vs12;hugo;4;2;17-janv-13;1456;Ent1;500;400;2000;1;3;2.02641104967;True;L;8;z;1;590;None;None;None;None;None;None;None;None;None;None;None;None;Vert;0;5;0;0;None;None;0;804;HUGO;188.5;0;2;939;4;4
vs12;hugo;4;2;17-janv-13;1456;Ent1;500;400;2000;1;4;1.48727925126;True;L;4;z;1;601;None;None;None;None;None;None;None;None;None;None;None;None;Vert;0;4;0;0;None;None;0;826;HUGO;286.67;5.53;2;961;3;3
vs12;hugo;4;2;17-janv-13;1456;Ent1;500;400;2000;1;5;3.17907737696;False;X;8;a;1;506;None;None;None;None;None;None;None;None;None;None;None;None;Rouge;0;1;0;0;None;None;0;1458;HUGO;141.86;4.63;2;1594;7;6
vs12;hugo;4;2;17-janv-13;1456;Ent1;500;400;2000;1;6;1.15392134649;True;L;16;N;0;1500;None;None;None;None;None;None;None;None;None;None;None;None;Vert;0;9;0;0;None;None;0;0;HUGO;192.38;4.07;0;3143;13;12
vs12;hugo;4;2;17-janv-13;1456;Ent1;500;400;2000;1;7;4.41167172715;False;X;16;z;1;474;None;None;None;None;None;None;None;None;None;None;None;None;Vert;0;12;0;0;None;None;0;1957;HUGO;188.56;4.02;2;2091;9;8
vs12;hugo;4;2;17-janv-13;1456;Ent1;500;400;2000;1;8;5.91991001504;False;L;8;a;1;626;None;None;None;None;None;None;None;None;None;None;None;None;Rouge;0;4;0;0;None;None;0;1496;HUGO;201;5.25;2;1633;6;5
vs12;hugo;4;2;17-janv-13;1456;Ent1;500;400;2000;1;9;4.45114880258;True;X;8;z;1;495;None;None;None;None;None;None;None;None;None;None;None;None;Vert;0;7;0;0;None;None;0;663;HUGO;120.5;4.84;2;797;4;4
vs12;hugo;4;2;17-janv-13;1456;Ent1;500;400;2000;1;10;2.41508482013;True;X;4;z;1;547;None;None;None;None;None;None;None;None;None;None;None;None;Vert;0;3;0;0;None;None;0;580;HUGO;214;3.55;2;715;3;2
vs12;hugo;4;2;17-janv-13;1457;Ent1;500;400;2000;1;11;1.30099562847;True;X;16;a;1;858;None;None;None;None;None;None;None;None;None;None;None;None;Rouge;0;6;0;0;None;None;0;1312;HUGO;187.33;5.85;2;1449;6;5
vs12;hugo;4;2;17-janv-13;1457;Ent1;500;400;2000;1;12;1.86362179419;False;L;16;z;1;624;None;None;None;None;None;None;None;None;None;None;None;None;Vert;0;12;0;0;None;None;0;0;HUGO;179.71;0;2;3150;14;14
vs12;hugo;4;2;17-janv-13;1459;Ent2;500;400;2000;1;1;1.09674112975;False;L;8;N;0;1500;None;None;None;None;None;None;None;None;None;A;10390;2;Vert;0;8;0;0;None;None;0;0;HUGO;230.73;4.74;2;3152;11;10
vs12;hugo;4;2;17-janv-13;1459;Ent2;500;400;2000;1;2;3.61091543997;True;L;16;N;0;1500;None;None;None;None;None;None;None;None;None;C;3793;6;Vert;0;15;0;0;None;None;0;0;HUGO;222.33;5.71;2;3147;12;12
vs12;hugo;4;2;17-janv-13;1459;Ent2;500;400;2000;1;3;4.3009704765;True;X;8;z;1;718;None;None;None;None;None;None;None;None;None;A;3330;2;Vert;0;6;0;0;None;None;0;1426;HUGO;177.86;8.06;2;1560;7;7
vs12;hugo;4;2;17-janv-13;1459;Ent2;500;400;2000;1;4;2.94671980859;False;L;4;a;1;961;None;None;None;None;None;None;None;None;None;A;3897;2;Rouge;0;3;0;0;None;None;0;2604;HUGO;255.89;6.08;0;2743;9;8
vs12;hugo;4;2;17-janv-13;1459;Ent2;500;400;2000;1;5;1.42481817881;False;X;16;N;0;1500;None;None;None;None;None;None;None;None;None;A;6109;3;Vert;0;16;0;0;None;None;0;0;HUGO;262.7;4.39;2;3149;10;9
vs12;hugo;4;2;17-janv-13;1500;Ent2;500;400;2000;1;6;3.0675907285;True;L;8;z;1;547;None;None;None;None;None;None;None;None;None;A;2274;2;Vert;0;7;0;0;None;None;0;2576;HUGO;239.89;4.11;2;2711;9;8
vs12;hugo;4;2;17-janv-13;1500;Ent2;500;400;2000;1;7;4.23199325265;True;X;16;z;1;581;None;None;None;None;None;None;None;None;None;B;2553;4;Vert;0;2;0;0;None;None;0;1877;HUGO;325.8;0;2;2015;5;5
vs12;hugo;4;2;17-janv-13;1500;Ent2;500;400;2000;1;8;6.04086434943;False;L;16;a;1;536;None;None;None;None;None;None;None;None;None;A;2148;2;Rouge;0;10;0;0;None;None;0;1613;HUGO;292;3.87;2;1748;5;4
vs12;hugo;4;2;17-janv-13;1500;Ent2;500;400;2000;1;9;5.47580155993;False;X;4;a;1;394;None;None;None;None;None;None;None;None;None;C;1914;6;Rouge;0;2;0;0;None;None;0;1010;HUGO;186.8;6.55;2;1147;5;4
vs12;hugo;4;2;17-janv-13;1500;Ent2;500;400;2000;1;10;3.28486766388;True;L;4;z;1;868;None;None;None;None;None;None;None;None;None;C;1877;6;Vert;0;1;0;0;None;None;0;0;HUGO;457.5;3.71;2;3147;6;5
vs12;hugo;4;2;17-janv-13;1500;Ent2;500;400;2000;1;11;2.60349656182;False;X;8;z;1;513;None;None;None;None;None;None;None;None;None;A;3916;3;Vert;0;4;0;0;None;None;0;0;HUGO;250.8;4.53;2;3150;10;9
vs12;hugo;4;2;17-janv-13;1500;Ent2;500;400;2000;1;12;3.73997991036;True;X;4;N;0;1500;None;None;None;None;None;None;None;None;None;A;7350;3;Vert;0;3;0;0;None;None;0;0;HUGO;299.5;2.84;2;3146;8;7
vs12;hugo;4;2;17-janv-13;1502;mixed;500;400;2000;1;1;0.933657822723;False;X;4;N;0;1500;None;None;None;None;None;None;None;None;None;A;6570;2;Rouge;0;3;0;0;None;None;0;0;HUGO;329.12;16.51;2;3174;8;8
vs12;hugo;4;2;17-janv-13;1502;mixed;500;400;2000;1;2;4.32166401431;False;L;4;a;1;268;None;None;None;None;None;None;None;None;None;A;2107;0;Rouge;0;4;0;0;None;None;0;565;HUGO;154;1.93;2;702;4;3
vs12;hugo;4;2;17-janv-13;1503;mixed;500;400;2000;1;3;5.28133721891;False;L;8;z;1;298;None;None;None;None;None;None;None;None;None;C;2412;6;Vert;0;4;0;0;None;None;0;1193;HUGO;187.5;6.02;2;1326;6;5
vs12;hugo;4;2;17-janv-13;1503;mixed;500;400;2000;1;4;0.290766773088;False;X;4;z;1;306;None;None;None;None;None;None;None;None;None;D;1757;9;Vert;0;3;0;0;None;None;0;1192;HUGO;185.33;7.3;0;1327;6;5
vs12;hugo;4;2;17-janv-13;1503;mixed;500;400;2000;1;5;1.19440863277;False;L;16;N;0;1500;None;None;None;None;None;None;None;None;None;D;1419;9;Vert;0;15;0;0;None;None;0;0;HUGO;187.43;6.22;2;3146;14;13
vs12;hugo;4;2;17-janv-13;1503;mixed;500;400;2000;1;6;2.43825613297;False;L;4;z;1;626;None;None;None;None;None;None;None;None;None;C;2249;6;Vert;0;2;0;0;None;None;0;911;HUGO;175;5.06;2;1048;4;4
vs12;hugo;4;2;17-janv-13;1503;mixed;500;400;2000;1;7;3.40823776204;False;X;16;a;1;561;None;None;None;None;None;None;None;None;None;D;2157;9;Rouge;0;4;0;0;None;None;0;2385;HUGO;222.3;4.23;2;2521;10;9
vs12;hugo;4;2;17-janv-13;1503;mixed;500;400;2000;1;8;4.56716339122;True;L;16;a;1;891;None;None;None;None;None;None;None;None;None;C;1784;6;Rouge;0;10;0;0;None;None;0;1992;HUGO;209.11;4.64;2;2126;9;8
vs12;hugo;4;2;17-janv-13;1503;mixed;500;400;2000;1;9;0.309924708751;True;X;8;a;1;369;None;None;None;None;None;None;None;None;None;A;2154;3;Rouge;0;2;0;0;None;None;0;988;HUGO;252.75;5.03;2;1125;4;3
vs12;hugo;4;2;17-janv-13;1503;mixed;500;400;2000;1;10;3.53989029726;False;X;4;a;1;415;None;None;None;None;None;None;None;None;None;A;2268;1;Rouge;0;1;0;0;None;None;0;1192;HUGO;274;5.15;0;1331;4;3
vs12;hugo;4;2;17-janv-13;1503;mixed;500;400;2000;1;11;2.52977647609;True;X;8;a;1;934;None;None;None;None;None;None;None;None;None;A;1567;2;Rouge;0;8;0;0;None;None;0;1543;HUGO;368.5;4.29;2;1680;4;3
vs12;hugo;4;2;17-janv-13;1503;mixed;500;400;2000;1;12;3.75677399524;True;L;4;z;1;339;None;None;None;None;None;None;None;None;None;A;2041;2;Vert;0;3;0;0;None;None;0;662;HUGO;319;7.68;2;799;2;1
vs12;hugo;4;2;17-janv-13;1504;mixed;500;400;2000;1;13;6.03717928386;False;L;8;a;1;250;None;None;None;None;None;None;None;None;None;A;3001;1;Rouge;0;3;0;0;None;None;0;1007;HUGO;224.25;3.04;2;1145;4;3
vs12;hugo;4;2;17-janv-13;1504;mixed;500;400;2000;1;14;4.76360104613;True;L;4;z;1;338;None;None;None;None;None;None;None;None;None;A;6357;2;Vert;0;2;0;0;None;None;0;630;HUGO;231.67;3.34;2;763;3;2
vs12;hugo;4;2;17-janv-13;1504;mixed;500;400;2000;1;15;3.08047440848;False;X;16;z;1;1067;None;None;None;None;None;None;None;None;None;C;1419;7;Vert;0;6;0;0;None;None;0;2158;HUGO;198.6;4.47;2;2291;10;9
vs12;hugo;4;2;17-janv-13;1504;mixed;500;400;2000;1;16;0.517833290992;False;X;16;z;1;696;None;None;None;None;None;None;None;None;None;A;1166;1;Vert;0;12;0;0;None;None;0;988;HUGO;177;5.18;0;1126;5;4
vs12;hugo;4;2;17-janv-13;1504;mixed;500;400;2000;1;17;0.18355601071;False;L;16;a;1;437;None;None;None;None;None;None;None;None;None;A;1084;0;Rouge;0;11;0;0;None;None;0;851;HUGO;222.75;3.76;2;990;4;3
vs12;hugo;4;2;17-janv-13;1504;mixed;500;400;2000;1;18;2.2772140737;True;L;4;a;1;714;None;None;None;None;None;None;None;None;None;A;1190;0;Rouge;0;4;0;0;None;None;0;458;HUGO;269.5;7.81;2;591;2;1
vs12;hugo;4;2;17-janv-13;1504;mixed;500;400;2000;1;19;2.59210011704;True;L;16;a;1;511;None;None;None;None;None;None;None;None;None;A;1531;2;Rouge;0;4;0;0;None;None;0;876;HUGO;227.75;3.56;2;1012;4;3
vs12;hugo;4;2;17-janv-13;1504;mixed;500;400;2000;1;20;4.24663966058;False;L;4;a;1;476;None;None;None;None;None;None;None;None;None;A;1862;0;Rouge;0;3;0;0;None;None;0;666;HUGO;242.33;3.59;2;800;3;2
vs12;hugo;4;2;17-janv-13;1504;mixed;500;400;2000;1;21;3.42896964216;False;X;8;z;1;529;None;None;None;None;None;None;None;None;None;A;2653;3;Vert;0;8;0;0;None;None;0;1229;HUGO;184.83;6.03;2;1367;6;5
vs12;hugo;4;2;17-janv-13;1505;mixed;500;400;2000;1;22;4.69285817705;True;X;4;a;1;373;None;None;None;None;None;None;None;None;None;A;1402;0;Rouge;0;3;0;0;None;None;0;547;HUGO;202;3.8;2;681;3;2
vs12;hugo;4;2;17-janv-13;1505;mixed;500;400;2000;1;23;1.65230472178;True;L;16;z;1;497;None;None;None;None;None;None;None;None;None;A;1336;1;Vert;0;16;0;0;None;None;0;776;HUGO;156.6;4.22;2;913;5;4
vs12;hugo;4;2;17-janv-13;1505;mixed;500;400;2000;1;24;0.89646314694;True;X;8;z;1;345;None;None;None;None;None;None;None;None;None;A;4728;3;Vert;0;8;0;0;None;None;0;1056;HUGO;208.6;5.52;2;1193;5;4
vs12;hugo;4;2;17-janv-13;1505;mixed;500;400;2000;1;25;2.36530147626;True;L;8;z;1;588;None;None;None;None;None;None;None;None;None;A;1968;0;Vert;0;7;0;0;None;None;0;448;HUGO;227;4.19;2;586;2;1
vs12;hugo;4;2;17-janv-13;1505;mixed;500;400;2000;1;26;2.32995376396;False;L;8;z;1;729;None;None;None;None;None;None;None;None;None;A;1525;0;Vert;0;6;0;0;None;None;0;617;HUGO;225.33;4.36;2;753;3;2
vs12;hugo;4;2;17-janv-13;1505;mixed;500;400;2000;1;27;5.56201373569;True;X;4;z;1;464;None;None;None;None;None;None;None;None;None;B;2036;4;Vert;0;2;0;0;None;None;0;773;HUGO;245.33;6.15;2;910;3;2
vs12;hugo;4;2;17-janv-13;1505;mixed;500;400;2000;1;28;1.79879349364;True;X;16;a;1;629;None;None;None;None;None;None;None;None;None;A;3117;3;Rouge;0;13;0;0;None;None;0;1992;HUGO;203.33;4.87;2;2129;9;9
vs12;hugo;4;2;17-janv-13;1505;mixed;500;400;2000;1;29;0.964709639817;False;X;8;z;1;982;None;None;None;None;None;None;None;None;None;A;1819;2;Vert;0;7;0;0;None;None;0;976;HUGO;310.67;4.59;2;1110;3;2
vs12;hugo;4;2;17-janv-13;1505;mixed;500;400;2000;1;30;4.2741724328;True;X;16;z;1;1281;None;None;None;None;None;None;None;None;None;A;3747;2;Vert;0;14;0;0;None;None;0;1412;HUGO;363.75;3.79;2;1550;4;3
vs12;hugo;4;2;17-janv-13;1506;mixed;500;400;2000;1;31;0.502042686662;False;X;8;z;1;469;None;None;None;None;None;None;None;None;None;A;1738;0;Vert;0;3;0;0;None;None;0;579;HUGO;155;3.46;2;714;4;3
vs12;hugo;4;2;17-janv-13;1506;mixed;500;400;2000;1;32;0.401691604622;True;X;4;a;1;402;None;None;None;None;None;None;None;None;None;A;1517;0;Rouge;0;3;0;0;None;None;0;634;HUGO;231.67;3.82;0;771;3;2
vs12;hugo;4;2;17-janv-13;1506;mixed;500;400;2000;1;33;3.7316149479;True;X;16;a;1;398;None;None;None;None;None;None;None;None;None;A;1822;1;Rouge;0;1;0;0;None;None;0;573;HUGO;205.33;6.08;2;706;3;2
vs12;hugo;4;2;17-janv-13;1506;mixed;500;400;2000;1;34;2.22367448201;True;L;8;z;1;374;None;None;None;None;None;None;None;None;None;C;1338;6;Vert;0;8;0;0;None;None;0;1409;HUGO;271.2;5.12;2;1547;5;5
vs12;hugo;4;2;17-janv-13;1506;mixed;500;400;2000;1;35;4.85120015796;True;L;8;a;1;509;None;None;None;None;None;None;None;None;None;A;1494;0;Rouge;0;5;0;0;None;None;0;468;HUGO;276.5;6.42;2;602;2;1
vs12;hugo;4;2;17-janv-13;1506;mixed;500;400;2000;1;36;1.53929786782;False;L;16;z;0;452;None;None;None;None;None;None;None;None;None;A;4239;1;Rouge;0;9;0;0;None;None;0;779;HUGO;275;5.17;2;913;3;2
vs12;hugo;4;2;17-janv-13;1509;mixed;500;400;2000;2;1;2.92524598019;False;X;16;N;0;1500;None;None;None;None;None;None;None;None;None;A;1960;1;Rouge;0;3;0;0;None;None;0;0;HUGO;202.75;13.62;2;3170;8;7
vs12;hugo;4;2;17-janv-13;1509;mixed;500;400;2000;2;2;4.74849133071;False;L;4;z;1;652;None;None;None;None;None;None;None;None;None;A;2552;0;Vert;0;2;0;0;None;None;0;503;HUGO;292.5;8.31;2;640;2;1
vs12;hugo;4;2;17-janv-13;1509;mixed;500;400;2000;2;3;5.00997777728;True;L;16;z;1;1170;None;None;None;None;None;None;None;None;None;C;3309;6;Vert;0;11;0;0;None;None;0;1294;HUGO;203.17;6.44;2;1427;6;5
vs12;hugo;4;2;17-janv-13;1509;mixed;500;400;2000;2;4;2.39736443949;False;L;8;a;1;405;None;None;None;None;None;None;None;None;None;A;1872;2;Rouge;0;1;0;0;None;None;0;667;HUGO;372;9.36;2;801;2;1
vs12;hugo;4;2;17-janv-13;1509;mixed;500;400;2000;2;5;3.36640490148;False;X;8;z;1;630;None;None;None;None;None;None;None;None;None;A;1793;1;Vert;0;7;0;0;None;None;0;712;HUGO;238.33;0;2;847;3;3
vs12;hugo;4;2;17-janv-13;1509;mixed;500;400;2000;2;6;3.39980294277;False;X;16;a;1;562;None;None;None;None;None;None;None;None;None;A;1518;0;Rouge;0;8;0;0;None;None;0;551;HUGO;207.67;3.37;2;687;3;2
vs12;hugo;4;2;17-janv-13;1510;mixed;500;400;2000;2;7;0.333785197017;True;L;16;z;1;652;None;None;None;None;None;None;None;None;None;C;1510;6;Vert;0;16;0;0;None;None;0;1899;HUGO;189.33;5.25;0;2035;9;9
vs12;hugo;4;2;17-janv-13;1510;mixed;500;400;2000;2;8;4.34961135814;True;X;16;z;1;456;None;None;None;None;None;None;None;None;None;B;3304;5;Vert;0;7;0;0;None;None;0;1215;HUGO;199;3.36;2;1349;6;5
vs12;hugo;4;2;17-janv-13;1510;mixed;500;400;2000;2;9;5.7679851688;True;X;8;a;1;510;None;None;None;None;None;None;None;None;None;A;1534;3;Rouge;0;4;0;0;None;None;0;943;HUGO;282.67;5.93;0;1080;3;2
vs12;hugo;4;2;17-janv-13;1510;mixed;500;400;2000;2;10;4.67759700689;True;L;4;a;1;446;None;None;None;None;None;None;None;None;None;C;2790;7;Rouge;0;4;0;0;None;None;0;806;HUGO;266.67;4.8;2;944;3;2
vs12;hugo;4;2;17-janv-13;1510;mixed;500;400;2000;2;11;4.24409926684;True;L;4;z;1;379;None;None;None;None;None;None;None;None;None;A;1231;2;Vert;0;1;0;0;None;None;0;808;HUGO;182;5.74;2;943;4;3
vs12;hugo;4;2;17-janv-13;1510;mixed;500;400;2000;2;12;5.05227316963;False;L;4;a;1;319;None;None;None;None;None;None;None;None;None;B;1514;5;Rouge;0;2;0;0;None;None;0;507;HUGO;179.33;10.16;2;643;3;2
vs12;hugo;4;2;17-janv-13;1510;mixed;500;400;2000;2;13;3.0879331769;False;X;8;z;1;743;None;None;None;None;None;None;None;None;None;A;1774;3;Vert;0;7;0;0;None;None;0;1076;HUGO;270.25;6.18;2;1211;4;3
vs12;hugo;4;2;17-janv-13;1510;mixed;500;400;2000;2;14;5.67723811931;False;L;16;a;1;1379;None;None;None;None;None;None;None;None;None;C;2133;6;Rouge;0;5;0;0;None;None;0;2221;HUGO;222.89;6.6;2;2353;9;8
vs12;hugo;4;2;17-janv-13;1510;mixed;500;400;2000;2;15;5.46179848512;False;L;8;z;1;514;None;None;None;None;None;None;None;None;None;A;1204;3;Vert;0;7;0;0;None;None;0;1123;HUGO;220;5.47;2;1261;5;4
vs12;hugo;4;2;17-janv-13;1510;mixed;500;400;2000;2;16;2.01734181775;False;L;4;a;1;335;None;None;None;None;None;None;None;None;None;A;2151;0;Rouge;0;1;0;0;None;None;0;390;HUGO;232.5;7.31;2;525;2;1
vs12;hugo;4;2;17-janv-13;1511;mixed;500;400;2000;2;17;3.91634417199;True;X;4;a;1;533;None;None;None;None;None;None;None;None;None;A;1418;0;Rouge;0;3;0;0;None;None;0;643;HUGO;234.33;3.97;2;778;3;2
vs12;hugo;4;2;17-janv-13;1511;mixed;500;400;2000;2;18;4.54175724836;True;L;8;a;1;362;None;None;None;None;None;None;None;None;None;B;2571;5;Rouge;0;5;0;0;None;None;0;1489;HUGO;204.71;4.29;2;1626;7;6
vs12;hugo;4;2;17-janv-13;1511;mixed;500;400;2000;2;19;1.47205148964;False;X;4;z;1;447;None;None;None;None;None;None;None;None;None;A;1839;0;Vert;0;1;0;0;None;None;0;469;HUGO;258;2.85;2;603;2;2
vs12;hugo;4;2;17-janv-13;1511;mixed;500;400;2000;2;20;0.302551100417;True;L;8;a;1;358;None;None;None;None;None;None;None;None;None;A;2938;1;Rouge;0;8;0;0;None;None;0;759;HUGO;271.67;5.34;2;898;3;2
vs12;hugo;4;2;17-janv-13;1511;mixed;500;400;2000;2;21;0.0199900881827;False;X;16;a;1;976;None;None;None;None;None;None;None;None;None;A;3291;3;Rouge;0;4;0;0;None;None;0;950;HUGO;224.25;5.74;0;1086;4;3
vs12;hugo;4;2;17-janv-13;1511;mixed;500;400;2000;2;22;0.450868775081;False;X;4;z;1;447;None;None;None;None;None;None;None;None;None;A;4487;2;Vert;0;4;0;0;None;None;0;427;HUGO;248.5;12.55;2;563;2;1
vs12;hugo;4;2;17-janv-13;1511;mixed;500;400;2000;2;23;3.49650789624;True;X;8;z;1;446;None;None;None;None;None;None;None;None;None;A;1510;1;Vert;0;5;0;0;None;None;0;593;HUGO;211;4.33;2;727;3;2
vs12;hugo;4;2;17-janv-13;1511;mixed;500;400;2000;2;24;1.84267174706;True;X;4;z;1;348;None;None;None;None;None;None;None;None;None;C;1057;6;Vert;0;4;0;0;None;None;0;517;HUGO;189;4.99;2;653;3;2
vs12;hugo;4;2;17-janv-13;1511;mixed;500;400;2000;2;25;5.27128273754;False;X;8;a;1;624;None;None;None;None;None;None;None;None;None;A;3204;1;Rouge;0;3;0;0;None;None;0;611;HUGO;212.67;2.3;2;749;3;3
vs12;hugo;4;2;17-janv-13;1512;mixed;500;400;2000;2;26;2.30729737417;False;L;16;a;1;1318;None;None;None;None;None;None;None;None;None;D;2023;8;Rouge;0;15;0;0;None;None;0;2429;HUGO;218.4;6.12;2;2565;10;10
vs12;hugo;4;2;17-janv-13;1512;mixed;500;400;2000;2;27;6.11363776425;True;L;8;a;1;872;None;None;None;None;None;None;None;None;None;A;1443;3;Rouge;0;4;0;0;None;None;0;586;HUGO;206.33;9.77;2;720;3;2
vs12;hugo;4;2;17-janv-13;1512;mixed;500;400;2000;2;28;4.55758955102;True;X;16;a;1;497;None;None;None;None;None;None;None;None;None;A;1170;1;Rouge;0;12;0;0;None;None;0;671;HUGO;225.67;5.47;2;808;3;3
vs12;hugo;4;2;17-janv-13;1512;mixed;500;400;2000;2;29;2.23429776976;False;X;4;z;1;543;None;None;None;None;None;None;None;None;None;A;1706;0;Vert;0;1;0;0;None;None;0;451;HUGO;253;4.14;2;587;2;2
vs12;hugo;4;2;17-janv-13;1512;mixed;500;400;2000;2;30;5.18673827365;True;X;16;z;1;966;None;None;None;None;None;None;None;None;None;A;1551;0;Vert;0;2;0;0;None;None;0;578;HUGO;214;4.05;0;714;3;2
vs12;hugo;4;2;17-janv-13;1512;mixed;500;400;2000;2;31;1.99833481914;True;L;16;a;1;495;None;None;None;None;None;None;None;None;None;A;1340;2;Rouge;0;11;0;0;None;None;0;1496;HUGO;248.5;2.72;2;1629;6;5
vs12;hugo;4;2;17-janv-13;1512;mixed;500;400;2000;2;32;0.468922250687;True;L;4;z;1;314;None;None;None;None;None;None;None;None;None;B;3306;5;Vert;0;4;0;0;None;None;0;796;HUGO;202.75;5.69;2;930;4;3
vs12;hugo;4;2;17-janv-13;1512;mixed;500;400;2000;2;33;5.09188014031;True;X;4;a;1;316;None;None;None;None;None;None;None;None;None;A;1738;2;Rouge;0;3;0;0;None;None;0;894;HUGO;231.75;5.27;2;1030;4;3
vs12;hugo;4;2;17-janv-13;1512;mixed;500;400;2000;2;34;0.731099274113;True;X;8;a;1;322;None;None;None;None;None;None;None;None;None;A;2449;1;Rouge;0;7;0;0;None;None;0;863;HUGO;309;3.41;2;997;3;2
vs12;hugo;4;2;17-janv-13;1512;mixed;500;400;2000;2;35;2.50747599529;False;L;16;a;1;478;None;None;None;None;None;None;None;None;None;B;1158;5;Rouge;0;3;0;0;None;None;0;1597;HUGO;257;5.84;2;1733;6;5
vs12;hugo;4;2;17-janv-13;1513;mixed;500;400;2000;2;36;1.91989368865;False;L;8;z;1;473;None;None;None;None;None;None;None;None;None;A;2313;3;Vert;0;4;0;0;None;None;0;979;HUGO;246.25;5.51;2;1113;4;3
vs12;hugo;4;2;17-janv-13;1514;mixed;500;400;2000;3;1;0.726221305215;True;X;16;a;1;493;None;None;None;None;None;None;None;None;None;A;2191;3;Rouge;0;2;0;0;None;None;0;1831;HUGO;368.4;4.1;2;1988;5;4
vs12;hugo;4;2;17-janv-13;1514;mixed;500;400;2000;3;2;3.59019541075;False;L;8;a;1;709;None;None;None;None;None;None;None;None;None;D;1894;9;Rouge;0;8;0;0;None;None;0;1628;HUGO;176.38;5.18;2;1763;8;8
vs12;hugo;4;2;17-janv-13;1514;mixed;500;400;2000;3;3;0.799338512191;False;X;16;z;1;440;None;None;None;None;None;None;None;None;None;C;2261;6;Vert;0;6;0;0;None;None;0;1600;HUGO;257.5;5.54;2;1735;6;5
vs12;hugo;4;2;17-janv-13;1514;mixed;500;400;2000;3;4;5.80842177645;True;L;8;z;1;311;None;None;None;None;None;None;None;None;None;A;1008;2;Vert;0;8;0;0;None;None;0;613;HUGO;219.67;5.31;2;750;3;2
vs12;hugo;4;2;17-janv-13;1515;mixed;500;400;2000;3;5;1.49534825871;False;X;8;a;1;276;None;None;None;None;None;None;None;None;None;A;1999;1;Rouge;0;2;0;0;None;None;0;688;HUGO;175.75;5.21;2;824;4;3
vs12;hugo;4;2;17-janv-13;1515;mixed;500;400;2000;3;6;5.62971651263;True;X;8;z;1;456;None;None;None;None;None;None;None;None;None;A;1050;1;Vert;0;8;0;0;None;None;0;674;HUGO;176.25;3.46;2;810;4;3
vs12;hugo;4;2;17-janv-13;1515;mixed;500;400;2000;3;7;3.10526137198;True;X;16;z;1;351;None;None;None;None;None;None;None;None;None;A;1323;2;Vert;0;9;0;0;None;None;0;673;HUGO;175;4.61;2;808;4;3
vs12;hugo;4;2;17-janv-13;1515;mixed;500;400;2000;3;8;2.24279522753;True;L;16;z;1;484;None;None;None;None;None;None;None;None;None;A;1242;0;Vert;0;3;0;0;None;None;0;382;HUGO;239;3.68;2;516;2;1
vs12;hugo;4;2;17-janv-13;1515;mixed;500;400;2000;3;9;0.758875820379;True;L;16;a;1;419;None;None;None;None;None;None;None;None;None;A;1187;0;Rouge;0;3;0;0;None;None;0;516;HUGO;193.67;3.54;2;651;3;2
vs12;hugo;4;2;17-janv-13;1515;mixed;500;400;2000;3;10;0.727855005679;False;L;16;a;1;952;None;None;None;None;None;None;None;None;None;C;2576;6;Rouge;0;6;0;0;None;None;0;1887;HUGO;195.22;4.45;2;2021;9;8
vs12;hugo;4;2;17-janv-13;1515;mixed;500;400;2000;3;11;5.57239137812;True;X;4;z;1;622;None;None;None;None;None;None;None;None;None;B;3654;4;Vert;0;1;0;0;None;None;0;461;HUGO;271.5;8.25;2;601;2;1
vs12;hugo;4;2;17-janv-13;1515;mixed;500;400;2000;3;12;2.41964543608;True;L;8;a;1;563;None;None;None;None;None;None;None;None;None;B;3127;5;Rouge;0;5;0;0;None;None;0;1179;HUGO;189.17;4.75;2;1313;6;5
vs12;hugo;4;2;17-janv-13;1515;mixed;500;400;2000;3;13;1.40448337122;True;X;4;a;1;328;None;None;None;None;None;None;None;None;None;B;2197;4;Rouge;0;3;0;0;None;None;0;659;HUGO;242;3.05;2;796;3;2
vs12;hugo;4;2;17-janv-13;1515;mixed;500;400;2000;3;14;3.34183091733;False;L;4;a;1;311;None;None;None;None;None;None;None;None;None;D;1195;9;Rouge;0;2;0;0;None;None;0;887;HUGO;161.8;5.01;2;1022;5;4
vs12;hugo;4;2;17-janv-13;1516;mixed;500;400;2000;3;15;6.11081157423;False;X;16;a;1;487;None;None;None;None;None;None;None;None;None;B;2737;4;Rouge;0;4;0;0;None;None;0;1349;HUGO;185;4.39;2;1484;7;6
vs12;hugo;4;2;17-janv-13;1516;mixed;500;400;2000;3;16;1.76974809996;False;X;4;z;1;319;None;None;None;None;None;None;None;None;None;A;1666;0;Vert;0;3;0;0;None;None;0;563;HUGO;211;3.82;2;698;3;2
vs12;hugo;4;2;17-janv-13;1516;mixed;500;400;2000;3;17;5.47915693177;True;L;8;z;1;522;None;None;None;None;None;None;None;None;None;B;1737;4;Vert;0;6;0;0;None;None;0;1153;HUGO;259.25;6.35;2;1288;4;3
vs12;hugo;4;2;17-janv-13;1516;mixed;500;400;2000;3;18;1.57695919331;True;L;4;a;1;309;None;None;None;None;None;None;None;None;None;D;1699;9;Rouge;0;3;0;0;None;None;0;1179;HUGO;235.4;4.73;2;1317;5;4
vs12;hugo;4;2;17-janv-13;1516;mixed;500;400;2000;3;19;2.49807458367;False;X;4;z;1;360;None;None;None;None;None;None;None;None;None;B;3538;5;Vert;0;1;0;0;None;None;0;773;HUGO;278;4.45;2;908;3;2
vs12;hugo;4;2;17-janv-13;1516;mixed;500;400;2000;3;20;4.97156663625;False;X;16;a;1;670;None;None;None;None;None;None;None;None;None;D;1571;8;Rouge;0;13;0;0;None;None;0;1791;HUGO;208.5;3.82;2;1927;8;8
vs12;hugo;4;2;17-janv-13;1516;mixed;500;400;2000;3;21;6.23330124075;True;X;8;a;1;863;None;None;None;None;None;None;None;None;None;B;1912;4;Rouge;0;4;0;0;None;None;0;482;HUGO;265;8.17;2;619;2;1
vs12;hugo;4;2;17-janv-13;1516;mixed;500;400;2000;3;22;1.52108979652;False;L;16;a;1;415;None;None;None;None;None;None;None;None;None;D;833;8;Rouge;0;8;0;0;None;None;0;1400;HUGO;190.33;6.27;2;1535;6;5
vs12;hugo;4;2;17-janv-13;1516;mixed;500;400;2000;3;23;3.11582811506;False;X;8;a;1;262;None;None;None;None;None;None;None;None;None;B;1712;5;Rouge;0;3;0;0;None;None;0;555;HUGO;192.33;3.33;2;689;3;3
vs12;hugo;4;2;17-janv-13;1516;mixed;500;400;2000;3;24;0.802367952424;False;L;8;z;1;374;None;None;None;None;None;None;None;None;None;B;3273;5;Vert;0;5;0;0;None;None;0;590;HUGO;250.5;6.96;2;725;2;1
vs12;hugo;4;2;17-janv-13;1517;mixed;500;400;2000;3;25;0.903619901198;True;L;4;N;0;1500;None;None;None;None;None;None;None;None;None;C;1368;6;Vert;0;3;0;0;None;None;0;0;HUGO;578.6;3.14;2;3145;5;4
vs12;hugo;4;2;17-janv-13;1517;mixed;500;400;2000;3;26;5.00161362936;False;X;4;z;1;379;None;None;None;None;None;None;None;None;None;A;2156;3;Vert;0;1;0;0;None;None;0;995;HUGO;224;4.3;2;1127;4;3
vs12;hugo;4;2;17-janv-13;1517;mixed;500;400;2000;3;27;1.06786238052;False;L;4;z;1;685;None;None;None;None;None;None;None;None;None;C;1169;6;Vert;0;1;0;0;None;None;0;931;HUGO;202.75;2.74;2;1065;4;3
vs12;hugo;4;2;17-janv-13;1517;mixed;500;400;2000;3;28;4.05543768291;True;X;4;a;1;313;None;None;None;None;None;None;None;None;None;D;906;9;Rouge;0;3;0;0;None;None;0;728;HUGO;151.5;3.39;2;865;4;3
vs12;hugo;4;2;17-janv-13;1517;mixed;500;400;2000;3;29;4.21168048171;True;L;16;z;1;688;None;None;None;None;None;None;None;None;None;A;2259;3;Vert;0;7;0;0;None;None;0;1222;HUGO;427.67;4.53;2;1360;3;2
vs12;hugo;4;2;17-janv-13;1517;mixed;500;400;2000;3;30;0.20389315346;False;L;8;a;1;956;None;None;None;None;None;None;None;None;None;A;952;0;Rouge;0;5;0;0;None;None;0;557;HUGO;208;3.54;2;693;3;2
vs12;hugo;4;2;17-janv-13;1517;mixed;500;400;2000;3;31;1.19508990514;False;L;16;z;1;649;None;None;None;None;None;None;None;None;None;A;2579;1;Vert;0;11;0;0;None;None;0;533;HUGO;190;9.37;2;669;3;2
vs12;hugo;4;2;17-janv-13;1517;mixed;500;400;2000;3;32;3.31827821391;True;L;4;a;1;484;None;None;None;None;None;None;None;None;None;D;1035;9;Rouge;0;2;0;0;None;None;0;1496;HUGO;214;8.93;2;1634;6;5
vs12;hugo;4;2;17-janv-13;1517;mixed;500;400;2000;3;33;1.13013723658;True;X;16;z;1;1079;None;None;None;None;None;None;None;None;None;B;2129;4;Vert;0;13;0;0;None;None;0;1456;HUGO;233.17;6.37;2;1593;6;5
vs12;hugo;4;2;17-janv-13;1517;mixed;500;400;2000;3;34;1.93672751024;True;X;8;z;1;404;None;None;None;None;None;None;None;None;None;A;3020;1;Vert;0;4;0;0;None;None;0;585;HUGO;219.33;3.36;2;720;3;2
vs12;hugo;4;2;17-janv-13;1518;mixed;500;400;2000;3;35;1.46906092228;False;X;8;z;1;539;None;None;None;None;None;None;None;None;None;A;919;0;Vert;0;4;0;0;None;None;0;494;HUGO;188;3.26;2;628;3;2
vs12;hugo;4;2;17-janv-13;1518;mixed;500;400;2000;3;36;4.35779708577;False;L;4;z;1;722;None;None;None;None;None;None;None;None;None;C;2447;7;Vert;0;2;0;0;None;None;0;605;HUGO;340.5;7.14;2;742;2;1
vs12;hugo;4;2;17-janv-13;1519;mixed;500;400;2000;4;1;5.60140454259;True;L;4;a;1;584;None;None;None;None;None;None;None;None;None;A;1999;2;Rouge;0;2;0;0;None;None;0;727;HUGO;258.33;5.59;2;860;3;2
vs12;hugo;4;2;17-janv-13;1519;mixed;500;400;2000;4;2;4.892012057;True;L;8;z;1;359;None;None;None;None;None;None;None;None;None;A;2872;0;Vert;0;8;0;0;None;None;0;786;HUGO;166.75;4.07;2;922;4;3
vs12;hugo;4;2;17-janv-13;1519;mixed;500;400;2000;4;3;5.36067970944;False;L;4;N;0;1500;None;None;None;None;None;None;None;None;None;A;1636;0;Rouge;0;2;0;0;None;None;0;0;HUGO;996.33;2.7;2;3149;3;2
vs12;hugo;4;2;17-janv-13;1519;mixed;500;400;2000;4;4;5.44350488441;False;X;4;z;1;518;None;None;None;None;None;None;None;None;None;D;940;9;Vert;0;2;0;0;None;None;0;1435;HUGO;251;7.91;2;1569;5;4
vs12;hugo;4;2;17-janv-13;1519;mixed;500;400;2000;4;5;5.06759845003;False;L;16;a;1;637;None;None;None;None;None;None;None;None;None;D;1116;8;Rouge;0;11;0;0;None;None;0;0;HUGO;283.5;6.41;2;3149;10;9
vs12;hugo;4;2;17-janv-13;1519;mixed;500;400;2000;4;6;2.27570659561;False;L;8;z;1;297;None;None;None;None;None;None;None;None;None;B;1909;5;Vert;0;7;0;0;None;None;0;1659;HUGO;570.67;5.8;2;1795;3;2
vs12;hugo;4;2;17-janv-13;1519;mixed;500;400;2000;4;7;3.51092394596;True;X;8;a;1;421;None;None;None;None;None;None;None;None;None;B;2059;4;Rouge;0;5;0;0;None;None;0;642;HUGO;235;3.95;2;776;3;2
vs12;hugo;4;2;17-janv-13;1520;mixed;500;400;2000;4;8;1.06683801914;False;X;8;z;1;514;None;None;None;None;None;None;None;None;None;A;1982;2;Vert;0;7;0;0;None;None;0;551;HUGO;205;3.68;2;689;3;2
vs12;hugo;4;2;17-janv-13;1520;mixed;500;400;2000;4;9;5.94796838603;False;L;8;a;1;507;None;None;None;None;None;None;None;None;None;D;990;9;Rouge;0;7;0;0;None;None;0;0;HUGO;281.2;5.04;2;3149;10;9
vs12;hugo;4;2;17-janv-13;1520;mixed;500;400;2000;4;10;6.16801325474;False;X;4;a;1;547;None;None;None;None;None;None;None;None;None;A;1687;0;Rouge;0;3;0;0;None;None;0;526;HUGO;194.67;3.66;2;660;3;2
vs12;hugo;4;2;17-janv-13;1520;mixed;500;400;2000;4;11;5.64739805422;True;X;16;z;1;421;None;None;None;None;None;None;None;None;None;A;2298;1;Vert;0;15;0;0;None;None;0;346;HUGO;214;5.85;2;481;2;1
vs12;hugo;4;2;17-janv-13;1520;mixed;500;400;2000;4;12;4.28742327503;True;X;4;z;1;839;None;None;None;None;None;None;None;None;None;A;1696;0;Vert;0;4;0;0;None;None;0;342;HUGO;210;2.35;2;477;2;2
vs12;hugo;4;2;17-janv-13;1520;mixed;500;400;2000;4;13;0.364212041083;True;X;8;z;1;470;None;None;None;None;None;None;None;None;None;A;1360;0;Vert;0;2;0;0;None;None;0;697;HUGO;182.75;5.49;2;836;4;3
vs12;hugo;4;2;17-janv-13;1520;mixed;500;400;2000;4;14;5.43095686945;False;L;4;z;1;484;None;None;None;None;None;None;None;None;None;A;1295;0;Vert;0;1;0;0;None;None;0;625;HUGO;171.67;2.26;2;758;3;2
vs12;hugo;4;2;17-janv-13;1520;mixed;500;400;2000;4;15;6.25200326401;False;L;8;a;1;344;None;None;None;None;None;None;None;None;None;A;1642;2;Rouge;0;4;0;0;None;None;0;1265;HUGO;319.75;6.13;2;1400;4;3
vs12;hugo;4;2;17-janv-13;1520;mixed;500;400;2000;4;16;1.38295499871;True;L;8;a;1;407;None;None;None;None;None;None;None;None;None;A;1123;0;Rouge;0;7;0;0;None;None;0;2114;HUGO;730.33;4.35;2;2251;3;2
vs12;hugo;4;2;17-janv-13;1520;mixed;500;400;2000;4;17;3.22828466637;True;X;16;z;1;377;None;None;None;None;None;None;None;None;None;A;1347;0;Vert;0;9;0;0;None;None;0;662;HUGO;241;4.64;2;798;3;2
vs12;hugo;4;2;17-janv-13;1521;mixed;500;400;2000;4;18;0.633980807811;True;L;16;z;1;527;None;None;None;None;None;None;None;None;None;A;3223;1;Vert;0;8;0;0;None;None;0;976;HUGO;192.8;4.89;2;1113;5;4
vs12;hugo;4;2;17-janv-13;1521;mixed;500;400;2000;4;19;3.58937105157;True;L;16;a;1;761;None;None;None;None;None;None;None;None;None;A;1466;2;Rouge;0;3;0;0;None;None;0;1168;HUGO;192;3.58;2;1305;6;5
vs12;hugo;4;2;17-janv-13;1521;mixed;500;400;2000;4;20;4.76831143064;True;X;16;z;1;525;None;None;None;None;None;None;None;None;None;A;2145;3;Vert;0;14;0;0;None;None;0;914;HUGO;241.25;3.06;2;1053;4;3
vs12;hugo;4;2;17-janv-13;1521;mixed;500;400;2000;4;21;5.96240332857;False;X;4;z;1;463;None;None;None;None;None;None;None;None;None;A;2802;3;Vert;0;3;0;0;None;None;0;527;HUGO;200;3.12;2;661;3;2
vs12;hugo;4;2;17-janv-13;1521;mixed;500;400;2000;4;22;0.8792104242;False;X;16;z;1;446;None;None;None;None;None;None;None;None;None;A;1169;0;Vert;0;1;0;0;None;None;0;775;HUGO;161;2.63;2;913;5;4
vs12;hugo;4;2;17-janv-13;1521;mixed;500;400;2000;4;23;2.43041437811;True;L;4;a;1;509;None;None;None;None;None;None;None;None;None;B;1216;4;Rouge;0;1;0;0;None;None;0;2674;HUGO;536.4;5.13;2;2808;5;4
vs12;hugo;4;2;17-janv-13;1521;mixed;500;400;2000;4;24;3.43747272919;True;X;4;a;1;346;None;None;None;None;None;None;None;None;None;A;896;0;Rouge;0;3;0;0;None;None;0;625;HUGO;167;2.38;2;759;4;3
vs12;hugo;4;2;17-janv-13;1521;mixed;500;400;2000;4;25;2.85046230526;True;L;4;a;1;624;None;None;None;None;None;None;None;None;None;A;1054;0;Rouge;0;2;0;0;None;None;0;541;HUGO;208.67;2.36;2;677;3;2
vs12;hugo;4;2;17-janv-13;1521;mixed;500;400;2000;4;26;2.8888991496;True;X;4;z;1;292;None;None;None;None;None;None;None;None;None;B;2038;5;Vert;0;2;0;0;None;None;0;601;HUGO;216;5.87;2;735;3;2
vs12;hugo;4;2;17-janv-13;1521;mixed;500;400;2000;4;27;6.20033491687;True;X;8;z;1;418;None;None;None;None;None;None;None;None;None;A;1780;0;Vert;0;2;0;0;None;None;0;408;HUGO;226;3.91;2;543;2;2
vs12;hugo;4;2;17-janv-13;1521;mixed;500;400;2000;4;28;4.84589113777;False;L;16;z;1;351;None;None;None;None;None;None;None;None;None;A;1413;0;Vert;0;3;0;0;None;None;0;992;HUGO;202;3.38;2;1129;5;4
vs12;hugo;4;2;17-janv-13;1522;mixed;500;400;2000;4;29;2.60073866833;True;L;8;z;1;386;None;None;None;None;None;None;None;None;None;C;1632;7;Vert;0;1;0;0;None;None;0;0;HUGO;493.5;5.38;2;3150;6;5
vs12;hugo;4;2;17-janv-13;1522;mixed;500;400;2000;4;30;0.978780824397;False;X;16;a;1;372;None;None;None;None;None;None;None;None;None;A;3201;2;Rouge;0;3;0;0;None;None;0;1385;HUGO;356.75;4.57;2;1523;4;3
vs12;hugo;4;2;17-janv-13;1522;mixed;500;400;2000;4;31;1.39448314266;True;L;16;N;0;1500;None;None;None;None;None;None;None;None;None;B;1331;4;Rouge;0;7;0;0;None;None;0;0;HUGO;366;4.25;2;3143;8;7
vs12;hugo;4;2;17-janv-13;1522;mixed;500;400;2000;4;32;3.97750984335;False;L;16;z;1;1041;None;None;None;None;None;None;None;None;None;B;1620;5;Vert;0;5;0;0;None;None;0;1856;HUGO;172;3.41;2;1991;10;9
vs12;hugo;4;2;17-janv-13;1522;mixed;500;400;2000;4;33;1.84991141919;False;X;8;a;1;426;None;None;None;None;None;None;None;None;None;A;1160;0;Rouge;0;2;0;0;None;None;0;399;HUGO;242.5;5.63;2;532;2;1
vs12;hugo;4;2;17-janv-13;1522;mixed;500;400;2000;4;34;1.11100853533;False;L;4;a;1;513;None;None;None;None;None;None;None;None;None;A;3499;3;Rouge;0;1;0;0;None;None;0;723;HUGO;265.67;4.18;2;861;3;2
vs12;hugo;4;2;17-janv-13;1522;mixed;500;400;2000;4;35;2.65269768854;False;X;16;a;1;528;None;None;None;None;None;None;None;None;None;A;1408;0;Rouge;0;14;0;0;None;None;0;646;HUGO;236;3.62;2;780;3;2
vs12;hugo;4;2;17-janv-13;1522;mixed;500;400;2000;4;36;4.91824375555;False;X;8;a;1;538;None;None;None;None;None;None;None;None;None;B;962;4;Rouge;0;4;0;0;None;None;0;1334;HUGO;258.8;7.88;2;1470;5;4
vs12;hugo;4;2;17-janv-13;1524;mixed;500;400;2000;5;1;0.0191862757108;True;X;4;z;1;1037;None;None;None;None;None;None;None;None;None;A;1314;3;Vert;0;3;0;0;None;None;0;992;HUGO;242;6.19;2;1131;4;3
vs12;hugo;4;2;17-janv-13;1524;mixed;500;400;2000;5;2;0.162788908598;True;L;16;z;1;563;None;None;None;None;None;None;None;None;None;A;1430;1;Vert;0;7;0;0;None;None;0;860;HUGO;271.67;7.92;2;993;3;2
vs12;hugo;4;2;17-janv-13;1524;mixed;500;400;2000;5;3;0.95715210659;False;L;4;z;1;700;None;None;None;None;None;None;None;None;None;A;1400;0;Vert;0;3;0;0;None;None;0;539;HUGO;200.67;4.27;2;678;3;2
vs12;hugo;4;2;17-janv-13;1524;mixed;500;400;2000;5;4;2.22203101699;False;X;16;z;1;485;None;None;None;None;None;None;None;None;None;A;1983;2;Vert;0;2;0;0;None;None;0;1651;HUGO;246.67;3.96;2;1783;6;5
vs12;hugo;4;2;17-janv-13;1524;mixed;500;400;2000;5;5;5.29708808505;False;L;8;z;1;516;None;None;None;None;None;None;None;None;None;A;1718;3;Vert;0;1;0;0;None;None;0;1182;HUGO;298;5.33;2;1317;4;3
vs12;hugo;4;2;17-janv-13;1524;mixed;500;400;2000;5;6;1.21017981427;False;L;4;z;1;599;None;None;None;None;None;None;None;None;None;A;1097;0;Vert;0;3;0;0;None;None;0;408;HUGO;246;6.58;2;546;2;1
vs12;hugo;4;2;17-janv-13;1524;mixed;500;400;2000;5;7;0.299366152699;True;X;16;a;1;675;None;None;None;None;None;None;None;None;None;A;3646;2;Rouge;0;5;0;0;None;None;0;1053;HUGO;266;4.56;2;1188;4;3
vs12;hugo;4;2;17-janv-13;1524;mixed;500;400;2000;5;8;5.94801914128;True;L;16;z;1;618;None;None;None;None;None;None;None;None;None;B;887;5;Vert;0;7;0;0;None;None;0;1765;HUGO;244.57;4.02;2;1902;7;6
vs12;hugo;4;2;17-janv-13;1524;mixed;500;400;2000;5;9;3.02641580264;True;L;8;z;1;337;None;None;None;None;None;None;None;None;None;A;1501;0;Vert;0;6;0;0;None;None;0;343;HUGO;216;4.31;2;476;2;1
vs12;hugo;4;2;17-janv-13;1524;mixed;500;400;2000;5;10;6.25940453789;True;L;8;z;1;516;None;None;None;None;None;None;None;None;None;D;1430;9;Vert;0;5;0;0;None;None;0;1301;HUGO;259.4;4.95;2;1437;5;4
vs12;hugo;4;2;17-janv-13;1525;mixed;500;400;2000;5;11;1.28652819097;False;X;4;a;1;435;None;None;None;None;None;None;None;None;None;D;1370;10;Rouge;0;1;0;0;None;None;0;1012;HUGO;216;6.98;2;1148;4;3
vs12;hugo;4;2;17-janv-13;1525;mixed;500;400;2000;5;12;2.29047355272;True;X;4;a;1;347;None;None;None;None;None;None;None;None;None;A;1331;0;Rouge;0;4;0;0;None;None;0;543;HUGO;194.67;6.34;2;677;3;2
vs12;hugo;4;2;17-janv-13;1525;mixed;500;400;2000;5;13;4.33122508584;True;X;16;a;1;391;None;None;None;None;None;None;None;None;None;A;1762;1;Rouge;0;10;0;0;None;None;0;617;HUGO;224;4.91;2;753;3;2
vs12;hugo;4;2;17-janv-13;1525;mixed;500;400;2000;5;14;5.21843114126;True;L;16;z;1;434;None;None;None;None;None;None;None;None;None;A;1669;3;Vert;0;9;0;0;None;None;0;2380;HUGO;300.86;3.3;2;2515;7;6
vs12;hugo;4;2;17-janv-13;1525;mixed;500;400;2000;5;15;0.742157242361;False;L;8;z;1;398;None;None;None;None;None;None;None;None;None;A;1067;0;Vert;0;4;0;0;None;None;0;450;HUGO;260.5;3.21;2;587;2;2
vs12;hugo;4;2;17-janv-13;1525;mixed;500;400;2000;5;16;3.9494880686;True;X;8;a;1;403;None;None;None;None;None;None;None;None;None;A;1215;0;Rouge;0;6;0;0;None;None;0;674;HUGO;242.67;5.12;2;812;3;2
vs12;hugo;4;2;17-janv-13;1525;mixed;500;400;2000;5;17;1.76350184223;False;X;8;z;1;466;None;None;None;None;None;None;None;None;None;B;1948;4;Vert;0;4;0;0;None;None;0;880;HUGO;291;3.34;2;1015;3;2
vs12;hugo;4;2;17-janv-13;1525;mixed;500;400;2000;5;18;0.150274375546;False;X;8;a;1;274;None;None;None;None;None;None;None;None;None;A;1030;0;Rouge;0;3;0;0;None;None;0;527;HUGO;198;3.93;2;664;3;2
vs12;hugo;4;2;17-janv-13;1525;mixed;500;400;2000;5;19;1.12178445891;True;L;8;z;1;791;None;None;None;None;None;None;None;None;None;A;1070;0;Vert;0;1;0;0;None;None;0;815;HUGO;290.33;4.53;2;952;3;2
vs12;hugo;4;2;17-janv-13;1525;mixed;500;400;2000;5;20;0.910939243032;True;X;4;a;1;664;None;None;None;None;None;None;None;None;None;A;1471;0;Rouge;0;3;0;0;None;None;0;403;HUGO;238;11.29;2;537;2;1
vs12;hugo;4;2;17-janv-13;1525;mixed;500;400;2000;5;21;3.86960981484;False;X;4;z;1;317;None;None;None;None;None;None;None;None;None;A;1663;0;Vert;0;1;0;0;None;None;0;417;HUGO;158.33;3.81;2;551;3;2
vs12;hugo;4;2;17-janv-13;1526;mixed;500;400;2000;5;22;5.6666910677;False;L;16;z;1;332;None;None;None;None;None;None;None;None;None;A;930;0;Vert;0;7;0;0;None;None;0;475;HUGO;279;8.04;2;611;2;1
vs12;hugo;4;2;17-janv-13;1526;mixed;500;400;2000;5;23;1.42482445819;False;X;4;a;1;387;None;None;None;None;None;None;None;None;None;A;1014;0;Rouge;0;1;0;0;None;None;0;539;HUGO;209;1.74;2;676;3;2
vs12;hugo;4;2;17-janv-13;1526;mixed;500;400;2000;5;24;4.79177868612;False;X;8;a;1;293;None;None;None;None;None;None;None;None;None;A;1604;1;Rouge;0;4;0;0;None;None;0;626;HUGO;351;9.51;2;760;2;1
vs12;hugo;4;2;17-janv-13;1526;mixed;500;400;2000;5;25;6.18208488075;False;L;16;z;1;933;None;None;None;None;None;None;None;None;None;D;1030;8;Vert;0;11;0;0;None;None;0;1979;HUGO;208.22;3.15;2;2117;9;8
vs12;hugo;4;2;17-janv-13;1526;mixed;500;400;2000;5;26;4.97423791572;False;X;16;z;1;353;None;None;None;None;None;None;None;None;None;A;937;1;Vert;0;10;0;0;None;None;0;655;HUGO;178.75;1.86;2;792;4;3
vs12;hugo;4;2;17-janv-13;1526;mixed;500;400;2000;5;27;2.20928467631;False;X;16;a;1;344;None;None;None;None;None;None;None;None;None;A;1396;2;Rouge;0;8;0;0;None;None;0;830;HUGO;210.5;5.21;2;963;4;3
vs12;hugo;4;2;17-janv-13;1526;mixed;500;400;2000;5;28;1.52935157127;True;L;4;a;1;435;None;None;None;None;None;None;None;None;None;D;1319;9;Rouge;0;3;0;0;None;None;0;885;HUGO;220.25;4.7;0;1020;4;4
vs12;hugo;4;2;17-janv-13;1526;mixed;500;400;2000;5;29;4.2495758504;True;L;4;a;1;255;None;None;None;None;None;None;None;None;None;A;2321;2;Rouge;0;4;0;0;None;None;0;625;HUGO;233.33;3.2;2;761;3;2
vs12;hugo;4;2;17-janv-13;1526;mixed;500;400;2000;5;30;3.19594245048;False;L;16;a;1;386;None;None;None;None;None;None;None;None;None;A;1709;0;Rouge;0;9;0;0;None;None;0;496;HUGO;188.33;3.56;2;632;3;2
vs12;hugo;4;2;17-janv-13;1526;mixed;500;400;2000;5;31;0.820040860987;True;L;4;z;1;369;None;None;None;None;None;None;None;None;None;A;1353;0;Vert;0;3;0;0;None;None;0;573;HUGO;221.33;2.27;2;711;3;2
vs12;hugo;4;2;17-janv-13;1526;mixed;500;400;2000;5;32;5.76463464075;False;L;4;a;1;516;None;None;None;None;None;None;None;None;None;D;946;9;Rouge;0;3;0;0;None;None;0;915;HUGO;223.75;9.43;2;1048;4;3
vs12;hugo;4;2;17-janv-13;1527;mixed;500;400;2000;5;33;1.98621485427;False;L;8;a;1;706;None;None;None;None;None;None;None;None;None;D;1513;9;Rouge;0;3;0;0;None;None;0;1491;HUGO;234.83;6.98;2;1625;6;5
vs12;hugo;4;2;17-janv-13;1527;mixed;500;400;2000;5;34;4.51413592133;True;X;8;a;1;461;None;None;None;None;None;None;None;None;None;A;811;0;Rouge;0;7;0;0;None;None;0;674;HUGO;245.67;4.39;2;809;3;2
vs12;hugo;4;2;17-janv-13;1527;mixed;500;400;2000;5;35;1.99964652624;True;X;16;z;1;406;None;None;None;None;None;None;None;None;None;A;1787;0;Vert;0;2;0;0;None;None;0;551;HUGO;208;2.61;2;687;3;2
vs12;hugo;4;2;17-janv-13;1527;mixed;500;400;2000;5;36;0.0821602458971;True;X;8;z;1;401;None;None;None;None;None;None;None;None;None;A;1598;0;Vert;0;5;0;0;None;None;0;508;HUGO;195.67;3.82;2;646;3;2
vs12;hugo;4;2;17-janv-13;1528;mixed;500;400;2000;6;1;1.53196189454;False;L;16;a;1;1378;None;None;None;None;None;None;None;None;None;A;2289;2;Rouge;0;12;0;0;None;None;0;1146;HUGO;176.17;5.36;2;1280;6;5
vs12;hugo;4;2;17-janv-13;1528;mixed;500;400;2000;6;2;0.633396508933;False;X;16;z;1;407;None;None;None;None;None;None;None;None;None;A;1000;0;Vert;0;9;0;0;None;None;0;575;HUGO;215.67;3.35;2;712;3;2
vs12;hugo;4;2;17-janv-13;1528;mixed;500;400;2000;6;3;4.0999236085;True;X;4;z;1;381;None;None;None;None;None;None;None;None;None;A;963;1;Vert;0;3;0;0;None;None;0;427;HUGO;234.5;5.2;2;564;2;2
vs12;hugo;4;2;17-janv-13;1528;mixed;500;400;2000;6;4;0.858494941059;False;L;4;z;1;495;None;None;None;None;None;None;None;None;None;C;1039;7;Vert;0;1;0;0;None;None;0;796;HUGO;274;9.49;2;935;3;2
vs12;hugo;4;2;17-janv-13;1528;mixed;500;400;2000;6;5;0.165507333523;True;X;16;a;1;610;None;None;None;None;None;None;None;None;None;B;1342;4;Rouge;0;14;0;0;None;None;0;985;HUGO;248.5;7.22;2;1121;4;3
vs12;hugo;4;2;17-janv-13;1528;mixed;500;400;2000;6;6;2.34946500585;False;X;8;a;1;327;None;None;None;None;None;None;None;None;None;A;645;0;Rouge;0;5;0;0;None;None;0;438;HUGO;261;7.7;2;574;2;1
vs12;hugo;4;2;17-janv-13;1528;mixed;500;400;2000;6;7;3.81937274491;True;X;8;a;1;541;None;None;None;None;None;None;None;None;None;A;1061;0;Rouge;0;7;0;0;None;None;0;645;HUGO;358.5;8.11;2;778;2;1
vs12;hugo;4;2;17-janv-13;1529;mixed;500;400;2000;6;8;1.56352329732;False;X;4;z;1;557;None;None;None;None;None;None;None;None;None;A;1619;0;Vert;0;1;0;0;None;None;0;370;HUGO;229.5;5.69;2;504;2;1
vs12;hugo;4;2;17-janv-13;1529;mixed;500;400;2000;6;9;5.49849793607;True;L;16;z;1;382;None;None;None;None;None;None;None;None;None;A;1245;0;Vert;0;1;0;0;None;None;0;752;HUGO;202.25;2.54;2;893;4;3
vs12;hugo;4;2;17-janv-13;1529;mixed;500;400;2000;6;10;5.25354830148;False;X;16;z;1;448;None;None;None;None;None;None;None;None;None;B;1620;4;Vert;0;12;0;0;None;None;0;800;HUGO;278;9.27;2;936;3;2
vs12;hugo;4;2;17-janv-13;1529;mixed;500;400;2000;6;11;1.63263807979;False;L;8;a;1;613;None;None;None;None;None;None;None;None;None;A;1720;3;Rouge;0;6;0;0;None;None;0;1161;HUGO;234;3.21;2;1296;5;4
vs12;hugo;4;2;17-janv-13;1529;mixed;500;400;2000;6;12;0.180751496259;True;X;8;a;1;563;None;None;None;None;None;None;None;None;None;A;1241;0;Rouge;0;1;0;0;None;None;0;573;HUGO;208.33;4.29;2;710;3;2
vs12;hugo;4;2;17-janv-13;1529;mixed;500;400;2000;6;13;2.57825097479;False;L;8;z;1;326;None;None;None;None;None;None;None;None;None;A;1094;1;Vert;0;3;0;0;None;None;0;497;HUGO;248.5;7.88;2;634;2;1
vs12;hugo;4;2;17-janv-13;1529;mixed;500;400;2000;6;14;2.78499475396;True;L;4;z;1;379;None;None;None;None;None;None;None;None;None;A;2019;3;Vert;0;3;0;0;None;None;0;424;HUGO;252;10.48;2;563;2;1
vs12;hugo;4;2;17-janv-13;1529;mixed;500;400;2000;6;15;4.70397211293;False;L;4;a;1;425;None;None;None;None;None;None;None;None;None;B;908;4;Rouge;0;1;0;0;None;None;0;440;HUGO;260.5;8.11;2;573;2;1
vs12;hugo;4;2;17-janv-13;1529;mixed;500;400;2000;6;16;6.10574258838;True;X;16;z;1;365;None;None;None;None;None;None;None;None;None;A;1076;0;Vert;0;9;0;0;None;None;0;585;HUGO;214.33;4.88;2;719;3;2
vs12;hugo;4;2;17-janv-13;1529;mixed;500;400;2000;6;17;1.18573640595;True;L;8;z;1;337;None;None;None;None;None;None;None;None;None;B;861;5;Vert;0;5;0;0;None;None;0;884;HUGO;220.75;7.93;2;1024;4;3
vs12;hugo;4;2;17-janv-13;1529;mixed;500;400;2000;6;18;1.39196547705;True;L;8;z;1;605;None;None;None;None;None;None;None;None;None;D;1918;9;Vert;0;8;0;0;None;None;0;2150;HUGO;291;6.53;2;2287;7;6
vs12;hugo;4;2;17-janv-13;1529;mixed;500;400;2000;6;19;2.51363204529;True;X;4;a;1;602;None;None;None;None;None;None;None;None;None;A;727;0;Rouge;0;4;0;0;None;None;0;442;HUGO;168;3.92;2;577;3;2
vs12;hugo;4;2;17-janv-13;1530;mixed;500;400;2000;6;20;2.90201870407;False;X;4;a;1;398;None;None;None;None;None;None;None;None;None;B;761;5;Rouge;0;1;0;0;None;None;0;763;HUGO;276.67;4.14;2;900;3;2
vs12;hugo;4;2;17-janv-13;1530;mixed;500;400;2000;6;21;0.754842529548;False;L;8;a;1;574;None;None;None;None;None;None;None;None;None;D;960;9;Rouge;0;2;0;0;None;None;0;1538;HUGO;302.6;3.32;2;1673;5;5
vs12;hugo;4;2;17-janv-13;1530;mixed;500;400;2000;6;22;2.05192131474;True;X;16;a;1;394;None;None;None;None;None;None;None;None;None;A;1056;3;Rouge;0;4;0;0;None;None;0;923;HUGO;236.5;5.19;2;1063;4;3
vs12;hugo;4;2;17-janv-13;1530;mixed;500;400;2000;6;23;1.38662774332;False;L;4;z;1;350;None;None;None;None;None;None;None;None;None;C;962;7;Vert;0;1;0;0;None;None;0;687;HUGO;249;5.53;2;824;3;2
vs12;hugo;4;2;17-janv-13;1530;mixed;500;400;2000;6;24;4.36892100138;True;X;4;z;1;313;None;None;None;None;None;None;None;None;None;B;995;4;Vert;0;1;0;0;None;None;0;421;HUGO;250.5;7.68;0;559;2;1
vs12;hugo;4;2;17-janv-13;1530;mixed;500;400;2000;6;25;2.85894048602;True;L;4;a;1;316;None;None;None;None;None;None;None;None;None;D;829;10;Rouge;0;2;0;0;None;None;0;1228;HUGO;196.33;6.19;2;1368;6;5
vs12;hugo;4;2;17-janv-13;1530;mixed;500;400;2000;6;26;2.84309887735;True;L;8;a;1;492;None;None;None;None;None;None;None;None;None;B;2063;4;Rouge;0;4;0;0;None;None;0;627;HUGO;232;3.93;0;763;3;2
vs12;hugo;4;2;17-janv-13;1530;mixed;500;400;2000;6;27;5.62653019548;True;L;16;a;1;493;None;None;None;None;None;None;None;None;None;A;2156;1;Rouge;0;12;0;0;None;None;0;791;HUGO;205;4.15;0;926;4;3
vs12;hugo;4;2;17-janv-13;1530;mixed;500;400;2000;6;28;4.5097631585;False;L;16;a;1;983;None;None;None;None;None;None;None;None;None;D;1693;10;Rouge;0;5;0;0;None;None;0;0;HUGO;165.5;4.24;2;3145;16;15
vs12;hugo;4;2;17-janv-13;1530;mixed;500;400;2000;6;29;2.12140735894;False;X;8;z;1;479;None;None;None;None;None;None;None;None;None;A;771;1;Vert;0;7;0;0;None;None;0;550;HUGO;201;5.8;2;688;3;2
vs12;hugo;4;2;17-janv-13;1530;mixed;500;400;2000;6;30;3.9967157366;True;X;8;z;1;391;None;None;None;None;None;None;None;None;None;A;1794;0;Vert;0;2;0;0;None;None;0;518;HUGO;195.33;4.3;2;656;3;2
vs12;hugo;4;2;17-janv-13;1531;mixed;500;400;2000;6;31;2.72449482062;False;X;8;z;1;454;None;None;None;None;None;None;None;None;None;B;832;4;Vert;0;3;0;0;None;None;0;806;HUGO;278.33;8.18;2;942;3;2
vs12;hugo;4;2;17-janv-13;1531;mixed;500;400;2000;6;32;1.8398074088;False;X;4;z;1;500;None;None;None;None;None;None;None;None;None;A;1028;0;Vert;0;4;0;0;None;None;0;398;HUGO;240.5;6.7;2;534;2;1
vs12;hugo;4;2;17-janv-13;1531;mixed;500;400;2000;6;33;4.36047995865;True;L;16;z;1;978;None;None;None;None;None;None;None;None;None;D;1361;9;Vert;0;1;0;0;None;None;0;2183;HUGO;195.5;6.32;2;2323;10;9
vs12;hugo;4;2;17-janv-13;1531;mixed;500;400;2000;6;34;5.51918691717;False;L;16;z;1;489;None;None;None;None;None;None;None;None;None;D;1115;8;Vert;0;15;0;0;None;None;0;1541;HUGO;241.33;5.68;2;1674;6;6
vs12;hugo;4;2;17-janv-13;1531;mixed;500;400;2000;6;35;2.49433930797;True;L;4;a;1;532;None;None;None;None;None;None;None;None;None;D;1243;10;Rouge;0;3;0;0;None;None;0;1294;HUGO;253.4;7.02;2;1429;5;4
vs12;hugo;4;2;17-janv-13;1531;mixed;500;400;2000;6;36;1.2847075705;False;X;16;z;1;667;None;None;None;None;None;None;None;None;None;A;1133;0;Vert;0;13;0;0;None;None;0;569;HUGO;210.67;4.54;2;705;3;2
vs12;hugo;4;2;17-janv-13;1532;mixed;500;400;2000;7;1;5.11275645237;False;X;4;a;1;825;None;None;None;None;None;None;None;None;None;D;1579;9;Rouge;0;4;0;0;None;None;0;1249;HUGO;214.2;9.25;2;1384;5;4
vs12;hugo;4;2;17-janv-13;1532;mixed;500;400;2000;7;2;0.778928294135;True;L;8;z;1;615;None;None;None;None;None;None;None;None;None;D;2308;10;Vert;0;1;0;0;None;None;0;1961;HUGO;203;5;2;2096;9;8
vs12;hugo;4;2;17-janv-13;1532;mixed;500;400;2000;7;3;6.17158597542;False;X;4;z;1;335;None;None;None;None;None;None;None;None;None;A;1025;0;Vert;0;1;0;0;None;None;0;486;HUGO;184;4.62;2;624;3;2
vs12;hugo;4;2;17-janv-13;1532;mixed;500;400;2000;7;4;0.391226466974;True;L;16;a;1;385;None;None;None;None;None;None;None;None;None;B;905;4;Rouge;0;12;0;0;None;None;0;1116;HUGO;227.4;3.05;2;1255;5;4
vs12;hugo;4;2;17-janv-13;1532;mixed;500;400;2000;7;5;6.24066528343;True;X;4;a;1;313;None;None;None;None;None;None;None;None;None;B;1904;4;Rouge;0;1;0;0;None;None;0;404;HUGO;240.5;8.56;2;538;2;1
vs12;hugo;4;2;17-janv-13;1532;mixed;500;400;2000;7;6;4.26333870163;False;L;4;z;1;326;None;None;None;None;None;None;None;None;None;C;807;6;Vert;0;1;0;0;None;None;0;599;HUGO;341.5;8.14;2;734;2;1
vs12;hugo;4;2;17-janv-13;1533;mixed;500;400;2000;7;7;0.981060320921;False;L;8;z;1;537;None;None;None;None;None;None;None;None;None;C;566;7;Vert;0;5;0;0;None;None;0;1360;HUGO;339.25;6.87;2;1498;4;3
vs12;hugo;4;2;17-janv-13;1533;mixed;500;400;2000;7;8;5.07841387335;True;L;16;z;1;427;None;None;None;None;None;None;None;None;None;A;1871;0;Vert;0;9;0;0;None;None;0;552;HUGO;207;2.54;2;686;3;2
vs12;hugo;4;2;17-janv-13;1533;mixed;500;400;2000;7;9;4.71975378647;True;X;8;z;1;506;None;None;None;None;None;None;None;None;None;A;1002;0;Vert;0;5;0;0;None;None;0;558;HUGO;207.33;3.32;2;693;3;2
vs12;hugo;4;2;17-janv-13;1533;mixed;500;400;2000;7;10;6.04112747539;True;L;4;a;1;443;None;None;None;None;None;None;None;None;None;C;1653;7;Rouge;0;4;0;0;None;None;0;778;HUGO;197.75;6.41;2;914;4;3
vs12;hugo;4;2;17-janv-13;1533;mixed;500;400;2000;7;11;2.09375952537;False;X;16;z;1;636;None;None;None;None;None;None;None;None;None;A;2171;0;Vert;0;2;0;0;None;None;0;563;HUGO;191;9.38;2;700;3;2
vs12;hugo;4;2;17-janv-13;1533;mixed;500;400;2000;7;12;5.01198373279;True;X;8;z;1;496;None;None;None;None;None;None;None;None;None;A;1611;1;Vert;0;1;0;0;None;None;0;509;HUGO;190.67;3.79;2;644;3;2
vs12;hugo;4;2;17-janv-13;1533;mixed;500;400;2000;7;13;2.76260971201;False;X;4;z;1;530;None;None;None;None;None;None;None;None;None;A;1833;1;Vert;0;1;0;0;None;None;0;537;HUGO;202.67;3.75;2;673;3;2
vs12;hugo;4;2;17-janv-13;1533;mixed;500;400;2000;7;14;3.64831410994;False;X;8;z;1;377;None;None;None;None;None;None;None;None;None;A;1528;0;Vert;0;6;0;0;None;None;0;388;HUGO;227.5;3.98;2;523;2;2
vs12;hugo;4;2;17-janv-13;1533;mixed;500;400;2000;7;15;2.31617078058;False;L;16;a;1;341;None;None;None;None;None;None;None;None;None;A;814;1;Rouge;0;13;0;0;None;None;0;669;HUGO;243.67;3.38;2;803;3;2
vs12;hugo;4;2;17-janv-13;1533;mixed;500;400;2000;7;16;5.57943111347;True;L;8;a;1;345;None;None;None;None;None;None;None;None;None;B;852;5;Rouge;0;3;0;0;None;None;0;1050;HUGO;204.4;6.62;0;1187;5;4
vs12;hugo;4;2;17-janv-13;1533;mixed;500;400;2000;7;17;0.421960242208;False;L;4;a;1;467;None;None;None;None;None;None;None;None;None;B;2615;4;Rouge;0;3;0;0;None;None;0;724;HUGO;249.33;9.07;2;860;3;2
vs12;hugo;4;2;17-janv-13;1534;mixed;500;400;2000;7;18;5.81494314629;False;X;8;a;1;877;None;None;None;None;None;None;None;None;None;A;2627;0;Rouge;0;2;0;0;None;None;0;550;HUGO;206;3.16;2;685;3;2
vs12;hugo;4;2;17-janv-13;1534;mixed;500;400;2000;7;19;4.38590521639;False;L;16;z;1;443;None;None;None;None;None;None;None;None;None;A;1874;3;Vert;0;10;0;0;None;None;0;991;HUGO;255.75;3.88;2;1130;4;3
vs12;hugo;4;2;17-janv-13;1534;mixed;500;400;2000;7;20;0.917070115417;False;X;16;a;1;304;None;None;None;None;None;None;None;None;None;A;1113;1;Rouge;0;2;0;0;None;None;0;625;HUGO;230.67;2.97;2;760;3;2
vs12;hugo;4;2;17-janv-13;1534;mixed;500;400;2000;7;21;0.972701739798;True;L;4;a;1;560;None;None;None;None;None;None;None;None;None;A;1092;0;Rouge;0;2;0;0;None;None;0;466;HUGO;183;2.06;2;603;3;2
vs12;hugo;4;2;17-janv-13;1534;mixed;500;400;2000;7;22;4.31293781447;True;X;16;z;1;468;None;None;None;None;None;None;None;None;None;A;2936;2;Vert;0;5;0;0;None;None;0;850;HUGO;215;7.6;2;989;4;3
vs12;hugo;4;2;17-janv-13;1534;mixed;500;400;2000;7;23;3.98367480694;False;L;8;z;1;949;None;None;None;None;None;None;None;None;None;B;2578;4;Vert;0;5;0;0;None;None;0;713;HUGO;246.67;4.75;2;847;3;2
vs12;hugo;4;2;17-janv-13;1534;mixed;500;400;2000;7;24;0.535601966622;True;X;4;a;1;469;None;None;None;None;None;None;None;None;None;A;1232;0;Rouge;0;3;0;0;None;None;0;530;HUGO;204.67;2.09;2;668;3;2
vs12;hugo;4;2;17-janv-13;1534;mixed;500;400;2000;7;25;2.9573749846;True;X;16;z;1;436;None;None;None;None;None;None;None;None;None;A;1662;0;Vert;0;11;0;0;None;None;0;463;HUGO;283;1.84;0;596;2;1
vs12;hugo;4;2;17-janv-13;1534;mixed;500;400;2000;7;26;2.02835950663;False;L;16;z;1;473;None;None;None;None;None;None;None;None;None;C;1869;6;Vert;0;13;0;0;None;None;0;1620;HUGO;169.11;3.1;2;1755;9;8
vs12;hugo;4;2;17-janv-13;1534;mixed;500;400;2000;7;27;3.90628680644;True;X;4;a;1;420;None;None;None;None;None;None;None;None;None;A;1034;0;Rouge;0;2;0;0;None;None;0;406;HUGO;154;3.45;2;540;3;2
vs12;hugo;4;2;17-janv-13;1535;mixed;500;400;2000;7;28;5.93614535149;True;L;4;a;1;430;None;None;None;None;None;None;None;None;None;A;2913;2;Rouge;0;4;0;0;None;None;0;2448;HUGO;442.4;6.04;2;2585;5;4
vs12;hugo;4;2;17-janv-13;1535;mixed;500;400;2000;7;29;6.13568587368;True;X;16;a;1;512;None;None;None;None;None;None;None;None;None;A;1296;0;Rouge;0;15;0;0;None;None;0;342;HUGO;204;1.95;2;479;2;2
vs12;hugo;4;2;17-janv-13;1535;mixed;500;400;2000;7;30;0.401769154572;False;L;8;a;1;550;None;None;None;None;None;None;None;None;None;B;4667;4;Rouge;0;4;0;0;None;None;0;1282;HUGO;324.5;5.1;2;1416;4;3
vs12;hugo;4;2;17-janv-13;1535;mixed;500;400;2000;7;31;2.12669268366;True;L;8;z;1;501;None;None;None;None;None;None;None;None;None;A;4862;2;Vert;0;4;0;0;None;None;0;520;HUGO;196.33;3.31;2;657;3;2
vs12;hugo;4;2;17-janv-13;1535;mixed;500;400;2000;7;32;5.32680275316;False;X;8;z;1;798;None;None;None;None;None;None;None;None;None;A;962;0;Vert;0;2;0;0;None;None;0;611;HUGO;217.33;8.75;2;751;3;2
vs12;hugo;4;2;17-janv-13;1535;mixed;500;400;2000;7;33;0.925607269456;True;X;8;z;1;555;None;None;None;None;None;None;None;None;None;A;946;0;Vert;0;2;0;0;None;None;0;375;HUGO;238;2.7;2;511;2;1
vs12;hugo;4;2;17-janv-13;1535;mixed;500;400;2000;7;34;0.86922105986;True;L;16;a;1;1072;None;None;None;None;None;None;None;None;None;D;2119;9;Rouge;0;8;0;0;None;None;0;2332;HUGO;174.83;4.56;2;2467;12;11
vs12;hugo;4;2;17-janv-13;1535;mixed;500;400;2000;7;35;2.55439158147;False;X;16;z;1;421;None;None;None;None;None;None;None;None;None;B;880;5;Vert;0;1;0;0;None;None;0;1269;HUGO;203.17;5.92;2;1407;6;5
vs12;hugo;4;2;17-janv-13;1535;mixed;500;400;2000;7;36;1.84539523336;False;L;4;z;1;727;None;None;None;None;None;None;None;None;None;D;953;9;Vert;0;2;0;0;None;None;0;958;HUGO;211.5;5.99;2;1092;4;3
vs12;hugo;4;2;17-janv-13;1537;mixed;500;400;2000;8;1;0.825166070193;True;X;4;z;1;525;None;None;None;None;None;None;None;None;None;A;2535;1;Vert;0;3;0;0;None;None;0;1092;HUGO;373.33;8.24;2;1250;3;2
vs12;hugo;4;2;17-janv-13;1538;mixed;500;400;2000;8;2;2.64224151472;True;L;4;a;1;667;None;None;None;None;None;None;None;None;None;A;2051;0;Rouge;0;2;0;0;None;None;0;449;HUGO;132.67;3.62;2;582;3;2
vs12;hugo;4;2;17-janv-13;1538;mixed;500;400;2000;8;3;5.73830515825;False;X;4;a;1;434;None;None;None;None;None;None;None;None;None;C;1087;6;Rouge;0;3;0;0;None;None;0;620;HUGO;219;8.06;2;752;3;2
vs12;hugo;4;2;17-janv-13;1538;mixed;500;400;2000;8;4;1.85266107423;False;X;8;z;1;440;None;None;None;None;None;None;None;None;None;A;2030;0;Vert;0;8;0;0;None;None;0;592;HUGO;221;2.78;2;725;3;2
vs12;hugo;4;2;17-janv-13;1538;mixed;500;400;2000;8;5;3.14145351131;False;L;8;z;1;1213;None;None;None;None;None;None;None;None;None;A;1247;1;Vert;0;8;0;0;None;None;0;533;HUGO;199.33;3.25;2;668;3;2
vs12;hugo;4;2;17-janv-13;1538;mixed;500;400;2000;8;6;0.637946488195;True;X;8;z;1;480;None;None;None;None;None;None;None;None;None;A;1524;2;Vert;0;5;0;0;None;None;0;520;HUGO;191.33;6.43;2;657;3;2
vs12;hugo;4;2;17-janv-13;1538;mixed;500;400;2000;8;7;1.45895573488;True;L;8;z;1;1058;None;None;None;None;None;None;None;None;None;A;1870;3;Vert;0;7;0;0;None;None;0;1351;HUGO;214.33;6.15;2;1486;6;5
vs12;hugo;4;2;17-janv-13;1538;mixed;500;400;2000;8;8;1.50817262625;False;L;4;a;1;524;None;None;None;None;None;None;None;None;None;C;1440;6;Rouge;0;4;0;0;None;None;0;760;HUGO;261.33;10.44;2;897;3;2
vs12;hugo;4;2;17-janv-13;1538;mixed;500;400;2000;8;9;5.44879672237;True;L;8;z;1;831;None;None;None;None;None;None;None;None;None;D;929;8;Vert;0;6;0;0;None;None;0;2884;HUGO;573.4;4.87;2;3022;5;4
vs12;hugo;4;2;17-janv-13;1538;mixed;500;400;2000;8;10;5.07104473592;False;X;16;a;1;653;None;None;None;None;None;None;None;None;None;B;2667;5;Rouge;0;15;0;0;None;None;0;2519;HUGO;506.6;3.88;2;2654;5;4
vs12;hugo;4;2;17-janv-13;1538;mixed;500;400;2000;8;11;2.0655208608;True;X;16;z;1;388;None;None;None;None;None;None;None;None;None;A;2775;0;Vert;0;14;0;0;None;None;0;467;HUGO;277;8.63;2;607;2;1
vs12;hugo;4;2;17-janv-13;1539;mixed;500;400;2000;8;12;5.36032021888;False;L;4;N;0;1500;None;None;None;None;None;None;None;None;None;A;3367;3;Rouge;0;1;0;0;None;None;0;0;HUGO;1028;3.35;2;3150;3;2
vs12;hugo;4;2;17-janv-13;1539;mixed;500;400;2000;8;13;0.270750258786;True;X;8;a;1;626;None;None;None;None;None;None;None;None;None;A;1853;0;Rouge;0;4;0;0;None;None;0;567;HUGO;215.33;3.22;2;706;3;2
vs12;hugo;4;2;17-janv-13;1539;mixed;500;400;2000;8;14;3.65139860592;False;X;8;a;1;588;None;None;None;None;None;None;None;None;None;A;2264;0;Rouge;0;8;0;0;None;None;0;355;HUGO;226.5;2.87;2;487;2;1
vs12;hugo;4;2;17-janv-13;1539;mixed;500;400;2000;8;15;6.2564467902;True;L;4;N;0;1500;None;None;None;None;None;None;None;None;None;A;1574;0;Vert;0;2;0;0;None;None;0;0;HUGO;1567.5;0.34;2;3151;2;1
vs12;hugo;4;2;17-janv-13;1539;mixed;500;400;2000;8;16;3.13111430391;False;L;16;z;1;875;None;None;None;None;None;None;None;None;None;D;1841;9;Vert;0;11;0;0;None;None;0;2357;HUGO;198.82;3.67;2;2490;11;10
vs12;hugo;4;2;17-janv-13;1539;mixed;500;400;2000;8;17;5.90634160203;True;X;4;a;1;533;None;None;None;None;None;None;None;None;None;B;3586;5;Rouge;0;4;0;0;None;None;0;891;HUGO;322.33;3.32;2;1026;3;2
vs12;hugo;4;2;17-janv-13;1539;mixed;500;400;2000;8;18;5.09798233636;True;X;16;a;1;498;None;None;None;None;None;None;None;None;None;A;1842;0;Rouge;0;15;0;0;None;None;0;599;HUGO;230.67;1.68;2;736;3;2
vs12;hugo;4;2;17-janv-13;1539;mixed;500;400;2000;8;19;1.86612026346;True;L;16;z;1;394;None;None;None;None;None;None;None;None;None;A;1469;0;Vert;0;10;0;0;None;None;0;70;HUGO;199;0;2;207;1;0
vs12;hugo;4;2;17-janv-13;1539;mixed;500;400;2000;8;20;4.87765692764;False;L;16;z;1;691;None;None;None;None;None;None;None;None;None;D;1617;8;Vert;0;16;0;0;None;None;0;2020;HUGO;187.1;3.75;2;2157;10;9
vs12;hugo;4;2;17-janv-13;1540;mixed;500;400;2000;8;21;2.87611242163;True;L;8;z;1;569;None;None;None;None;None;None;None;None;None;D;1078;8;Vert;0;6;0;0;None;None;0;873;HUGO;172.2;5.22;2;1007;5;4
vs12;hugo;4;2;17-janv-13;1540;mixed;500;400;2000;8;22;3.16334846446;False;X;16;N;0;1500;None;None;None;None;None;None;None;None;None;A;2401;1;Rouge;0;6;0;0;None;None;0;0;HUGO;611.8;2.1;2;3152;5;4
vs12;hugo;4;2;17-janv-13;1540;mixed;500;400;2000;8;23;1.36549829597;False;L;16;z;1;624;None;None;None;None;None;None;None;None;None;A;1685;0;Vert;0;1;0;0;None;None;0;0;HUGO;772.5;1.12;2;3144;4;3
vs12;hugo;4;2;17-janv-13;1540;mixed;500;400;2000;8;24;3.94912397339;True;L;16;z;1;398;None;None;None;None;None;None;None;None;None;A;1728;0;Vert;0;3;0;0;None;None;0;929;HUGO;243.25;3.2;2;1067;4;3
vs12;hugo;4;2;17-janv-13;1540;mixed;500;400;2000;8;25;4.47718142665;False;X;4;a;1;346;None;None;None;None;None;None;None;None;None;A;2228;2;Rouge;0;4;0;0;None;None;0;636;HUGO;166.75;5.45;2;772;4;3
vs12;hugo;4;2;17-janv-13;1540;mixed;500;400;2000;8;26;3.02475110075;False;X;4;z;1;454;None;None;None;None;None;None;None;None;None;A;2881;0;Vert;0;4;0;0;None;None;0;598;HUGO;157.25;3.62;2;733;4;3
vs12;hugo;4;2;17-janv-13;1540;mixed;500;400;2000;8;27;2.48932187432;True;X;8;z;1;502;None;None;None;None;None;None;None;None;None;A;890;0;Vert;0;8;0;0;None;None;0;1486;HUGO;523.33;3.04;2;1626;3;2
vs12;hugo;4;2;17-janv-13;1540;mixed;500;400;2000;8;28;5.23108619371;False;L;8;z;1;402;None;None;None;None;None;None;None;None;None;B;861;4;Vert;0;5;0;0;None;None;0;1348;HUGO;265.8;5.81;2;1480;5;4
vs12;hugo;4;2;17-janv-13;1540;mixed;500;400;2000;8;29;3.7390578632;True;L;16;z;1;475;None;None;None;None;None;None;None;None;None;A;2275;0;Vert;0;3;0;0;None;None;0;340;HUGO;213.5;5.63;0;474;2;1
vs12;hugo;4;2;17-janv-13;1540;mixed;500;400;2000;8;30;5.85357132736;True;X;16;a;1;508;None;None;None;None;None;None;None;None;None;A;2304;2;Rouge;0;4;0;0;None;None;0;991;HUGO;245.5;7.72;2;1124;4;3
vs12;hugo;4;2;17-janv-13;1541;mixed;500;400;2000;8;31;1.27843743821;False;X;8;z;1;495;None;None;None;None;None;None;None;None;None;A;1516;0;Vert;0;5;0;0;None;None;0;360;HUGO;225.5;5.5;2;496;2;1
vs12;hugo;4;2;17-janv-13;1541;mixed;500;400;2000;8;32;1.57853639755;False;X;16;a;1;389;None;None;None;None;None;None;None;None;None;A;1691;1;Rouge;0;15;0;0;None;None;0;630;HUGO;219.33;11.77;2;768;3;2
vs12;hugo;4;2;17-janv-13;1541;mixed;500;400;2000;8;33;3.50105832008;False;L;4;a;1;399;None;None;None;None;None;None;None;None;None;A;2006;2;Rouge;0;3;0;0;None;None;0;1223;HUGO;306.75;7.3;2;1360;4;3
vs12;hugo;4;2;17-janv-13;1541;mixed;500;400;2000;8;34;4.84308601492;True;X;4;z;1;486;None;None;None;None;None;None;None;None;None;A;950;3;Vert;0;4;0;0;None;None;0;566;HUGO;205;5.08;2;705;3;2
vs12;hugo;4;2;17-janv-13;1541;mixed;500;400;2000;8;35;6.11804731499;True;L;4;a;1;515;None;None;None;None;None;None;None;None;None;A;1056;0;Rouge;0;1;0;0;None;None;0;444;HUGO;205.5;6.21;2;583;2;1
vs12;hugo;4;2;17-janv-13;1541;mixed;500;400;2000;8;36;0.781986714452;False;L;8;a;1;450;None;None;None;None;None;None;None;None;None;D;709;8;Rouge;0;4;0;0;None;None;0;1025;HUGO;234;6.62;2;1159;4;3
vs12;julie;4;2;17-janv-13;1143;Ent1;500;400;2000;1;1;2.76654324349;True;X;8;z;1;1297;None;None;None;None;None;None;None;None;None;None;None;None;Vert;0;2;0;0;None;None;0;2057;JULIE;271.29;8.27;2;2195;7;6
vs12;julie;4;2;17-janv-13;1143;Ent1;500;400;2000;1;2;5.41932700522;True;L;16;N;0;1500;None;None;None;None;None;None;None;None;None;None;None;None;Vert;0;14;0;0;None;None;0;0;JULIE;234.55;7.11;2;3149;11;10
vs12;julie;4;2;17-janv-13;1144;Ent1;500;400;2000;1;3;5.92989819105;True;L;8;N;0;1500;None;None;None;None;None;None;None;None;None;None;None;None;Vert;0;6;0;0;None;None;0;0;JULIE;254.5;10.45;2;3147;8;7
vs12;julie;4;2;17-janv-13;1144;Ent1;500;400;2000;1;4;2.1723440134;True;X;16;z;1;441;None;None;None;None;None;None;None;None;None;None;None;None;Vert;0;11;0;0;None;None;0;769;JULIE;219.67;0;2;905;3;3
vs12;julie;4;2;17-janv-13;1144;Ent1;500;400;2000;1;5;1.95282129631;False;L;8;z;1;406;None;None;None;None;None;None;None;None;None;None;None;None;Vert;0;7;0;0;None;None;0;2112;JULIE;229.8;0;2;2246;5;5
vs12;julie;4;2;17-janv-13;1144;Ent1;500;400;2000;1;6;4.04427936542;False;X;4;a;1;598;None;None;None;None;None;None;None;None;None;None;None;None;Rouge;0;1;0;0;None;None;0;497;JULIE;258;0;2;629;2;2
vs12;julie;4;2;17-janv-13;1144;Ent1;500;400;2000;1;7;0.344706117848;False;L;4;a;1;565;None;None;None;None;None;None;None;None;None;None;None;None;Rouge;0;3;0;0;None;None;0;1062;JULIE;285.5;0;2;1196;2;2
vs12;julie;4;2;17-janv-13;1144;Ent1;500;400;2000;1;8;2.41946395177;True;X;4;a;1;387;None;None;None;None;None;None;None;None;None;None;None;None;Rouge;0;2;0;0;None;None;0;825;JULIE;236;0;2;960;3;3
vs12;julie;4;2;17-janv-13;1144;Ent1;500;400;2000;1;9;1.92064534367;True;L;4;a;1;916;None;None;None;None;None;None;None;None;None;None;None;None;Rouge;0;1;0;0;None;None;0;430;JULIE;209;0;2;563;2;2
vs12;julie;4;2;17-janv-13;1144;Ent1;500;400;2000;1;10;1.78074615419;False;L;16;z;1;450;None;None;None;None;None;None;None;None;None;None;None;None;Vert;0;10;0;0;None;None;0;1667;JULIE;255.17;0;2;1800;6;6
vs12;julie;4;2;17-janv-13;1144;Ent1;500;400;2000;1;11;4.12591323961;False;X;16;a;0;637;None;None;None;None;None;None;None;None;None;None;None;None;Vert;0;12;0;0;None;None;0;0;JULIE;234.36;0;2;3151;11;12
vs12;julie;4;2;17-janv-13;1144;Ent1;500;400;2000;1;12;1.41309226441;False;X;8;a;1;1161;None;None;None;None;None;None;None;None;None;None;None;None;Rouge;0;7;0;0;None;None;0;648;JULIE;230.67;6.04;2;783;3;2
vs12;julie;4;2;17-janv-13;1144;Ent1;500;400;2000;1;1;0.0128537604211;True;X;8;z;1;434;None;None;None;None;None;None;None;None;None;None;None;None;Vert;0;5;0;0;None;None;0;2597;JULIE;268.5;7.17;2;2734;6;5
vs12;julie;4;2;17-janv-13;1144;Ent1;500;400;2000;1;2;1.43687374694;True;L;16;z;1;319;None;None;None;None;None;None;None;None;None;None;None;None;Vert;0;5;0;0;None;None;0;737;JULIE;241;0;0;871;3;3
vs12;julie;4;2;17-janv-13;1145;Ent1;500;400;2000;1;3;5.4198588859;True;L;8;a;1;383;None;None;None;None;None;None;None;None;None;None;None;None;Rouge;0;1;0;0;None;None;0;0;JULIE;289.86;0;2;3144;7;7
vs12;julie;4;2;17-janv-13;1145;Ent1;500;400;2000;1;4;1.94023848005;True;X;16;a;1;514;None;None;None;None;None;None;None;None;None;None;None;None;Rouge;0;1;0;0;None;None;0;646;JULIE;213;0;2;780;3;3
vs12;julie;4;2;17-janv-13;1145;Ent1;500;400;2000;1;5;3.5462631904;False;L;8;z;1;233;None;None;None;None;None;None;None;None;None;None;None;None;Vert;0;1;0;0;None;None;0;547;JULIE;183.33;0;2;683;3;4
vs12;julie;4;2;17-janv-13;1145;Ent1;500;400;2000;1;6;3.20595614978;False;X;4;z;1;289;None;None;None;None;None;None;None;None;None;None;None;None;Vert;0;3;0;0;None;None;0;402;JULIE;242;6.98;2;535;2;1
vs12;julie;4;2;17-janv-13;1145;Ent1;500;400;2000;1;7;5.00753222833;False;L;4;z;1;236;None;None;None;None;None;None;None;None;None;None;None;None;Vert;0;4;0;0;None;None;0;701;JULIE;214.33;12.67;2;835;3;3
vs12;julie;4;2;17-janv-13;1145;Ent1;500;400;2000;1;8;2.34857500216;True;X;4;a;1;277;None;None;None;None;None;None;None;None;None;None;None;None;Rouge;0;1;0;0;None;None;0;0;JULIE;370.67;6.59;2;3150;6;5
vs12;julie;4;2;17-janv-13;1145;Ent1;500;400;2000;1;9;6.1783564387;True;L;4;N;0;1500;None;None;None;None;None;None;None;None;None;None;None;None;Rouge;0;2;0;0;None;None;0;0;JULIE;302.14;0;2;3147;7;8
vs12;julie;4;2;17-janv-13;1145;Ent1;500;400;2000;1;10;3.87625799903;False;L;16;z;1;232;None;None;None;None;None;None;None;None;None;None;None;None;Vert;0;8;0;0;None;None;0;445;JULIE;263.5;6.95;2;578;2;1
vs12;julie;4;2;17-janv-13;1145;Ent1;500;400;2000;1;11;2.54966002213;False;X;16;z;1;220;None;None;None;None;None;None;None;None;None;None;None;None;Vert;0;3;0;0;None;None;0;831;JULIE;212.25;4.82;2;965;4;3
vs12;julie;4;2;17-janv-13;1145;Ent1;500;400;2000;1;12;3.29027456503;False;X;8;z;1;244;None;None;None;None;None;None;None;None;None;None;None;None;Vert;0;3;0;0;None;None;0;395;JULIE;241.5;7.28;2;531;2;1
vs12;julie;4;2;17-janv-13;1147;Ent2;500;400;2000;1;1;1.71456530724;False;X;4;z;0;379;None;None;None;None;None;None;None;None;None;A;30940;1;Rouge;0;1;0;0;None;None;0;0;JULIE;334.71;7.25;2;3146;7;6
vs12;julie;4;2;17-janv-13;1147;Ent2;500;400;2000;1;2;3.71003608221;False;L;16;a;1;498;None;None;None;None;None;None;None;None;None;A;2096;2;Rouge;0;3;0;0;None;None;0;1195;JULIE;242.6;3.74;0;1331;5;4
vs12;julie;4;2;17-janv-13;1147;Ent2;500;400;2000;1;3;3.91676707922;False;X;16;N;0;1500;None;None;None;None;None;None;None;None;None;A;7208;3;Vert;0;14;0;0;None;None;0;2694;JULIE;345.43;0;2;2827;7;7
vs12;julie;4;2;17-janv-13;1147;Ent2;500;400;2000;1;4;1.56688164043;False;X;8;z;1;560;None;None;None;None;None;None;None;None;None;A;1384;0;Vert;0;6;0;0;None;None;0;558;JULIE;198.33;7.17;2;693;3;2
vs12;julie;4;2;17-janv-13;1148;Ent2;500;400;2000;1;5;2.64939899781;True;X;8;a;1;327;None;None;None;None;None;None;None;None;None;A;1508;0;Rouge;0;3;0;0;None;None;0;344;JULIE;215;6.46;2;481;2;1
vs12;julie;4;2;17-janv-13;1148;Ent2;500;400;2000;1;6;1.46680212501;True;L;4;a;1;435;None;None;None;None;None;None;None;None;None;A;1960;0;Rouge;0;3;0;0;None;None;0;330;JULIE;206;7.54;2;464;2;1
vs12;julie;4;2;17-janv-13;1148;Ent2;500;400;2000;1;7;2.19617515238;True;L;16;a;1;505;None;None;None;None;None;None;None;None;None;B;1786;5;Rouge;0;13;0;0;None;None;0;1752;JULIE;185.88;5.37;2;1887;8;7
vs12;julie;4;2;17-janv-13;1148;Ent2;500;400;2000;1;8;4.43244270014;False;L;8;N;0;1500;None;None;None;None;None;None;None;None;None;A;3972;2;Vert;0;3;0;0;None;None;0;0;JULIE;327.14;7.32;2;3148;7;6
vs12;julie;4;2;17-janv-13;1148;Ent2;500;400;2000;1;9;1.27130187517;False;L;4;z;1;280;None;None;None;None;None;None;None;None;None;A;2447;0;Vert;0;4;0;0;None;None;0;2867;JULIE;258.5;8.52;2;3003;8;7
vs12;julie;4;2;17-janv-13;1148;Ent2;500;400;2000;1;10;2.66051675387;True;X;4;z;1;424;None;None;None;None;None;None;None;None;None;A;1803;1;Vert;0;3;0;0;None;None;0;1149;JULIE;172;8.71;2;1284;6;5
vs12;julie;4;2;17-janv-13;1148;Ent2;500;400;2000;1;11;1.95883460766;True;L;8;z;1;262;None;None;None;None;None;None;None;None;None;A;1500;2;Vert;0;3;0;0;None;None;0;841;JULIE;210.25;6.41;2;975;4;3
vs12;julie;4;2;17-janv-13;1148;Ent2;500;400;2000;1;12;1.43202216058;True;X;16;a;1;389;None;None;None;None;None;None;None;None;None;A;1875;2;Rouge;0;7;0;0;None;None;0;1377;JULIE;274.4;5.16;2;1514;5;4
vs12;julie;4;2;17-janv-13;1151;mixed;500;400;2000;1;1;5.96797545213;True;X;4;a;1;287;None;None;None;None;None;None;None;None;None;A;1960;0;Rouge;0;1;0;0;None;None;0;1400;JULIE;244.4;0;2;1557;5;5
vs12;julie;4;2;17-janv-13;1151;mixed;500;400;2000;1;2;0.509341729561;True;X;16;a;1;550;None;None;None;None;None;None;None;None;None;A;1167;0;Rouge;0;7;0;0;None;None;0;1016;JULIE;220.5;0;2;1148;4;4
vs12;julie;4;2;17-janv-13;1151;mixed;500;400;2000;1;3;4.7827323681;False;X;4;a;1;567;None;None;None;None;None;None;None;None;None;A;1161;0;Rouge;0;2;0;0;None;None;0;602;JULIE;308.5;0;2;735;2;2
vs12;julie;4;2;17-janv-13;1151;mixed;500;400;2000;1;4;3.61809010641;False;L;4;a;1;362;None;None;None;None;None;None;None;None;None;A;1289;2;Rouge;0;1;0;0;None;None;0;1309;JULIE;204.5;7.62;2;1445;6;5
vs12;julie;4;2;17-janv-13;1151;mixed;500;400;2000;1;5;5.65574219685;True;X;8;a;1;586;None;None;None;None;None;None;None;None;None;B;1383;5;Rouge;0;6;0;0;None;None;0;2091;JULIE;239;7.6;0;2224;8;7
vs12;julie;4;2;17-janv-13;1151;mixed;500;400;2000;1;6;6.08828271772;False;L;16;z;1;731;None;None;None;None;None;None;None;None;None;B;1646;4;Vert;0;14;0;0;None;None;0;2436;JULIE;249;5.62;2;2571;9;8
vs12;julie;4;2;17-janv-13;1151;mixed;500;400;2000;1;7;5.99679550518;True;L;8;a;1;263;None;None;None;None;None;None;None;None;None;A;1086;2;Rouge;0;6;0;0;None;None;0;620;JULIE;212.67;6.72;2;754;3;2
vs12;julie;4;2;17-janv-13;1151;mixed;500;400;2000;1;8;2.23892198999;True;X;4;a;1;275;None;None;None;None;None;None;None;None;None;A;1159;0;Rouge;0;2;0;0;None;None;0;395;JULIE;189.5;0;0;527;2;2
vs12;julie;4;2;17-janv-13;1151;mixed;500;400;2000;1;9;6.18671519078;True;X;8;a;1;281;None;None;None;None;None;None;None;None;None;A;1717;2;Rouge;0;5;0;0;None;None;0;899;JULIE;222.25;0;2;1035;4;4
vs12;julie;4;2;17-janv-13;1151;mixed;500;400;2000;1;10;1.12474658383;False;X;8;a;1;468;None;None;None;None;None;None;None;None;None;A;1609;1;Rouge;0;8;0;0;None;None;0;409;JULIE;246;7.17;2;543;2;1
vs12;julie;4;2;17-janv-13;1152;mixed;500;400;2000;1;11;2.29503600539;False;X;16;z;1;300;None;None;None;None;None;None;None;None;None;A;1326;0;Vert;0;3;0;0;None;None;0;907;JULIE;208;10.06;2;1043;4;3
vs12;julie;4;2;17-janv-13;1152;mixed;500;400;2000;1;12;4.02109486574;False;X;8;z;1;468;None;None;None;None;None;None;None;None;None;A;1437;0;Vert;0;5;0;0;None;None;0;315;JULIE;191;0;2;450;2;2
vs12;julie;4;2;17-janv-13;1152;mixed;500;400;2000;1;13;0.793874283725;False;X;4;a;1;343;None;None;None;None;None;None;None;None;None;A;1224;0;Rouge;0;1;0;0;None;None;0;790;JULIE;271.33;8.89;2;925;3;2
vs12;julie;4;2;17-janv-13;1152;mixed;500;400;2000;1;14;4.17504317472;False;X;16;z;1;363;None;None;None;None;None;None;None;None;None;A;1399;2;Vert;0;9;0;0;None;None;0;1141;JULIE;179.83;4.84;2;1277;6;5
vs12;julie;4;2;17-janv-13;1152;mixed;500;400;2000;1;15;3.19171249531;False;X;16;z;1;492;None;None;None;None;None;None;None;None;None;A;1415;0;Vert;0;10;0;0;None;None;0;734;JULIE;261;5.57;2;868;3;2
vs12;julie;4;2;17-janv-13;1152;mixed;500;400;2000;1;16;4.06213638586;False;L;4;z;1;475;None;None;None;None;None;None;None;None;None;A;1484;0;Vert;0;4;0;0;None;None;0;708;JULIE;251;3.06;2;843;3;3
vs12;julie;4;2;17-janv-13;1152;mixed;500;400;2000;1;17;1.25427128292;False;L;4;a;1;245;None;None;None;None;None;None;None;None;None;A;1539;0;Rouge;0;3;0;0;None;None;0;525;JULIE;194.33;4.13;2;660;3;2
vs12;julie;4;2;17-janv-13;1152;mixed;500;400;2000;1;18;0.837302490417;True;X;16;N;0;1500;None;None;None;None;None;None;None;None;None;A;1006;1;Vert;0;9;0;0;None;None;0;0;JULIE;315.14;5.72;0;3149;7;6
vs12;julie;4;2;17-janv-13;1152;mixed;500;400;2000;1;19;1.16683375979;True;L;16;z;1;429;None;None;None;None;None;None;None;None;None;A;878;1;Vert;0;16;0;0;None;None;0;1338;JULIE;206.83;6.77;2;1472;6;5
vs12;julie;4;2;17-janv-13;1152;mixed;500;400;2000;1;20;4.66727856668;False;L;8;a;1;333;None;None;None;None;None;None;None;None;None;A;1243;1;Rouge;0;6;0;0;None;None;0;1094;JULIE;275;6.89;2;1231;4;3
vs12;julie;4;2;17-janv-13;1152;mixed;500;400;2000;1;21;6.05782734366;True;L;16;a;1;321;None;None;None;None;None;None;None;None;None;A;965;0;Rouge;0;7;0;0;None;None;0;643;JULIE;235;4.69;2;777;3;2
vs12;julie;4;2;17-janv-13;1152;mixed;500;400;2000;1;22;1.1407749061;False;L;8;z;1;541;None;None;None;None;None;None;None;None;None;A;733;3;Vert;0;7;0;0;None;None;0;1750;JULIE;187.38;7.01;2;1885;8;8
vs12;julie;4;2;17-janv-13;1153;mixed;500;400;2000;1;23;3.76774420369;True;L;4;z;1;246;None;None;None;None;None;None;None;None;None;A;909;3;Vert;0;2;0;0;None;None;0;728;JULIE;253.67;6.93;2;863;3;2
vs12;julie;4;2;17-janv-13;1153;mixed;500;400;2000;1;24;2.03263454538;True;L;4;z;1;469;None;None;None;None;None;None;None;None;None;A;883;0;Vert;0;4;0;0;None;None;0;583;JULIE;143;8.15;2;717;4;3
vs12;julie;4;2;17-janv-13;1153;mixed;500;400;2000;1;25;3.81324308851;False;X;8;z;1;265;None;None;None;None;None;None;None;None;None;A;897;0;Vert;0;3;0;0;None;None;0;414;JULIE;160.33;3.98;0;551;3;2
vs12;julie;4;2;17-janv-13;1153;mixed;500;400;2000;1;26;2.40487448891;True;L;4;a;1;243;None;None;None;None;None;None;None;None;None;A;992;0;Rouge;0;2;0;0;None;None;0;952;JULIE;175.2;7.92;2;1086;5;4
vs12;julie;4;2;17-janv-13;1153;mixed;500;400;2000;1;27;0.301453888886;False;X;4;z;1;361;None;None;None;None;None;None;None;None;None;A;1108;0;Vert;0;2;0;0;None;None;0;867;JULIE;212.25;9.7;2;1002;4;3
vs12;julie;4;2;17-janv-13;1153;mixed;500;400;2000;1;28;3.67251579521;True;X;8;a;1;208;None;None;None;None;None;None;None;None;None;A;971;0;Rouge;0;6;0;0;None;None;0;295;JULIE;192.5;4.97;2;431;2;1
vs12;julie;4;2;17-janv-13;1153;mixed;500;400;2000;1;29;3.62542844148;True;L;16;z;1;522;None;None;None;None;None;None;None;None;None;A;1305;3;Vert;0;7;0;0;None;None;0;1902;JULIE;253.86;6.21;2;2038;7;6
vs12;julie;4;2;17-janv-13;1153;mixed;500;400;2000;1;30;2.40585374737;True;X;4;z;1;219;None;None;None;None;None;None;None;None;None;A;874;1;Vert;0;4;0;0;None;None;0;505;JULIE;175;9.14;2;642;3;2
vs12;julie;4;2;17-janv-13;1153;mixed;500;400;2000;1;31;5.3454896404;True;L;8;z;1;246;None;None;None;None;None;None;None;None;None;A;860;0;Vert;0;4;0;0;None;None;0;1962;JULIE;259.14;8.98;2;2099;7;6
vs12;julie;4;2;17-janv-13;1153;mixed;500;400;2000;1;32;4.35194720762;False;L;8;a;1;308;None;None;None;None;None;None;None;None;None;A;1288;2;Rouge;0;1;0;0;None;None;0;1940;JULIE;163.67;5.21;2;2074;6;5
vs12;julie;4;2;17-janv-13;1153;mixed;500;400;2000;1;33;2.7755710726;True;L;8;z;1;292;None;None;None;None;None;None;None;None;None;A;1204;1;Vert;0;4;0;0;None;None;0;571;JULIE;199;9.48;2;705;3;2
vs12;julie;4;2;17-janv-13;1154;mixed;500;400;2000;1;34;2.91767732709;False;L;16;N;0;1500;None;None;None;None;None;None;None;None;None;A;969;0;Rouge;0;8;0;0;None;None;0;0;JULIE;240;4.38;2;3149;7;6
vs12;julie;4;2;17-janv-13;1154;mixed;500;400;2000;1;35;2.44479487418;True;X;16;a;1;334;None;None;None;None;None;None;None;None;None;A;1150;3;Rouge;0;15;0;0;None;None;0;1064;JULIE;206;5.23;2;1199;5;4
vs12;julie;4;2;17-janv-13;1154;mixed;500;400;2000;1;36;2.00544892672;False;L;16;a;1;516;None;None;None;None;None;None;None;None;None;B;1375;5;Rouge;0;3;0;0;None;None;0;2566;JULIE;228;5.97;2;2700;10;9
vs12;julie;4;2;17-janv-13;1156;mixed;500;400;2000;2;1;0.26301481741;False;X;16;z;1;305;None;None;None;None;None;None;None;None;None;A;1152;0;Vert;0;5;0;0;None;None;0;871;JULIE;219.25;7.59;2;1033;4;4
vs12;julie;4;2;17-janv-13;1156;mixed;500;400;2000;2;2;5.97646965331;False;X;4;z;1;289;None;None;None;None;None;None;None;None;None;A;1116;0;Vert;0;3;0;0;None;None;0;581;JULIE;207;7.66;0;714;3;2
vs12;julie;4;2;17-janv-13;1156;mixed;500;400;2000;2;3;4.27733679745;False;L;4;z;1;255;None;None;None;None;None;None;None;None;None;A;1080;0;Vert;0;4;0;0;None;None;0;532;JULIE;126.75;0;2;667;4;4
vs12;julie;4;2;17-janv-13;1156;mixed;500;400;2000;2;4;4.82035415118;False;X;16;z;1;333;None;None;None;None;None;None;None;None;None;A;968;0;Vert;0;12;0;0;None;None;0;557;JULIE;193.33;9.9;2;690;3;2
vs12;julie;4;2;17-janv-13;1156;mixed;500;400;2000;2;5;3.59035731557;True;X;8;z;1;526;None;None;None;None;None;None;None;None;None;A;824;1;Vert;0;7;0;0;None;None;0;578;JULIE;199;0;2;714;3;3
vs12;julie;4;2;17-janv-13;1157;mixed;500;400;2000;2;6;4.87138585981;False;X;8;z;1;562;None;None;None;None;None;None;None;None;None;A;957;0;Vert;0;5;0;0;None;None;0;529;JULIE;196.33;4.76;2;665;3;2
vs12;julie;4;2;17-janv-13;1157;mixed;500;400;2000;2;7;4.70386638353;False;L;4;a;1;360;None;None;None;None;None;None;None;None;None;A;1118;2;Rouge;0;4;0;0;None;None;0;390;JULIE;222;6.72;2;525;2;2
vs12;julie;4;2;17-janv-13;1157;mixed;500;400;2000;2;8;5.71634193626;True;X;4;z;1;514;None;None;None;None;None;None;None;None;None;A;641;0;Vert;0;2;0;0;None;None;0;0;JULIE;256;10.72;2;3151;7;6
vs12;julie;4;2;17-janv-13;1157;mixed;500;400;2000;2;9;4.53105517331;False;L;8;a;1;311;None;None;None;None;None;None;None;None;None;A;979;3;Rouge;0;7;0;0;None;None;0;1182;JULIE;289;8.21;2;1317;4;3
vs12;julie;4;2;17-janv-13;1157;mixed;500;400;2000;2;10;5.05267141532;True;X;4;a;1;347;None;None;None;None;None;None;None;None;None;A;788;0;Rouge;0;1;0;0;None;None;0;481;JULIE;281;8.54;0;614;2;1
vs12;julie;4;2;17-janv-13;1157;mixed;500;400;2000;2;11;3.47266385861;True;L;16;a;1;677;None;None;None;None;None;None;None;None;None;A;1474;2;Rouge;0;16;0;0;None;None;0;2154;JULIE;219.22;5.47;2;2288;9;8
vs12;julie;4;2;17-janv-13;1157;mixed;500;400;2000;2;12;1.40229276318;True;X;8;a;1;392;None;None;None;None;None;None;None;None;None;A;885;0;Rouge;0;8;0;0;None;None;0;1761;JULIE;287.6;3.9;2;1896;5;4
vs12;julie;4;2;17-janv-13;1157;mixed;500;400;2000;2;13;5.78802554446;True;L;4;a;1;467;None;None;None;None;None;None;None;None;None;A;1080;0;Rouge;0;1;0;0;None;None;0;639;JULIE;153.75;0;2;772;4;4
vs12;julie;4;2;17-janv-13;1157;mixed;500;400;2000;2;14;5.07617959243;False;L;16;z;1;430;None;None;None;None;None;None;None;None;None;A;1000;2;Vert;0;6;0;0;None;None;0;389;JULIE;237;7.43;2;526;2;1
vs12;julie;4;2;17-janv-13;1157;mixed;500;400;2000;2;15;0.971465053846;True;L;8;z;1;328;None;None;None;None;None;None;None;None;None;A;922;2;Vert;0;5;0;0;None;None;0;1335;JULIE;209.67;6.44;2;1469;6;5
vs12;julie;4;2;17-janv-13;1157;mixed;500;400;2000;2;16;1.81553381858;True;X;16;a;1;344;None;None;None;None;None;None;None;None;None;A;718;1;Rouge;0;4;0;0;None;None;0;716;JULIE;177.75;5.53;2;850;4;4
vs12;julie;4;2;17-janv-13;1158;mixed;500;400;2000;2;17;0.229970516061;False;L;16;N;0;1500;None;None;None;None;None;None;None;None;None;A;827;1;Rouge;0;7;0;0;None;None;0;0;JULIE;227.33;5.21;2;3152;12;11
vs12;julie;4;2;17-janv-13;1158;mixed;500;400;2000;2;18;3.19922839151;True;L;8;z;1;413;None;None;None;None;None;None;None;None;None;B;1047;4;Vert;0;6;0;0;None;None;0;644;JULIE;233.33;4.7;2;779;3;2
vs12;julie;4;2;17-janv-13;1158;mixed;500;400;2000;2;19;3.10686650591;False;L;4;a;1;371;None;None;None;None;None;None;None;None;None;A;752;3;Rouge;0;2;0;0;None;None;0;889;JULIE;215.75;9.76;2;1023;4;3
vs12;julie;4;2;17-janv-13;1158;mixed;500;400;2000;2;20;0.0476659542966;True;X;16;a;1;387;None;None;None;None;None;None;None;None;None;A;949;1;Rouge;0;8;0;0;None;None;0;368;JULIE;226.5;7.54;2;504;2;1
vs12;julie;4;2;17-janv-13;1158;mixed;500;400;2000;2;21;2.30024427324;False;L;8;z;1;359;None;None;None;None;None;None;None;None;None;A;895;0;Vert;0;5;0;0;None;None;0;577;JULIE;219.33;2.49;2;712;3;2
vs12;julie;4;2;17-janv-13;1158;mixed;500;400;2000;2;22;4.75344255316;True;L;4;a;1;283;None;None;None;None;None;None;None;None;None;A;716;3;Rouge;0;2;0;0;None;None;0;966;JULIE;233.5;9.11;2;1101;4;3
vs12;julie;4;2;17-janv-13;1158;mixed;500;400;2000;2;23;2.43276182104;True;L;8;a;1;384;None;None;None;None;None;None;None;None;None;A;814;3;Rouge;0;4;0;0;None;None;0;1170;JULIE;226.2;6.59;2;1308;5;4
vs12;julie;4;2;17-janv-13;1158;mixed;500;400;2000;2;24;4.48545665302;False;X;16;a;1;516;None;None;None;None;None;None;None;None;None;A;900;1;Rouge;0;4;0;0;None;None;0;850;JULIE;214.5;4.63;0;984;4;3
vs12;julie;4;2;17-janv-13;1158;mixed;500;400;2000;2;25;1.51348893065;True;L;16;a;1;361;None;None;None;None;None;None;None;None;None;A;975;2;Rouge;0;8;0;0;None;None;0;1286;JULIE;245;7.37;2;1420;5;4
vs12;julie;4;2;17-janv-13;1158;mixed;500;400;2000;2;26;4.27314974207;True;X;8;z;1;261;None;None;None;None;None;None;None;None;None;A;1025;0;Vert;0;7;0;0;None;None;0;0;JULIE;269.2;6.42;2;3146;5;4
vs12;julie;4;2;17-janv-13;1158;mixed;500;400;2000;2;27;2.98286275988;False;X;8;a;1;317;None;None;None;None;None;None;None;None;None;A;646;2;Rouge;0;8;0;0;None;None;0;348;JULIE;214.5;7.81;2;482;2;1
vs12;julie;4;2;17-janv-13;1158;mixed;500;400;2000;2;28;4.72326190967;False;L;16;N;0;1500;None;None;None;None;None;None;None;None;None;A;1231;3;Vert;0;2;0;0;None;None;0;0;JULIE;231.75;3.59;2;3148;12;11
vs12;julie;4;2;17-janv-13;1159;mixed;500;400;2000;2;29;0.0674435889142;True;X;4;z;1;292;None;None;None;None;None;None;None;None;None;A;761;1;Vert;0;2;0;0;None;None;0;2842;JULIE;485.75;4.94;2;2979;4;3
vs12;julie;4;2;17-janv-13;1159;mixed;500;400;2000;2;30;4.91326042892;False;L;8;z;1;423;None;None;None;None;None;None;None;None;None;A;700;0;Vert;0;2;0;0;None;None;0;1078;JULIE;201;9.68;2;1213;5;4
vs12;julie;4;2;17-janv-13;1159;mixed;500;400;2000;2;31;3.581344879;False;X;4;z;1;524;None;None;None;None;None;None;None;None;None;A;702;0;Vert;0;1;0;0;None;None;0;330;JULIE;199;8.86;2;464;2;1
vs12;julie;4;2;17-janv-13;1159;mixed;500;400;2000;2;32;1.24899465637;True;L;4;z;1;266;None;None;None;None;None;None;None;None;None;A;748;0;Vert;0;2;0;0;None;None;0;0;JULIE;281.25;6.89;2;3151;8;7
vs12;julie;4;2;17-janv-13;1159;mixed;500;400;2000;2;33;1.70183465026;False;X;8;a;1;569;None;None;None;None;None;None;None;None;None;A;782;0;Rouge;0;6;0;0;None;None;0;350;JULIE;216;5.79;2;485;2;1
vs12;julie;4;2;17-janv-13;1159;mixed;500;400;2000;2;34;2.83240841931;True;L;16;N;0;1500;None;None;None;None;None;None;None;None;None;C;979;7;Rouge;0;16;0;0;None;None;0;0;JULIE;249.91;4.98;2;3147;11;10
vs12;julie;4;2;17-janv-13;1159;mixed;500;400;2000;2;35;0.609674674165;True;X;16;z;1;449;None;None;None;None;None;None;None;None;None;A;700;0;Vert;0;12;0;0;None;None;0;565;JULIE;174.67;3.84;2;702;3;3
vs12;julie;4;2;17-janv-13;1159;mixed;500;400;2000;2;36;0.162981972383;False;X;4;a;1;273;None;None;None;None;None;None;None;None;None;A;1107;2;Rouge;0;3;0;0;None;None;0;2115;JULIE;232.25;10.71;2;2249;8;7
vs12;julie;4;2;17-janv-13;1200;mixed;500;400;2000;3;1;4.08386122818;False;X;8;z;1;349;None;None;None;None;None;None;None;None;None;A;856;1;Vert;0;2;0;0;None;None;0;2291;JULIE;298.5;7.03;2;2423;4;3
vs12;julie;4;2;17-janv-13;1201;mixed;500;400;2000;3;2;3.23680844697;True;L;4;a;1;297;None;None;None;None;None;None;None;None;None;A;802;1;Rouge;0;4;0;0;None;None;0;366;JULIE;134.67;4.66;2;501;3;3
vs12;julie;4;2;17-janv-13;1201;mixed;500;400;2000;3;3;5.67301133395;False;L;4;a;1;320;None;None;None;None;None;None;None;None;None;A;668;0;Rouge;0;3;0;0;None;None;0;2274;JULIE;211;8.11;2;2411;6;5
vs12;julie;4;2;17-janv-13;1201;mixed;500;400;2000;3;4;5.52878524726;False;X;4;N;0;1500;None;None;None;None;None;None;None;None;None;A;763;3;Vert;0;2;0;0;None;None;0;0;JULIE;360.33;7.77;2;3142;6;6
vs12;julie;4;2;17-janv-13;1201;mixed;500;400;2000;3;5;5.77319461083;False;L;8;N;0;1500;None;None;None;None;None;None;None;None;None;A;952;0;Vert;0;1;0;0;None;None;0;0;JULIE;241.14;6.63;2;3145;7;6
vs12;julie;4;2;17-janv-13;1201;mixed;500;400;2000;3;6;4.44839478447;True;X;4;z;1;1274;None;None;None;None;None;None;None;None;None;A;861;2;Vert;0;3;0;0;None;None;0;1576;JULIE;218.5;4.66;2;1713;4;3
vs12;julie;4;2;17-janv-13;1201;mixed;500;400;2000;3;7;5.67628078871;False;X;8;a;1;370;None;None;None;None;None;None;None;None;None;A;678;1;Rouge;0;2;0;0;None;None;0;954;JULIE;235.5;8.88;2;1087;4;3
vs12;julie;4;2;17-janv-13;1201;mixed;500;400;2000;3;8;2.36493874307;True;L;4;a;1;493;None;None;None;None;None;None;None;None;None;A;1147;1;Rouge;0;2;0;0;None;None;0;531;JULIE;187.67;8.44;2;666;3;2
vs12;julie;4;2;17-janv-13;1201;mixed;500;400;2000;3;9;5.020163695;True;X;8;z;1;1117;None;None;None;None;None;None;None;None;None;A;827;1;Vert;0;7;0;0;None;None;0;549;JULIE;178.67;0;2;686;3;3
vs12;julie;4;2;17-janv-13;1201;mixed;500;400;2000;3;10;0.462946743837;True;X;16;a;1;306;None;None;None;None;None;None;None;None;None;A;614;1;Rouge;0;8;0;0;None;None;0;713;JULIE;180.25;5.62;2;847;4;3
vs12;julie;4;2;17-janv-13;1201;mixed;500;400;2000;3;11;5.88067659436;False;X;16;a;1;302;None;None;None;None;None;None;None;None;None;A;816;0;Rouge;0;13;0;0;None;None;0;333;JULIE;210;5.29;2;466;2;1
vs12;julie;4;2;17-janv-13;1201;mixed;500;400;2000;3;12;6.05373064535;True;X;8;a;1;311;None;None;None;None;None;None;None;None;None;A;653;2;Rouge;0;8;0;0;None;None;0;419;JULIE;156;7.29;0;556;3;2
vs12;julie;4;2;17-janv-13;1201;mixed;500;400;2000;3;13;1.9233953408;True;L;16;z;1;366;None;None;None;None;None;None;None;None;None;A;739;1;Vert;0;9;0;0;None;None;0;1076;JULIE;204.4;7.03;2;1211;5;4
vs12;julie;4;2;17-janv-13;1202;mixed;500;400;2000;3;14;0.204518295941;True;L;8;a;1;332;None;None;None;None;None;None;None;None;None;A;522;2;Rouge;0;3;0;0;None;None;0;1318;JULIE;206.83;6.41;2;1454;6;5
vs12;julie;4;2;17-janv-13;1202;mixed;500;400;2000;3;15;2.91121316207;True;X;4;a;1;410;None;None;None;None;None;None;None;None;None;A;694;0;Rouge;0;3;0;0;None;None;0;517;JULIE;191.67;6.05;2;652;3;2
vs12;julie;4;2;17-janv-13;1202;mixed;500;400;2000;3;16;4.54535776757;False;L;4;z;1;290;None;None;None;None;None;None;None;None;None;A;738;1;Vert;0;3;0;0;None;None;0;761;JULIE;262.33;9.23;2;894;3;2
vs12;julie;4;2;17-janv-13;1202;mixed;500;400;2000;3;17;1.12898816092;False;X;16;z;1;400;None;None;None;None;None;None;None;None;None;A;689;1;Vert;0;11;0;0;None;None;0;738;JULIE;253;0;0;872;3;3
vs12;julie;4;2;17-janv-13;1202;mixed;500;400;2000;3;18;2.82117510508;False;L;8;a;1;308;None;None;None;None;None;None;None;None;None;A;662;1;Rouge;0;5;0;0;None;None;0;1064;JULIE;200.6;8.46;2;1201;5;4
vs12;julie;4;2;17-janv-13;1202;mixed;500;400;2000;3;19;5.17781965026;False;X;16;N;0;1500;None;None;None;None;None;None;None;None;None;A;813;0;Vert;0;5;0;0;None;None;0;0;JULIE;255.38;10.14;0;3144;8;7
vs12;julie;4;2;17-janv-13;1202;mixed;500;400;2000;3;20;3.68968957421;True;L;8;N;0;1500;None;None;None;None;None;None;None;None;None;A;907;0;Rouge;0;7;0;0;None;None;0;0;JULIE;210.5;7.94;2;3151;10;10
vs12;julie;4;2;17-janv-13;1202;mixed;500;400;2000;3;21;5.78249870235;False;L;8;a;1;270;None;None;None;None;None;None;None;None;None;A;692;1;Rouge;0;4;0;0;None;None;0;1436;JULIE;250.2;0;2;1571;5;5
vs12;julie;4;2;17-janv-13;1202;mixed;500;400;2000;3;22;4.41214093631;True;L;8;a;1;322;None;None;None;None;None;None;None;None;None;A;957;2;Rouge;0;5;0;0;None;None;0;814;JULIE;199;8.19;2;950;4;3
vs12;julie;4;2;17-janv-13;1202;mixed;500;400;2000;3;23;3.24573748489;False;X;4;z;1;264;None;None;None;None;None;None;None;None;None;A;769;1;Vert;0;3;0;0;None;None;0;590;JULIE;185.67;0;2;724;3;3
vs12;julie;4;2;17-janv-13;1202;mixed;500;400;2000;3;24;4.13431429548;False;X;8;a;1;384;None;None;None;None;None;None;None;None;None;A;649;1;Rouge;0;8;0;0;None;None;0;0;JULIE;497.75;0;2;3149;4;4
vs12;julie;4;2;17-janv-13;1202;mixed;500;400;2000;3;25;1.25384243577;True;X;8;z;1;598;None;None;None;None;None;None;None;None;None;A;856;0;Vert;0;3;0;0;None;None;0;415;JULIE;246.5;8.82;2;550;2;1
vs12;julie;4;2;17-janv-13;1203;mixed;500;400;2000;3;26;4.27417145915;False;L;4;z;1;298;None;None;None;None;None;None;None;None;None;A;672;0;Vert;0;1;0;0;None;None;0;342;JULIE;213.5;5.9;2;476;2;1
vs12;julie;4;2;17-janv-13;1203;mixed;500;400;2000;3;27;2.62371441061;True;L;4;z;1;248;None;None;None;None;None;None;None;None;None;A;723;0;Vert;0;3;0;0;None;None;0;694;JULIE;161;0;2;831;4;4
vs12;julie;4;2;17-janv-13;1203;mixed;500;400;2000;3;28;5.26710013671;False;L;16;z;1;537;None;None;None;None;None;None;None;None;None;A;739;3;Vert;0;3;0;0;None;None;0;1205;JULIE;191.33;5.79;2;1340;6;5
vs12;julie;4;2;17-janv-13;1203;mixed;500;400;2000;3;29;1.92385609188;False;L;16;a;1;310;None;None;None;None;None;None;None;None;None;A;959;3;Rouge;0;15;0;0;None;None;0;1394;JULIE;275.6;5.34;2;1529;5;4
vs12;julie;4;2;17-janv-13;1203;mixed;500;400;2000;3;30;3.90994664348;False;L;16;a;1;387;None;None;None;None;None;None;None;None;None;A;1150;2;Rouge;0;10;0;0;None;None;0;0;JULIE;211.25;4.06;2;3153;12;11
vs12;julie;4;2;17-janv-13;1203;mixed;500;400;2000;3;31;1.77682149718;True;X;16;a;1;334;None;None;None;None;None;None;None;None;None;A;792;2;Rouge;0;12;0;0;None;None;0;374;JULIE;228;7.5;2;508;2;1
vs12;julie;4;2;17-janv-13;1203;mixed;500;400;2000;3;32;3.75612362655;True;L;16;a;0;554;None;None;None;None;None;None;None;None;None;A;2297;3;Vert;0;8;0;0;None;None;0;2568;JULIE;260.67;7.62;2;2704;9;8
vs12;julie;4;2;17-janv-13;1203;mixed;500;400;2000;3;33;4.00415937821;True;X;4;a;1;261;None;None;None;None;None;None;None;None;None;A;980;1;Rouge;0;3;0;0;None;None;0;450;JULIE;265;8.64;2;585;2;1
vs12;julie;4;2;17-janv-13;1203;mixed;500;400;2000;3;34;5.30857389884;True;L;16;z;1;488;None;None;None;None;None;None;None;None;None;A;666;3;Vert;0;1;0;0;None;None;0;1212;JULIE;232;6.19;2;1345;5;4
vs12;julie;4;2;17-janv-13;1203;mixed;500;400;2000;3;35;1.10294871978;False;X;4;z;1;383;None;None;None;None;None;None;None;None;None;A;725;1;Vert;0;4;0;0;None;None;0;1844;JULIE;239.5;5.33;2;1978;4;3
vs12;julie;4;2;17-janv-13;1203;mixed;500;400;2000;3;36;1.42425256989;True;X;16;z;1;289;None;None;None;None;None;None;None;None;None;A;638;1;Vert;0;9;0;0;None;None;0;432;JULIE;160.33;7.41;2;567;3;2
vs12;julie;4;2;17-janv-13;1206;mixed;500;400;2000;4;1;5.83560891289;False;X;8;z;1;386;None;None;None;None;None;None;None;None;None;A;955;2;Vert;0;3;0;0;None;None;0;1791;JULIE;202.6;10.17;2;1953;5;4
vs12;julie;4;2;17-janv-13;1206;mixed;500;400;2000;4;2;5.05226863727;False;L;8;z;1;260;None;None;None;None;None;None;None;None;None;A;592;1;Vert;0;4;0;0;None;None;0;1041;JULIE;199.8;6.22;2;1173;5;4
vs12;julie;4;2;17-janv-13;1206;mixed;500;400;2000;4;3;2.98610891497;False;X;4;a;1;229;None;None;None;None;None;None;None;None;None;A;686;1;Rouge;0;3;0;0;None;None;0;509;JULIE;173.67;0;2;645;3;3
vs12;julie;4;2;17-janv-13;1206;mixed;500;400;2000;4;4;1.59439271063;False;X;16;a;1;255;None;None;None;None;None;None;None;None;None;A;585;1;Rouge;0;5;0;0;None;None;0;734;JULIE;180.5;5.84;2;866;4;3
vs12;julie;4;2;17-janv-13;1206;mixed;500;400;2000;4;5;5.14664905789;False;X;16;a;1;246;None;None;None;None;None;None;None;None;None;A;632;1;Rouge;0;12;0;0;None;None;0;330;JULIE;204.5;7.7;2;463;2;1
vs12;julie;4;2;17-janv-13;1206;mixed;500;400;2000;4;6;4.22182159442;False;L;4;z;1;249;None;None;None;None;None;None;None;None;None;A;675;2;Vert;0;4;0;0;None;None;0;609;JULIE;210.67;10.01;0;747;3;2
vs12;julie;4;2;17-janv-13;1206;mixed;500;400;2000;4;7;0.214302718215;False;X;8;z;1;204;None;None;None;None;None;None;None;None;None;A;664;1;Vert;0;6;0;0;None;None;0;357;JULIE;220.5;7.08;2;491;2;1
vs12;julie;4;2;17-janv-13;1206;mixed;500;400;2000;4;8;4.90335421009;False;L;4;a;1;284;None;None;None;None;None;None;None;None;None;A;682;0;Rouge;0;2;0;0;None;None;0;855;JULIE;202.5;10.39;2;988;4;3
vs12;julie;4;2;17-janv-13;1206;mixed;500;400;2000;4;9;1.51049794139;False;X;4;a;1;291;None;None;None;None;None;None;None;None;None;A;730;0;Rouge;0;2;0;0;None;None;0;525;JULIE;173.67;0;2;661;3;3
vs12;julie;4;2;17-janv-13;1206;mixed;500;400;2000;4;10;4.28837860486;True;X;4;a;1;241;None;None;None;None;None;None;None;None;None;A;700;0;Rouge;0;3;0;0;None;None;0;317;JULIE;202;5.85;2;455;2;1
vs12;julie;4;2;17-janv-13;1206;mixed;500;400;2000;4;11;2.21403281476;False;X;16;a;1;404;None;None;None;None;None;None;None;None;None;A;667;0;Rouge;0;3;0;0;None;None;0;524;JULIE;184.67;6.13;2;656;3;2
vs12;julie;4;2;17-janv-13;1206;mixed;500;400;2000;4;12;5.30954404709;True;X;4;z;1;458;None;None;None;None;None;None;None;None;None;A;600;1;Vert;0;1;0;0;None;None;0;616;JULIE;211;8.38;2;750;3;2
vs12;julie;4;2;17-janv-13;1206;mixed;500;400;2000;4;13;3.71035345492;True;L;8;z;1;470;None;None;None;None;None;None;None;None;None;A;824;3;Vert;0;7;0;0;None;None;0;674;JULIE;234;7.29;2;810;3;2
vs12;julie;4;2;17-janv-13;1207;mixed;500;400;2000;4;14;5.26516822517;True;X;4;N;0;1500;None;None;None;None;None;None;None;None;None;A;715;0;Rouge;0;2;0;0;None;None;0;0;JULIE;481;5.53;2;3144;5;4
vs12;julie;4;2;17-janv-13;1207;mixed;500;400;2000;4;15;0.694120660526;False;X;8;a;1;306;None;None;None;None;None;None;None;None;None;A;650;1;Rouge;0;2;0;0;None;None;0;351;JULIE;218;6.08;2;486;2;1
vs12;julie;4;2;17-janv-13;1207;mixed;500;400;2000;4;16;4.53126895922;True;X;8;a;1;310;None;None;None;None;None;None;None;None;None;A;618;0;Rouge;0;2;0;0;None;None;0;517;JULIE;187;5.28;2;654;3;2
vs12;julie;4;2;17-janv-13;1207;mixed;500;400;2000;4;17;5.3013717325;False;L;16;z;1;367;None;None;None;None;None;None;None;None;None;B;789;4;Vert;0;11;0;0;None;None;0;2509;JULIE;223;5.28;2;2641;10;10
vs12;julie;4;2;17-janv-13;1207;mixed;500;400;2000;4;18;4.19554185468;True;L;8;z;1;440;None;None;None;None;None;None;None;None;None;A;570;2;Vert;0;7;0;0;None;None;0;847;JULIE;208;6.59;2;982;4;3
vs12;julie;4;2;17-janv-13;1207;mixed;500;400;2000;4;19;5.52899673708;True;L;16;z;1;434;None;None;None;None;None;None;None;None;None;A;726;2;Vert;0;11;0;0;None;None;0;1553;JULIE;245.17;5.65;2;1689;6;5
vs12;julie;4;2;17-janv-13;1207;mixed;500;400;2000;4;20;4.6560810705;True;X;8;a;0;501;None;None;None;None;None;None;None;None;None;C;1402;6;Vert;0;6;0;0;None;None;0;762;JULIE;192.5;5.8;2;895;4;3
vs12;julie;4;2;17-janv-13;1207;mixed;500;400;2000;4;21;1.25605041316;True;X;16;z;1;457;None;None;None;None;None;None;None;None;None;C;1221;6;Vert;0;11;0;0;None;None;0;2210;JULIE;252.75;7.13;2;2345;8;7
vs12;julie;4;2;17-janv-13;1207;mixed;500;400;2000;4;22;2.03860759176;True;L;8;a;1;308;None;None;None;None;None;None;None;None;None;A;749;1;Rouge;0;2;0;0;None;None;0;1293;JULIE;249.6;7.08;2;1429;5;4
vs12;julie;4;2;17-janv-13;1207;mixed;500;400;2000;4;23;0.567424584296;True;X;8;N;0;1500;None;None;None;None;None;None;None;None;None;A;1270;3;Vert;0;4;0;0;None;None;0;0;JULIE;326.25;7.13;2;3141;8;7
vs12;julie;4;2;17-janv-13;1207;mixed;500;400;2000;4;24;2.35052558811;True;L;4;z;1;244;None;None;None;None;None;None;None;None;None;A;670;2;Vert;0;1;0;0;None;None;0;291;JULIE;189;4.84;2;425;2;1
