manip,subject,session,order,mm,tm,trialType,iti,fixDur,stimDur,nBlock,nTrial,alpha,present,targType,nItems,resp,acc,rt,confidence,estNItems,estTime,confidenceRT,estNItemsRT,estTimeRT,RecRT,Erreur,Rec2Type,RecRT2,Rec2,couleur,Prime,CordCible,CordPrime,Yes/No,AV/AP,Diff,PostTest,RECORDING_SESSION_LABEL,AVERAGE_FIXATION_DURATION,AVERAGE_SACCADE_AMPLITUDE,BLINK_COUNT,BUTTON_PRESS_COUNT,FIXATION_COUNT,IP_DURATION,SACCADE_COUNT,V48,V49,training,task,trialId
vs12,am,4,2,08Feb2013,1031,mixed,500,400,2000,1,36,2.8951883558,0,L,8,N,0,1000,,,,,,,,,A,4184,3,Rouge,0,3,0,0,,,0,AM,2994,0,0,0,1,3000,0,,,0,L among T,1
vs12,am,4,2,08Feb2013,1037,mixed,500,400,2000,3,12,5.40791664869,1,L,8,a,1,1158,,,,,,,,,A,2260,3,Rouge,0,3,0,0,,,0,AM,3000,0,0,0,1,3000,0,,,0,L among T,2
vs12,am,4,2,08Feb2013,1037,mixed,500,400,2000,3,10,2.33280640118,0,L,4,z,1,624,,,,,,,,,A,4362,1,Vert,0,1,0,0,,,0,AM,3000,0,0,0,1,3000,0,,,0,L among T,3
vs12,am,4,2,08Feb2013,1030,mixed,500,400,2000,1,28,3.68667782442,0,L,16,z,0,591,,,,,,,,,A,1565,3,Rouge,0,9,0,0,,,0,AM,3000,0,0,0,1,3000,0,,,0,L among T,4
vs12,am,4,2,08Feb2013,1038,mixed,500,400,2000,3,16,0.236227194256,1,L,16,z,1,670,,,,,,,,,A,2388,3,Vert,0,13,0,0,,,0,AM,3000,0,0,0,1,3000,0,,,0,L among T,5
vs12,am,4,2,08Feb2013,1042,mixed,500,400,2000,4,18,3.65247656986,1,X,4,a,1,406,,,,,,,,,A,2527,1,Rouge,0,1,0,0,,,0,AM,3000,0,0,0,1,3000,0,,,0,X among T,6
vs12,am,4,2,08Feb2013,1058,mixed,500,400,2000,7,36,2.7238805096,0,X,8,z,1,316,,,,,,,,,A,844,0,Vert,0,4,0,0,,,0,AM,3000,0,0,0,1,3000,0,,,0,X among T,7
vs12,am,4,2,08Feb2013,1048,mixed,500,400,2000,5,34,3.30320743124,1,X,8,z,1,381,,,,,,,,,B,4421,4,Vert,0,3,0,0,,,0,AM,3000,0,0,0,1,3000,0,,,0,X among T,8
vs12,am,4,2,08Feb2013,1057,mixed,500,400,2000,7,29,3.54399796045,1,L,8,a,1,376,,,,,,,,,A,1249,1,Rouge,0,2,0,0,,,0,AM,3000,0,0,0,1,3000,0,,,0,L among T,9
vs12,am,4,2,08Feb2013,1029,mixed,500,400,2000,1,17,1.82129530622,1,X,8,z,1,339,,,,,,,,,A,3465,2,Vert,0,4,0,0,,,0,AM,3000,0,0,0,1,3000,0,,,0,X among T,10
vs12,am,4,2,08Feb2013,1047,mixed,500,400,2000,5,25,0.482689943622,0,X,8,a,1,378,,,,,,,,,A,2938,0,Rouge,0,5,0,0,,,0,AM,3000,0,0,0,1,3000,0,,,0,X among T,11
vs12,am,4,2,08Feb2013,1018,Ent1,500,400,2000,1,10,4.28272056448,0,L,16,z,0,405,,,,,,,,,,,,Rouge,0,4,0,0,,,0,AM,3000,0,0,0,1,3000,0,,,0,L among T,12
vs12,am,4,2,08Feb2013,1019,Ent1,500,400,2000,1,4,3.16337312333,0,L,4,z,1,1468,,,,,,,,,,,,Vert,0,4,0,0,,,0,AM,3000,0,0,0,1,3000,0,,,0,L among T,13
vs12,am,4,2,08Feb2013,1056,mixed,500,400,2000,7,17,4.255581805,0,X,16,z,1,339,,,,,,,,,A,1113,1,Vert,0,11,0,0,,,0,AM,3000,0,0,0,1,3000,0,,,0,X among T,14
vs12,am,4,2,08Feb2013,1100,mixed,500,400,2000,8,10,5.38368279584,1,L,4,a,1,465,,,,,,,,,A,950,3,Rouge,0,1,0,0,,,0,AM,3000,0,0,0,1,3000,0,,,0,L among T,15
vs12,am,4,2,08Feb2013,1036,mixed,500,400,2000,3,2,0.339290828824,1,X,8,z,1,387,,,,,,,,,A,3893,1,Vert,0,8,0,0,,,0,AM,3000,0,0,0,1,3000,0,,,0,X among T,16
vs12,am,4,2,08Feb2013,1037,mixed,500,400,2000,3,7,5.38529189289,0,L,16,a,1,585,,,,,,,,,A,821,3,Rouge,0,6,0,0,,,0,AM,3000,0,0,0,1,3000,0,,,0,L among T,17
vs12,am,4,2,08Feb2013,1050,mixed,500,400,2000,6,4,3.89177042843,0,X,8,z,1,519,,,,,,,,,A,1563,1,Vert,0,5,0,0,,,0,AM,3000,0,0,0,1,3000,0,,,0,X among T,18
vs12,am,4,2,08Feb2013,1037,mixed,500,400,2000,3,3,3.6798465379,1,X,4,a,1,373,,,,,,,,,A,2048,2,Rouge,0,3,0,0,,,0,AM,3000,0,0,0,1,3000,0,,,0,X among T,19
vs12,am,4,2,08Feb2013,1102,mixed,500,400,2000,8,34,1.04993516407,1,L,8,z,1,333,,,,,,,,,B,569,4,Vert,0,6,0,0,,,0,AM,3000,0,0,0,1,3000,0,,,0,L among T,20
vs12,am,4,2,08Feb2013,1045,mixed,500,400,2000,5,1,5.64685038668,1,L,4,z,1,484,,,,,,,,,A,2073,1,Vert,0,2,0,0,,,0,AM,3000,0,0,0,1,3000,0,,,0,L among T,21
vs12,am,4,2,08Feb2013,1024,Ent2,500,400,2000,1,2,5.42844577532,0,L,8,z,1,1416,,,,,,,,,A,3269,2,Vert,0,8,0,0,,,0,AM,3000,0,0,0,1,3000,0,,,0,L among T,22
vs12,am,4,2,08Feb2013,1029,mixed,500,400,2000,1,21,0.0763736429294,0,L,4,z,1,375,,,,,,,,,A,1050,1,Vert,0,1,0,0,,,0,AM,3000,0,0,0,1,3000,0,,,0,L among T,23
vs12,am,4,2,08Feb2013,1052,mixed,500,400,2000,6,26,0.462926198285,1,L,4,a,1,399,,,,,,,,,A,2595,3,Rouge,0,2,0,0,,,0,AM,3000,0,0,0,1,3000,0,,,0,L among T,24
vs12,am,4,2,08Feb2013,1051,mixed,500,400,2000,6,11,3.0556958262,0,X,16,a,1,356,,,,,,,,,A,3837,3,Rouge,0,15,0,0,,,0,AM,3000,0,0,0,1,3000,0,,,0,X among T,25
vs12,am,4,2,08Feb2013,1043,mixed,500,400,2000,4,31,0.156098690631,1,L,8,a,1,363,,,,,,,,,B,1252,4,Rouge,0,2,0,0,,,0,AM,3000,0,0,0,1,3000,0,,,0,L among T,26
vs12,am,4,2,08Feb2013,1057,mixed,500,400,2000,7,27,2.40212088248,0,X,4,a,1,343,,,,,,,,,A,677,1,Rouge,0,4,0,0,,,0,AM,3000,0,0,0,1,3000,0,,,0,X among T,27
vs12,am,4,2,08Feb2013,1033,mixed,500,400,2000,2,12,1.32415304874,1,L,4,a,1,347,,,,,,,,,A,3076,3,Rouge,0,2,0,0,,,0,AM,3000,0,0,0,1,3000,0,,,0,L among T,28
vs12,am,4,2,08Feb2013,1057,mixed,500,400,2000,7,31,4.77101899222,0,L,16,a,1,807,,,,,,,,,A,1144,1,Rouge,0,2,0,0,,,0,AM,3000,0,0,0,1,3000,0,,,0,L among T,29
vs12,am,4,2,08Feb2013,1030,mixed,500,400,2000,1,26,3.96766819424,0,X,4,z,1,366,,,,,,,,,A,1417,1,Vert,0,3,0,0,,,0,AM,3000,0,0,0,1,3000,0,,,0,X among T,30
vs12,am,4,2,08Feb2013,1055,mixed,500,400,2000,7,4,5.21242662573,0,X,8,z,1,343,,,,,,,,,B,2258,4,Vert,0,4,0,0,,,0,AM,3000,0,0,0,1,3000,0,,,0,X among T,31
vs12,am,4,2,08Feb2013,1047,mixed,500,400,2000,5,31,4.74611727121,0,X,4,a,1,345,,,,,,,,,B,2081,4,Rouge,0,2,0,0,,,0,AM,3000,0,0,0,1,3000,0,,,0,X among T,32
vs12,am,4,2,08Feb2013,1015,Ent1,500,400,2000,1,5,0.375769674935,1,L,8,a,1,878,,,,,,,,,,,,Rouge,0,5,0,0,,,0,AM,3000,0,0,0,1,3000,0,,,0,L among T,33
vs12,am,4,2,08Feb2013,1043,mixed,500,400,2000,4,23,0.894757352388,1,X,4,a,1,620,,,,,,,,,A,980,1,Rouge,0,4,0,0,,,0,AM,3000,0,0,0,1,3000,0,,,0,X among T,34
vs12,am,4,2,08Feb2013,1043,mixed,500,400,2000,4,20,3.47159115447,1,X,4,a,1,455,,,,,,,,,A,797,1,Rouge,0,4,0,0,,,0,AM,3000,0,0,0,1,3000,0,,,0,X among T,35
vs12,am,4,2,08Feb2013,1050,mixed,500,400,2000,6,2,5.33827969841,1,X,8,z,1,356,,,,,,,,,A,1610,1,Vert,0,3,0,0,,,0,AM,3000,0,0,0,1,3000,0,,,0,X among T,36
vs12,am,4,2,08Feb2013,1053,mixed,500,400,2000,6,35,4.79400164698,1,X,4,a,1,281,,,,,,,,,A,882,3,Rouge,0,2,0,0,,,0,AM,3000,0,0,0,1,3000,0,,,0,X among T,37
vs12,am,4,2,08Feb2013,1038,mixed,500,400,2000,3,20,3.83107507771,0,X,4,z,1,392,,,,,,,,,A,1009,1,Vert,0,2,0,0,,,0,AM,3000,0,0,0,1,3000,0,,,0,X among T,38
vs12,am,4,2,08Feb2013,1033,mixed,500,400,2000,2,8,2.12922482789,0,L,4,z,1,311,,,,,,,,,A,1192,1,Vert,0,2,0,0,,,0,AM,3000,0,0,0,1,3000,0,,,0,L among T,39
vs12,am,4,2,08Feb2013,1040,mixed,500,400,2000,3,34,3.58722119308,0,X,16,z,1,411,,,,,,,,,A,1482,3,Vert,0,11,0,0,,,0,AM,3000,0,0,0,1,3000,0,,,0,X among T,40
vs12,am,4,2,08Feb2013,1051,mixed,500,400,2000,6,18,1.33804357109,0,L,16,a,1,642,,,,,,,,,C,1114,6,Rouge,0,10,0,0,,,0,AM,3000,0,0,0,1,3000,0,,,0,L among T,41
vs12,am,4,2,08Feb2013,1057,mixed,500,400,2000,7,23,2.30793078627,1,X,4,z,1,412,,,,,,,,,C,1536,6,Vert,0,2,0,0,,,0,AM,3000,0,0,0,1,3000,0,,,0,X among T,42
vs12,am,4,2,08Feb2013,1041,mixed,500,400,2000,4,5,5.99231888102,1,X,16,a,1,494,,,,,,,,,A,882,3,Rouge,0,2,0,0,,,0,AM,3000,0,0,0,1,3000,0,,,0,X among T,43
vs12,am,4,2,08Feb2013,1035,mixed,500,400,2000,2,32,1.00502654336,1,L,4,z,1,604,,,,,,,,,A,1250,0,Vert,0,2,0,0,,,0,AM,3000,0,0,0,1,3000,0,,,0,L among T,44
vs12,am,4,2,08Feb2013,1051,mixed,500,400,2000,6,12,1.77710266346,0,X,8,z,1,519,,,,,,,,,A,760,0,Vert,0,4,0,0,,,0,AM,3000,0,0,0,1,3000,0,,,0,X among T,45
vs12,am,4,2,08Feb2013,1035,mixed,500,400,2000,2,29,3.96261074944,0,X,16,a,0,889,,,,,,,,,D,1895,8,Vert,0,15,0,0,,,0,AM,3000,0,0,0,1,3000,0,,,0,X among T,46
vs12,am,4,2,08Feb2013,1038,mixed,500,400,2000,3,17,2.39100838977,0,L,16,a,1,598,,,,,,,,,C,1773,6,Rouge,0,15,0,0,,,0,AM,3000,0,0,0,1,3000,0,,,0,L among T,47
vs12,am,4,2,08Feb2013,1102,mixed,500,400,2000,8,26,3.19360139345,1,X,8,a,1,1012,,,,,,,,,A,1967,1,Rouge,0,3,0,0,,,0,AM,3000,0,0,0,1,3000,0,,,0,X among T,48
vs12,am,4,2,08Feb2013,1041,mixed,500,400,2000,4,3,6.25212186072,0,L,4,z,1,527,,,,,,,,,A,3026,1,Vert,0,3,0,0,,,0,AM,3000,0,0,0,1,3000,0,,,0,L among T,49
vs12,am,4,2,08Feb2013,1035,mixed,500,400,2000,2,30,2.1565956801,1,L,8,z,1,570,,,,,,,,,A,1498,2,Vert,0,6,0,0,,,0,AM,3000,0,0,0,1,3000,0,,,0,L among T,50
vs12,am,4,2,08Feb2013,1040,mixed,500,400,2000,3,33,5.22290975722,0,X,8,a,1,493,,,,,,,,,A,2082,3,Rouge,0,6,0,0,,,0,AM,3000,0,0,0,1,3000,0,,,0,X among T,51
vs12,am,4,2,08Feb2013,1042,mixed,500,400,2000,4,13,5.87411057832,0,X,8,z,1,422,,,,,,,,,A,3107,1,Vert,0,2,0,0,,,0,AM,3000,0,0,0,1,3000,0,,,0,X among T,52
vs12,am,4,2,08Feb2013,1101,mixed,500,400,2000,8,20,3.30934072839,0,L,8,a,1,423,,,,,,,,,D,642,8,Rouge,0,3,0,0,,,0,AM,3000,0,0,0,1,3000,0,,,0,L among T,53
vs12,am,4,2,08Feb2013,1046,mixed,500,400,2000,5,13,0.504265652017,1,L,8,a,1,1058,,,,,,,,,A,852,1,Rouge,0,7,0,0,,,0,AM,3000,0,0,0,1,3000,0,,,0,L among T,54
vs12,am,4,2,08Feb2013,1046,mixed,500,400,2000,5,17,3.21121703951,0,L,4,a,1,388,,,,,,,,,A,3451,3,Rouge,0,3,0,0,,,0,AM,3000,0,0,0,1,3000,0,,,0,L among T,55
vs12,am,4,2,08Feb2013,1015,Ent1,500,400,2000,1,1,6.2046652616,0,L,8,z,1,2866,,,,,,,,,,,,Vert,0,8,0,0,,,0,AM,3000,0,0,0,1,3000,0,,,0,L among T,56
vs12,am,4,2,08Feb2013,1025,Ent2,500,400,2000,1,6,2.39146512254,1,L,8,a,1,648,,,,,,,,,B,3129,4,Rouge,0,8,0,0,,,0,AM,3000,0,0,0,1,3000,0,,,0,L among T,57
vs12,am,4,2,08Feb2013,1038,mixed,500,400,2000,3,22,1.44884434302,1,X,4,a,1,436,,,,,,,,,A,1170,3,Rouge,0,2,0,0,,,0,AM,3000,0,0,0,1,3000,0,,,0,X among T,58
vs12,am,4,2,08Feb2013,1055,mixed,500,400,2000,7,3,5.32113673926,1,X,8,z,1,1391,,,,,,,,,A,1135,3,Vert,0,6,0,0,,,0,AM,3000,0,0,0,1,3000,0,,,0,X among T,59
vs12,am,4,2,08Feb2013,1025,Ent2,500,400,2000,1,10,1.98014499471,1,L,16,a,0,673,,,,,,,,,B,3012,5,Vert,0,10,0,0,,,0,AM,3000,0,0,0,1,3000,0,,,0,L among T,60
vs12,am,4,2,08Feb2013,1042,mixed,500,400,2000,4,11,3.00849415978,0,L,4,z,1,427,,,,,,,,,A,939,1,Vert,0,3,0,0,,,0,AM,3000,0,0,0,1,3000,0,,,0,L among T,61
vs12,am,4,2,08Feb2013,1056,mixed,500,400,2000,7,10,2.64999842725,1,X,4,a,1,421,,,,,,,,,A,1029,2,Rouge,0,1,0,0,,,0,AM,3000,0,0,0,1,3000,0,,,0,X among T,62
vs12,am,4,2,08Feb2013,1025,Ent2,500,400,2000,1,7,0.973447308234,1,X,8,a,1,695,,,,,,,,,B,2551,5,Rouge,0,4,0,0,,,0,AM,3000,0,0,0,1,3000,0,,,0,X among T,63
vs12,am,4,2,08Feb2013,1029,mixed,500,400,2000,1,18,2.06782604813,0,L,16,a,0,654,,,,,,,,,C,1612,6,Vert,0,9,0,0,,,0,AM,3000,0,0,0,1,3000,0,,,0,L among T,64
vs12,am,4,2,08Feb2013,1045,mixed,500,400,2000,5,2,3.94370490784,1,X,4,a,1,328,,,,,,,,,A,959,1,Rouge,0,3,0,0,,,0,AM,3000,0,0,0,1,3000,0,,,0,X among T,65
vs12,am,4,2,08Feb2013,1055,mixed,500,400,2000,7,6,2.50657935985,1,L,4,a,1,347,,,,,,,,,C,925,7,Rouge,0,4,0,0,,,0,AM,3000,0,0,0,1,3000,0,,,0,L among T,66
vs12,am,4,2,08Feb2013,1038,mixed,500,400,2000,3,15,5.05045474714,1,L,8,z,1,1012,,,,,,,,,A,1011,0,Vert,0,6,0,0,,,0,AM,3000,0,0,0,1,3000,0,,,0,L among T,67
vs12,am,4,2,08Feb2013,1059,mixed,500,400,2000,8,2,0.147122866939,0,X,16,z,1,391,,,,,,,,,C,658,6,Vert,0,12,0,0,,,0,AM,3000,0,0,0,1,3000,0,,,0,X among T,68
vs12,am,4,2,08Feb2013,1037,mixed,500,400,2000,3,9,3.16710926275,1,L,4,a,1,839,,,,,,,,,A,863,1,Rouge,0,3,0,0,,,0,AM,3000,0,0,0,1,3000,0,,,0,L among T,69
vs12,am,4,2,08Feb2013,1041,mixed,500,400,2000,4,2,5.52659771922,1,X,8,z,1,361,,,,,,,,,A,1106,1,Vert,0,2,0,0,,,0,AM,3000,0,0,0,1,3000,0,,,0,X among T,70
vs12,am,4,2,08Feb2013,1025,Ent2,500,400,2000,1,4,5.48708785631,0,X,8,z,1,946,,,,,,,,,A,2895,3,Vert,0,3,0,0,,,0,AM,3000,0,0,0,1,3000,0,,,0,X among T,71
vs12,am,4,2,08Feb2013,1041,mixed,500,400,2000,4,4,0.272134568219,1,X,8,z,1,380,,,,,,,,,A,2230,1,Vert,0,2,0,0,,,0,AM,3000,0,0,0,1,3000,0,,,0,X among T,72
vs12,am,4,2,08Feb2013,1040,mixed,500,400,2000,3,35,5.52597658171,0,X,8,z,1,410,,,,,,,,,A,1253,3,Vert,0,2,0,0,,,0,AM,3000,0,0,0,1,3000,0,,,0,X among T,73
vs12,am,4,2,08Feb2013,1051,mixed,500,400,2000,6,15,3.5146509242,1,X,8,a,1,345,,,,,,,,,A,1146,1,Rouge,0,6,0,0,,,0,AM,3000,0,0,0,1,3000,0,,,0,X among T,74
vs12,am,4,2,08Feb2013,1028,mixed,500,400,2000,1,6,5.50886639355,1,L,8,z,1,452,,,,,,,,,A,2406,2,Vert,0,2,0,0,,,0,AM,3000,0,0,0,1,3000,0,,,0,L among T,75
vs12,am,4,2,08Feb2013,1052,mixed,500,400,2000,6,28,1.0094367861,0,L,8,z,0,1051,,,,,,,,,D,989,8,Rouge,0,1,0,0,,,0,AM,3000,0,0,0,1,3000,0,,,0,L among T,76
vs12,am,4,2,08Feb2013,1037,mixed,500,400,2000,3,6,2.21016726948,1,L,4,z,1,468,,,,,,,,,A,1331,1,Vert,0,3,0,0,,,0,AM,3000,0,0,0,1,3000,0,,,0,L among T,77
vs12,am,4,2,08Feb2013,1028,mixed,500,400,2000,1,8,0.911416500894,0,X,8,z,1,892,,,,,,,,,D,1184,8,Vert,0,7,0,0,,,0,AM,3000,0,0,0,1,3000,0,,,0,X among T,78
vs12,am,4,2,08Feb2013,1055,mixed,500,400,2000,7,5,2.2129727067,1,X,16,z,1,364,,,,,,,,,A,2046,3,Vert,0,14,0,0,,,0,AM,3000,0,0,0,1,3000,0,,,0,X among T,79
vs12,am,4,2,08Feb2013,1035,mixed,500,400,2000,2,36,4.04598219133,0,X,4,z,1,492,,,,,,,,,A,1641,1,Vert,0,2,0,0,,,0,AM,3000,0,0,0,1,3000,0,,,0,X among T,80
vs12,am,4,2,08Feb2013,1048,mixed,500,400,2000,5,36,2.6386261273,1,X,4,a,1,462,,,,,,,,,A,2792,2,Rouge,0,1,0,0,,,0,AM,3000,0,0,0,1,3000,0,,,0,X among T,81
vs12,am,4,2,08Feb2013,1038,mixed,500,400,2000,3,14,2.75945745061,0,L,16,z,1,502,,,,,,,,,A,2048,1,Vert,0,12,0,0,,,0,AM,3000,0,0,0,1,3000,0,,,0,L among T,82
vs12,am,4,2,08Feb2013,1050,mixed,500,400,2000,6,7,2.77788155764,0,L,8,a,1,518,,,,,,,,,A,3731,3,Rouge,0,1,0,0,,,0,AM,3000,0,0,0,1,3000,0,,,0,L among T,83
vs12,am,4,2,08Feb2013,1018,Ent1,500,400,2000,1,3,1.24961330774,1,X,4,z,1,323,,,,,,,,,,,,Vert,0,1,0,0,,,0,AM,3000,0,0,0,1,3000,0,,,0,X among T,84
vs12,am,4,2,08Feb2013,1056,mixed,500,400,2000,7,12,3.42477133956,1,L,8,z,1,1017,,,,,,,,,B,968,4,Vert,0,8,0,0,,,0,AM,3000,0,0,0,1,3000,0,,,0,L among T,85
vs12,am,4,2,08Feb2013,1019,Ent1,500,400,2000,1,2,3.07326760853,0,X,4,a,1,440,,,,,,,,,,,,Rouge,0,1,0,0,,,0,AM,3000,0,0,0,1,3000,0,,,0,X among T,86
vs12,am,4,2,08Feb2013,1045,mixed,500,400,2000,5,4,4.01815703031,0,X,8,z,1,349,,,,,,,,,A,1433,1,Vert,0,6,0,0,,,0,AM,3000,0,0,0,1,3000,0,,,0,X among T,87
vs12,am,4,2,08Feb2013,1015,Ent1,500,400,2000,1,4,3.77662725397,0,L,4,z,1,278,,,,,,,,,,,,Vert,0,4,0,0,,,0,AM,3000,0,0,0,1,3000,0,,,0,L among T,88
vs12,am,4,2,08Feb2013,1052,mixed,500,400,2000,6,20,2.95466943765,1,L,4,z,1,710,,,,,,,,,A,3060,2,Vert,0,2,0,0,,,0,AM,3000,0,0,0,1,3000,0,,,0,L among T,89
vs12,am,4,2,08Feb2013,1033,mixed,500,400,2000,2,13,0.760728381327,1,X,4,a,1,1316,,,,,,,,,A,2306,3,Rouge,0,2,0,0,,,0,AM,3000,0,0,0,1,3000,0,,,0,X among T,90
vs12,am,4,2,08Feb2013,1028,mixed,500,400,2000,1,3,3.26316938078,1,X,16,z,1,799,,,,,,,,,A,1918,3,Vert,0,11,0,0,,,0,AM,3000,0,0,0,1,3000,0,,,0,X among T,91
vs12,am,4,2,08Feb2013,1024,Ent2,500,400,2000,1,3,4.63525636733,0,X,16,a,1,1228,,,,,,,,,B,2969,5,Rouge,0,10,0,0,,,0,AM,3000,0,0,0,1,3000,0,,,0,X among T,92
vs12,am,4,2,08Feb2013,1017,Ent1,500,400,2000,1,4,3.74295472782,0,L,4,a,1,449,,,,,,,,,,,,Rouge,0,3,0,0,,,0,AM,732.4,0,2,0,5,3000,5,,,0,L among T,93
vs12,am,4,2,08Feb2013,1052,mixed,500,400,2000,6,22,6.11587896236,0,L,4,a,1,560,,,,,,,,,A,2441,1,Rouge,0,3,0,0,,,0,AM,1634,0.16,1,0,2,3000,1,,,0,L among T,94
vs12,am,4,2,08Feb2013,1042,mixed,500,400,2000,4,16,5.97973553812,1,L,4,z,1,376,,,,,,,,,A,878,1,Vert,0,1,0,0,,,0,AM,1078,0.17,0,0,3,3000,2,,,0,L among T,95
vs12,am,4,2,08Feb2013,1042,mixed,500,400,2000,4,14,3.39682068057,0,X,16,a,1,421,,,,,,,,,A,1189,1,Rouge,0,6,0,0,,,0,AM,1626,0.18,0,0,2,3000,1,,,0,X among T,96
vs12,am,4,2,08Feb2013,1044,mixed,500,400,2000,4,34,0.823461050004,0,L,8,z,1,391,,,,,,,,,B,1283,4,Vert,0,8,0,0,,,0,AM,1810,0.18,0,0,2,3000,1,,,0,L among T,97
vs12,am,4,2,08Feb2013,1045,mixed,500,400,2000,5,8,3.89232137575,0,L,8,z,1,357,,,,,,,,,A,1038,3,Vert,0,5,0,0,,,0,AM,1636,0.19,0,0,2,3000,1,,,0,L among T,98
vs12,am,4,2,08Feb2013,1037,mixed,500,400,2000,3,8,3.87209896626,1,X,4,z,1,411,,,,,,,,,A,1843,2,Vert,0,2,0,0,,,0,AM,1703.5,0.19,0,0,2,3000,1,,,0,X among T,99
vs12,am,4,2,08Feb2013,1029,mixed,500,400,2000,1,16,5.6859983151,1,X,8,z,1,751,,,,,,,,,A,2903,1,Vert,0,2,0,0,,,0,AM,1646.5,0.2,0,0,2,3000,1,,,0,X among T,100
vs12,am,4,2,08Feb2013,1047,mixed,500,400,2000,5,21,2.63640057122,0,L,16,a,1,748,,,,,,,,,D,1051,8,Rouge,0,7,0,0,,,0,AM,1137,0.21,0,0,3,3000,2,,,0,L among T,101
vs12,am,4,2,08Feb2013,1100,mixed,500,400,2000,8,3,1.50940018536,0,L,16,a,1,377,,,,,,,,,B,2101,4,Rouge,0,3,0,0,,,0,AM,1786.5,0.21,0,0,2,3000,1,,,0,L among T,102
vs12,am,4,2,08Feb2013,1053,mixed,500,400,2000,6,33,4.66995717412,1,X,8,z,1,906,,,,,,,,,B,803,4,Vert,0,1,0,0,,,0,AM,2081.5,0.21,0,0,2,3000,1,,,0,X among T,103
vs12,am,4,2,08Feb2013,1047,mixed,500,400,2000,5,23,3.69896920443,1,L,8,z,1,684,,,,,,,,,B,1802,5,Vert,0,7,0,0,,,0,AM,1631,0.22,0,0,2,3000,1,,,0,L among T,104
vs12,am,4,2,08Feb2013,1053,mixed,500,400,2000,6,31,4.45538992986,1,L,8,a,1,484,,,,,,,,,B,1041,5,Rouge,0,5,0,0,,,0,AM,1652,0.22,0,0,2,3000,1,,,0,L among T,105
vs12,am,4,2,08Feb2013,1030,mixed,500,400,2000,1,27,5.20517465211,1,X,4,z,1,1258,,,,,,,,,A,3077,1,Vert,0,3,0,0,,,0,AM,1944,0.22,0,0,2,3000,1,,,0,X among T,106
vs12,am,4,2,08Feb2013,1053,mixed,500,400,2000,6,34,4.98039353954,1,L,8,z,1,292,,,,,,,,,B,689,4,Vert,0,4,0,0,,,0,AM,1634.5,0.22,0,0,2,3000,1,,,0,L among T,107
vs12,am,4,2,08Feb2013,1032,mixed,500,400,2000,2,6,3.48143365329,0,L,16,a,1,678,,,,,,,,,B,2416,5,Rouge,0,5,0,0,,,0,AM,1789.5,0.22,0,0,2,3000,1,,,0,L among T,108
vs12,am,4,2,08Feb2013,1045,mixed,500,400,2000,5,7,0.532059867073,1,X,8,a,1,367,,,,,,,,,A,871,1,Rouge,0,3,0,0,,,0,AM,1198,0.23,0,0,3,3000,2,,,0,X among T,109
vs12,am,4,2,08Feb2013,1059,mixed,500,400,2000,8,1,4.96268851273,0,L,8,z,1,483,,,,,,,,,A,4189,1,Vert,0,7,0,0,,,0,AM,1653.5,0.23,0,0,2,3000,1,,,0,L among T,110
vs12,am,4,2,08Feb2013,1015,Ent1,500,400,2000,1,6,4.12260351719,0,X,16,z,0,588,,,,,,,,,,,,Rouge,0,4,0,0,,,0,AM,1934.5,0.23,0,0,2,3000,1,,,0,X among T,111
vs12,am,4,2,08Feb2013,1039,mixed,500,400,2000,3,29,5.51957608326,1,X,16,z,1,404,,,,,,,,,A,1219,3,Vert,0,16,0,0,,,0,AM,1075,0.24,0,0,3,3000,2,,,0,X among T,112
vs12,am,4,2,08Feb2013,1100,mixed,500,400,2000,8,8,4.21426133302,0,L,8,z,1,396,,,,,,,,,A,921,3,Vert,0,8,0,0,,,0,AM,1096,0.24,0,0,3,3000,2,,,0,L among T,113
vs12,am,4,2,08Feb2013,1028,mixed,500,400,2000,1,2,2.28839490297,1,L,4,a,1,629,,,,,,,,,A,2494,0,Rouge,0,4,0,0,,,0,AM,1614,0.24,0,0,2,3000,1,,,0,L among T,114
vs12,am,4,2,08Feb2013,1046,mixed,500,400,2000,5,10,1.10009865249,1,X,4,a,1,346,,,,,,,,,A,1337,1,Rouge,0,2,0,0,,,0,AM,1631,0.24,0,0,2,3000,1,,,0,X among T,115
vs12,am,4,2,08Feb2013,1035,mixed,500,400,2000,2,35,2.01241994067,0,L,4,a,1,482,,,,,,,,,A,699,1,Rouge,0,2,0,0,,,0,AM,1672,0.24,0,0,2,3000,1,,,0,L among T,116
vs12,am,4,2,08Feb2013,1056,mixed,500,400,2000,7,9,4.12466000425,0,L,16,a,1,601,,,,,,,,,D,1137,8,Rouge,0,12,0,0,,,0,AM,1730,0.24,0,0,2,3000,1,,,0,L among T,117
vs12,am,4,2,08Feb2013,1034,mixed,500,400,2000,2,23,2.65929104706,1,X,8,a,1,395,,,,,,,,,B,1256,5,Rouge,0,7,0,0,,,0,AM,1026.33,0.24,1,0,3,3000,2,,,0,X among T,118
vs12,am,4,2,08Feb2013,1040,mixed,500,400,2000,3,36,0.708797677969,1,L,4,z,1,377,,,,,,,,,A,767,0,Vert,0,2,0,0,,,0,AM,1074.67,0.24,0,0,3,3000,2,,,0,L among T,119
vs12,am,4,2,08Feb2013,1100,mixed,500,400,2000,8,4,6.17185913818,1,X,4,a,1,1262,,,,,,,,,B,2867,5,Rouge,0,1,0,0,,,0,AM,1235.33,0.24,0,0,3,3000,2,,,0,X among T,120
vs12,am,4,2,08Feb2013,1030,mixed,500,400,2000,1,31,5.3224078248,1,L,8,a,1,407,,,,,,,,,A,1596,3,Rouge,0,6,0,0,,,0,AM,1502.5,0.24,0,0,2,3000,1,,,0,L among T,121
vs12,am,4,2,08Feb2013,1045,mixed,500,400,2000,5,3,4.60799536676,0,X,16,z,1,536,,,,,,,,,A,2440,2,Vert,0,5,0,0,,,0,AM,1618.5,0.24,0,0,2,3000,1,,,0,X among T,122
vs12,am,4,2,08Feb2013,1015,Ent1,500,400,2000,1,3,0.527932093594,1,X,4,a,1,393,,,,,,,,,,,,Rouge,0,1,0,0,,,0,AM,1644.5,0.24,0,0,2,3000,1,,,0,X among T,123
vs12,am,4,2,08Feb2013,1043,mixed,500,400,2000,4,25,4.60619660798,0,X,4,z,1,378,,,,,,,,,A,2566,1,Vert,0,2,0,0,,,0,AM,903.5,0.24,0,0,4,3000,3,,,0,X among T,124
vs12,am,4,2,08Feb2013,1047,mixed,500,400,2000,5,30,0.75743966434,0,X,16,a,1,543,,,,,,,,,A,2098,2,Rouge,0,11,0,0,,,0,AM,1645,0.25,0,0,2,3000,1,,,0,X among T,125
vs12,am,4,2,08Feb2013,1044,mixed,500,400,2000,4,32,3.68232756046,0,L,16,a,1,794,,,,,,,,,B,1126,4,Rouge,0,16,0,0,,,0,AM,1756,0.25,0,0,2,3000,1,,,0,L among T,126
vs12,am,4,2,08Feb2013,1039,mixed,500,400,2000,3,32,4.62885015741,0,L,4,z,1,386,,,,,,,,,A,1727,1,Vert,0,1,0,0,,,0,AM,1868,0.25,0,0,2,3000,1,,,0,L among T,127
vs12,am,4,2,08Feb2013,1027,mixed,500,400,2000,1,1,4.48117649017,0,X,4,a,1,520,,,,,,,,,A,4771,2,Rouge,0,2,0,0,,,0,AM,1883,0.25,1,0,2,3000,1,,,0,X among T,128
vs12,am,4,2,08Feb2013,1030,mixed,500,400,2000,1,30,3.33588199501,1,X,4,z,1,364,,,,,,,,,A,1572,1,Vert,0,2,0,0,,,0,AM,1070.67,0.25,0,0,3,3000,2,,,0,X among T,129
vs12,am,4,2,08Feb2013,1101,mixed,500,400,2000,8,24,2.28315225273,1,L,16,z,1,370,,,,,,,,,A,2613,2,Vert,0,5,0,0,,,0,AM,1644.5,0.25,0,0,2,3000,1,,,0,L among T,130
vs12,am,4,2,08Feb2013,1031,mixed,500,400,2000,1,34,2.49832726684,1,L,16,z,1,494,,,,,,,,,B,1720,5,Vert,0,6,0,0,,,0,AM,1744.5,0.25,0,0,2,3000,1,,,0,L among T,131
vs12,am,4,2,08Feb2013,1034,mixed,500,400,2000,2,19,1.19971573843,1,X,16,a,1,357,,,,,,,,,A,969,1,Rouge,0,11,0,0,,,0,AM,828.5,0.25,0,0,4,3000,3,,,0,X among T,132
vs12,am,4,2,08Feb2013,1034,mixed,500,400,2000,2,20,1.23088454679,1,L,16,a,1,425,,,,,,,,,D,988,8,Rouge,0,2,0,0,,,0,AM,1183,0.26,0,0,3,3000,2,,,0,L among T,133
vs12,am,4,2,08Feb2013,1102,mixed,500,400,2000,8,25,2.6845862854,0,X,4,a,1,1036,,,,,,,,,A,1643,1,Rouge,0,3,0,0,,,0,AM,1625,0.26,0,0,2,3000,1,,,0,X among T,134
vs12,am,4,2,08Feb2013,1028,mixed,500,400,2000,1,10,3.82702481475,1,L,4,a,1,488,,,,,,,,,A,1493,3,Rouge,0,2,0,0,,,0,AM,1658,0.26,0,0,2,3000,1,,,0,L among T,135
vs12,am,4,2,08Feb2013,1039,mixed,500,400,2000,3,27,0.387171910742,0,L,8,z,1,406,,,,,,,,,A,2864,2,Vert,0,2,0,0,,,0,AM,1663,0.26,0,0,2,3000,1,,,0,L among T,136
vs12,am,4,2,08Feb2013,1100,mixed,500,400,2000,8,6,0.556068636308,1,L,16,z,1,1180,,,,,,,,,D,811,9,Vert,0,15,0,0,,,0,AM,1728,0.26,0,0,2,3000,1,,,0,L among T,137
vs12,am,4,2,08Feb2013,1032,mixed,500,400,2000,2,7,0.307190355858,1,X,4,z,1,384,,,,,,,,,A,848,1,Vert,0,2,0,0,,,0,AM,1807,0.26,0,0,2,3000,1,,,0,X among T,138
vs12,am,4,2,08Feb2013,1047,mixed,500,400,2000,5,29,1.93059326532,1,X,16,a,1,368,,,,,,,,,A,1860,3,Rouge,0,10,0,0,,,0,AM,1095.67,0.26,0,0,3,3000,2,,,0,X among T,139
vs12,am,4,2,08Feb2013,1029,mixed,500,400,2000,1,20,0.694674756507,0,L,4,a,1,737,,,,,,,,,D,895,8,Rouge,0,1,0,0,,,0,AM,1103.33,0.26,0,0,3,3000,2,,,0,L among T,140
vs12,am,4,2,08Feb2013,1055,mixed,500,400,2000,7,7,5.39341625659,0,X,4,z,1,376,,,,,,,,,A,1600,3,Vert,0,3,0,0,,,0,AM,1195.67,0.26,0,0,3,3000,2,,,0,X among T,141
vs12,am,4,2,08Feb2013,1053,mixed,500,400,2000,6,29,0.465695780234,0,X,4,a,1,920,,,,,,,,,A,1156,3,Rouge,0,2,0,0,,,0,AM,1637.5,0.26,0,0,2,3000,1,,,0,X among T,142
vs12,am,4,2,08Feb2013,1101,mixed,500,400,2000,8,23,3.65682559684,1,X,8,a,1,432,,,,,,,,,A,2122,1,Rouge,0,3,0,0,,,0,AM,815.5,0.26,0,0,4,3000,3,,,0,X among T,143
vs12,am,4,2,08Feb2013,1018,Ent1,500,400,2000,1,6,6.02585824571,0,X,16,z,1,456,,,,,,,,,,,,Vert,0,6,0,0,,,0,AM,995,0.27,0,0,4,3000,3,,,0,X among T,144
vs12,am,4,2,08Feb2013,1102,mixed,500,400,2000,8,35,4.0583584663,0,X,4,z,1,329,,,,,,,,,A,1051,1,Vert,0,1,0,0,,,0,AM,1526,0.27,0,0,2,3000,1,,,0,X among T,145
vs12,am,4,2,08Feb2013,1030,mixed,500,400,2000,1,25,5.6793627289,1,L,8,a,1,325,,,,,,,,,A,2103,1,Rouge,0,4,0,0,,,0,AM,1628,0.27,0,0,2,3000,1,,,0,L among T,146
vs12,am,4,2,08Feb2013,1033,mixed,500,400,2000,2,11,1.7386396315,0,L,8,z,1,434,,,,,,,,,A,1417,1,Vert,0,4,0,0,,,0,AM,1667,0.27,0,0,2,3000,1,,,0,L among T,147
vs12,am,4,2,08Feb2013,1055,mixed,500,400,2000,7,1,4.43442964951,1,L,16,a,1,1001,,,,,,,,,D,2984,8,Rouge,0,5,0,0,,,0,AM,1668,0.27,0,0,2,3000,1,,,0,L among T,148
vs12,am,4,2,08Feb2013,1025,Ent2,500,400,2000,1,9,2.38049458026,0,L,4,a,1,466,,,,,,,,,A,2603,2,Rouge,0,3,0,0,,,0,AM,1865,0.27,0,0,2,3000,1,,,0,L among T,149
vs12,am,4,2,08Feb2013,1050,mixed,500,400,2000,6,5,5.11656884203,1,L,8,z,1,402,,,,,,,,,A,3771,3,Vert,0,7,0,0,,,0,AM,1115.67,0.27,0,0,3,3000,2,,,0,L among T,150
vs12,am,4,2,08Feb2013,1024,Ent2,500,400,2000,1,1,3.47111037963,1,X,16,z,1,1483,,,,,,,,,A,9210,3,Vert,0,1,0,0,,,0,AM,1183.67,0.27,0,0,3,3000,2,,,0,X among T,151
vs12,am,4,2,08Feb2013,1050,mixed,500,400,2000,6,3,2.62830075123,0,X,8,a,1,376,,,,,,,,,A,3134,3,Rouge,0,6,0,0,,,0,AM,1636.5,0.27,0,0,2,3000,1,,,0,X among T,152
vs12,am,4,2,08Feb2013,1043,mixed,500,400,2000,4,27,0.290668135175,0,L,8,z,1,351,,,,,,,,,A,1543,1,Vert,0,7,0,0,,,0,AM,1671.5,0.27,0,0,2,3000,1,,,0,L among T,153
vs12,am,4,2,08Feb2013,1031,mixed,500,400,2000,1,35,4.16677726563,1,X,8,z,1,437,,,,,,,,,B,2101,5,Vert,0,7,0,0,,,0,AM,1086,0.28,0,0,3,3000,2,,,0,X among T,154
vs12,am,4,2,08Feb2013,1100,mixed,500,400,2000,8,5,2.48148316364,0,L,16,z,1,380,,,,,,,,,A,2414,1,Vert,0,5,0,0,,,0,AM,1621,0.28,0,0,2,3000,1,,,0,L among T,155
vs12,am,4,2,08Feb2013,1045,mixed,500,400,2000,5,9,3.98521673474,0,X,4,z,1,1099,,,,,,,,,A,1681,1,Vert,0,3,0,0,,,0,AM,1693,0.28,0,0,2,3000,1,,,0,X among T,156
vs12,am,4,2,08Feb2013,1038,mixed,500,400,2000,3,18,4.9640624268,0,L,8,z,1,640,,,,,,,,,A,2008,2,Vert,0,8,0,0,,,0,AM,1078.33,0.28,0,0,3,3000,2,,,0,L among T,157
vs12,am,4,2,08Feb2013,1041,mixed,500,400,2000,4,8,0.806449326012,0,X,16,a,1,504,,,,,,,,,A,2158,1,Rouge,0,2,0,0,,,0,AM,1665.5,0.28,0,0,2,3000,1,,,0,X among T,158
vs12,am,4,2,08Feb2013,1037,mixed,500,400,2000,3,11,5.42850399736,1,X,8,a,1,547,,,,,,,,,A,1651,1,Rouge,0,5,0,0,,,0,AM,1925.5,0.28,0,0,2,3000,1,,,0,X among T,159
vs12,am,4,2,08Feb2013,1015,Ent1,500,400,2000,1,7,4.15002607064,1,L,4,z,0,394,,,,,,,,,,,,Rouge,0,3,0,0,,,0,AM,1977.5,0.28,0,0,2,3000,1,,,0,L among T,160
vs12,am,4,2,08Feb2013,1039,mixed,500,400,2000,3,31,2.56577142352,0,X,4,a,1,406,,,,,,,,,A,881,1,Rouge,0,2,0,0,,,0,AM,828.75,0.28,0,0,4,3000,3,,,0,X among T,161
vs12,am,4,2,08Feb2013,1044,mixed,500,400,2000,4,33,3.52220769734,1,L,8,z,1,487,,,,,,,,,B,626,4,Vert,0,3,0,0,,,0,AM,1623,0.29,0,0,2,3000,1,,,0,L among T,162
vs12,am,4,2,08Feb2013,1039,mixed,500,400,2000,3,30,5.13537160959,1,X,8,z,1,500,,,,,,,,,A,2510,1,Vert,0,5,0,0,,,0,AM,1680,0.29,0,0,2,3000,1,,,0,X among T,163
vs12,am,4,2,08Feb2013,1032,mixed,500,400,2000,2,1,0.304797256013,0,L,16,N,0,1000,,,,,,,,,D,4428,8,Rouge,0,1,0,0,,,0,AM,1093.33,0.29,0,0,3,3000,2,,,0,L among T,164
vs12,am,4,2,08Feb2013,1056,mixed,500,400,2000,7,15,2.4173196783,1,X,16,z,1,322,,,,,,,,,A,594,2,Vert,0,14,0,0,,,0,AM,1098.67,0.29,0,0,3,3000,2,,,0,X among T,165
vs12,am,4,2,08Feb2013,1045,mixed,500,400,2000,5,5,4.26257157764,0,L,4,z,1,336,,,,,,,,,A,1330,1,Vert,0,2,0,0,,,0,AM,1171.33,0.29,0,0,3,3000,2,,,0,L among T,166
vs12,am,4,2,08Feb2013,1034,mixed,500,400,2000,2,27,0.8724577498,1,X,4,z,1,365,,,,,,,,,A,1258,1,Vert,0,3,0,0,,,0,AM,1208.67,0.29,0,0,3,3000,2,,,0,X among T,167
vs12,am,4,2,08Feb2013,1055,mixed,500,400,2000,7,2,0.401745484142,1,L,16,a,1,304,,,,,,,,,B,856,5,Rouge,0,7,0,0,,,0,AM,1669.5,0.29,0,0,2,3000,1,,,0,L among T,168
vs12,am,4,2,08Feb2013,1033,mixed,500,400,2000,2,14,1.973614653,1,X,8,a,1,425,,,,,,,,,A,970,3,Rouge,0,2,0,0,,,0,AM,1674.5,0.29,0,0,2,3000,1,,,0,X among T,169
vs12,am,4,2,08Feb2013,1103,mixed,500,400,2000,8,36,0.465182733364,1,L,16,z,1,970,,,,,,,,,B,1200,4,Vert,0,1,0,0,,,0,AM,839.5,0.29,0,0,4,3000,3,,,0,L among T,170
vs12,am,4,2,08Feb2013,1043,mixed,500,400,2000,4,22,2.73345174084,0,X,4,a,1,624,,,,,,,,,A,1603,2,Rouge,0,2,0,0,,,0,AM,1323.67,0.3,0,0,3,3000,2,,,0,X among T,171
vs12,am,4,2,08Feb2013,1041,mixed,500,400,2000,4,6,0.0669671499416,0,X,16,z,1,587,,,,,,,,,A,1268,0,Vert,0,2,0,0,,,0,AM,1687.5,0.3,1,0,2,3000,1,,,0,X among T,172
vs12,am,4,2,08Feb2013,1056,mixed,500,400,2000,7,18,5.84601994428,1,L,8,a,1,467,,,,,,,,,A,1248,1,Rouge,0,7,0,0,,,0,AM,820,0.31,0,0,4,3000,3,,,0,L among T,173
vs12,am,4,2,08Feb2013,1017,Ent1,500,400,2000,1,7,3.25034576144,1,L,4,z,1,432,,,,,,,,,,,,Vert,0,3,0,0,,,0,AM,988,0.31,0,0,4,3000,3,,,0,L among T,174
vs12,am,4,2,08Feb2013,1039,mixed,500,400,2000,3,23,5.00469741946,0,X,4,a,1,400,,,,,,,,,A,4328,1,Rouge,0,3,0,0,,,0,AM,1616,0.31,0,0,2,3000,1,,,0,X among T,175
vs12,am,4,2,08Feb2013,1052,mixed,500,400,2000,6,19,2.92257205175,1,L,4,z,1,359,,,,,,,,,A,2541,1,Vert,0,3,0,0,,,0,AM,1656,0.31,0,0,2,3000,1,,,0,L among T,176
vs12,am,4,2,08Feb2013,1039,mixed,500,400,2000,3,25,5.3560716583,0,X,16,a,1,621,,,,,,,,,B,1421,4,Rouge,0,2,0,0,,,0,AM,1746,0.31,0,0,2,3000,1,,,0,X among T,177
vs12,am,4,2,08Feb2013,1035,mixed,500,400,2000,2,33,5.38254685629,0,X,4,a,1,395,,,,,,,,,A,2564,1,Rouge,0,2,0,0,,,0,AM,1012.67,0.31,0,0,3,3000,2,,,0,X among T,178
vs12,am,4,2,08Feb2013,1016,Ent1,500,400,2000,1,11,2.73929996725,0,X,8,a,1,570,,,,,,,,,,,,Rouge,0,3,0,0,,,0,AM,1017.33,0.31,1,0,3,3000,2,,,0,X among T,179
vs12,am,4,2,08Feb2013,1056,mixed,500,400,2000,7,14,5.84720161473,1,X,8,z,1,319,,,,,,,,,A,824,1,Vert,0,8,0,0,,,0,AM,1087.67,0.31,0,0,3,3000,2,,,0,X among T,180
vs12,am,4,2,08Feb2013,1034,mixed,500,400,2000,2,28,4.64816769684,0,L,8,z,1,509,,,,,,,,,A,2033,2,Vert,0,3,0,0,,,0,AM,1163.67,0.31,0,0,3,3000,2,,,0,L among T,181
vs12,am,4,2,08Feb2013,1058,mixed,500,400,2000,7,34,5.23348279555,1,X,4,z,1,817,,,,,,,,,A,2969,1,Vert,0,1,0,0,,,0,AM,1824.5,0.31,0,0,2,3000,1,,,0,X among T,182
vs12,am,4,2,08Feb2013,1017,Ent1,500,400,2000,1,8,5.24839734116,1,X,16,z,1,361,,,,,,,,,,,,Vert,0,10,0,0,,,0,AM,1867.5,0.31,0,0,2,3000,1,,,0,X among T,183
vs12,am,4,2,08Feb2013,1056,mixed,500,400,2000,7,13,4.87690813677,1,L,16,z,1,657,,,,,,,,,A,697,1,Vert,0,9,0,0,,,0,AM,653.4,0.31,0,0,5,3000,4,,,0,L among T,184
vs12,am,4,2,08Feb2013,1058,mixed,500,400,2000,7,32,0.331263231951,0,L,8,a,1,419,,,,,,,,,A,1548,1,Rouge,0,4,0,0,,,0,AM,647,0.32,0,0,5,3000,4,,,0,L among T,185
vs12,am,4,2,08Feb2013,1016,Ent1,500,400,2000,1,10,5.16455340772,0,L,16,z,0,366,,,,,,,,,,,,Rouge,0,8,0,0,,,0,AM,1043,0.32,0,0,3,3000,2,,,0,L among T,186
vs12,am,4,2,08Feb2013,1045,mixed,500,400,2000,5,6,5.92023246874,0,X,8,a,1,425,,,,,,,,,A,1595,1,Rouge,0,5,0,0,,,0,AM,1646,0.32,0,0,2,3000,1,,,0,X among T,187
vs12,am,4,2,08Feb2013,1100,mixed,500,400,2000,8,11,3.26944133718,1,X,16,z,1,572,,,,,,,,,A,765,1,Vert,0,6,0,0,,,0,AM,1712,0.32,0,0,2,3000,1,,,0,X among T,188
vs12,am,4,2,08Feb2013,1046,mixed,500,400,2000,5,19,1.19089839997,0,L,16,z,1,628,,,,,,,,,D,1380,8,Vert,0,2,0,0,,,0,AM,1118.33,0.32,0,0,3,3000,2,,,0,L among T,189
vs12,am,4,2,08Feb2013,1039,mixed,500,400,2000,3,26,5.89552442912,0,X,8,z,1,639,,,,,,,,,A,1327,3,Vert,0,2,0,0,,,0,AM,1301.67,0.32,0,0,3,3000,2,,,0,X among T,190
vs12,am,4,2,08Feb2013,1100,mixed,500,400,2000,8,12,0.191994555601,0,X,8,z,1,1234,,,,,,,,,A,730,1,Vert,0,3,0,0,,,0,AM,809.5,0.32,0,0,4,3000,3,,,0,X among T,191
vs12,am,4,2,08Feb2013,1042,mixed,500,400,2000,4,12,2.4118141015,0,L,4,a,1,448,,,,,,,,,A,2339,1,Rouge,0,3,0,0,,,0,AM,665,0.33,0,0,5,3000,4,,,0,L among T,192
vs12,am,4,2,08Feb2013,1043,mixed,500,400,2000,4,28,5.91343307881,0,X,8,z,1,572,,,,,,,,,A,1219,2,Vert,0,5,0,0,,,0,AM,752,0.33,0,0,4,3000,3,,,0,X among T,193
vs12,am,4,2,08Feb2013,1102,mixed,500,400,2000,8,30,4.09455663479,0,X,16,z,1,736,,,,,,,,,A,768,0,Vert,0,13,0,0,,,0,AM,1122,0.33,0,0,3,3000,2,,,0,X among T,194
vs12,am,4,2,08Feb2013,1102,mixed,500,400,2000,8,27,1.21390183514,0,L,4,a,1,285,,,,,,,,,A,704,1,Rouge,0,1,0,0,,,0,AM,1614,0.33,0,0,2,3000,1,,,0,L among T,195
vs12,am,4,2,08Feb2013,1102,mixed,500,400,2000,8,33,3.27159611389,1,L,8,z,1,372,,,,,,,,,A,1272,1,Vert,0,7,0,0,,,0,AM,1111.67,0.33,0,0,3,3000,2,,,0,L among T,196
vs12,am,4,2,08Feb2013,1056,mixed,500,400,2000,7,8,3.93295715811,0,L,4,z,1,333,,,,,,,,,A,1239,3,Vert,0,3,0,0,,,0,AM,1641.5,0.33,0,0,2,3000,1,,,0,L among T,197
vs12,am,4,2,08Feb2013,1029,mixed,500,400,2000,1,19,4.65754594113,0,X,4,z,1,356,,,,,,,,,A,2419,3,Vert,0,1,0,0,,,0,AM,1791.5,0.33,0,0,2,3000,1,,,0,X among T,198
vs12,am,4,2,08Feb2013,1019,Ent1,500,400,2000,1,8,6.20240808386,1,X,16,z,1,433,,,,,,,,,,,,Vert,0,6,0,0,,,0,AM,792.8,0.33,0,0,5,3000,4,,,0,X among T,199
vs12,am,4,2,08Feb2013,1019,Ent1,500,400,2000,1,9,4.87146579025,1,X,8,z,1,417,,,,,,,,,,,,Vert,0,1,0,0,,,0,AM,802.75,0.33,0,0,4,3000,3,,,0,X among T,200
vs12,am,4,2,08Feb2013,1047,mixed,500,400,2000,5,26,6.10596073486,0,X,16,0,0,,,,,,,,,,,,Rouge,0,9,0,0,,,0,0,AM,566,0.34,1,0,4,2475,3,,,0,X among T,201
vs12,am,4,2,08Feb2013,1043,mixed,500,400,2000,4,26,4.32502869049,1,L,4,a,1,1167,,,,,,,,,A,1129,3,Rouge,0,3,0,0,,,0,AM,1202,0.34,0,0,3,3000,2,,,0,L among T,202
vs12,am,4,2,08Feb2013,1100,mixed,500,400,2000,8,9,3.20245188323,0,X,8,z,1,357,,,,,,,,,A,697,1,Vert,0,2,0,0,,,0,AM,1073.67,0.34,0,0,3,3000,2,,,0,X among T,203
vs12,am,4,2,08Feb2013,1019,Ent1,500,400,2000,1,1,2.19583796785,0,L,8,z,1,344,,,,,,,,,,,,Vert,0,5,0,0,,,0,AM,1092.67,0.34,0,0,3,3000,2,,,0,L among T,204
vs12,am,4,2,08Feb2013,1047,mixed,500,400,2000,5,28,2.87971492252,0,L,8,z,1,865,,,,,,,,,A,2057,3,Vert,0,4,0,0,,,0,AM,1274,0.35,0,0,3,3000,2,,,0,L among T,205
vs12,am,4,2,08Feb2013,1043,mixed,500,400,2000,4,24,6.20767056195,1,X,8,a,1,396,,,,,,,,,A,1325,1,Rouge,0,8,0,0,,,0,AM,1493,0.35,0,0,2,3000,2,,,0,X among T,206
vs12,am,4,2,08Feb2013,1101,mixed,500,400,2000,8,18,4.2899712539,1,L,4,z,1,388,,,,,,,,,A,811,0,Vert,0,1,0,0,,,0,AM,1623,0.35,0,0,2,3000,1,,,0,L among T,207
vs12,am,4,2,08Feb2013,1052,mixed,500,400,2000,6,23,5.85544238166,0,L,16,a,0,905,,,,,,,,,D,1292,9,Vert,0,11,0,0,,,0,AM,2070,0.35,0,0,2,3000,1,,,0,L among T,208
vs12,am,4,2,08Feb2013,1035,mixed,500,400,2000,2,34,4.54981669671,0,X,8,a,1,351,,,,,,,,,A,1234,1,Rouge,0,7,0,0,,,0,AM,1660.5,0.35,0,0,2,3000,1,,,0,X among T,209
vs12,am,4,2,08Feb2013,1029,mixed,500,400,2000,1,13,4.22936399277,1,X,16,z,1,371,,,,,,,,,A,1485,0,Vert,0,9,0,0,,,0,AM,1180,0.36,0,0,3,3000,2,,,0,X among T,210
vs12,am,4,2,08Feb2013,1025,Ent2,500,400,2000,1,11,2.54796513872,1,X,4,z,1,675,,,,,,,,,A,2395,2,Vert,0,2,0,0,,,0,AM,1191,0.36,0,0,3,3000,2,,,0,X among T,211
vs12,am,4,2,08Feb2013,1017,Ent1,500,400,2000,1,1,1.10773070796,0,L,8,N,0,1000,,,,,,,,,,,,Rouge,0,6,0,0,,,0,AM,1693,0.36,0,0,2,3000,1,,,0,L among T,212
vs12,am,4,2,08Feb2013,1033,mixed,500,400,2000,2,17,3.69876461298,0,L,4,z,1,341,,,,,,,,,A,2300,1,Vert,0,4,0,0,,,0,AM,1774,0.36,0,0,2,3000,1,,,0,L among T,213
vs12,am,4,2,08Feb2013,1037,mixed,500,400,2000,3,4,2.89072012552,0,X,16,a,1,384,,,,,,,,,A,1104,0,Rouge,0,11,0,0,,,0,AM,1070.67,0.36,0,0,3,3000,2,,,0,X among T,214
vs12,am,4,2,08Feb2013,1050,mixed,500,400,2000,6,1,6.20505723639,0,X,4,z,1,498,,,,,,,,,A,4519,1,Vert,0,1,0,0,,,0,AM,1257.67,0.36,0,0,3,3000,2,,,0,X among T,215
vs12,am,4,2,08Feb2013,1032,mixed,500,400,2000,2,5,0.739785402628,0,X,8,z,1,396,,,,,,,,,A,1793,1,Vert,0,2,0,0,,,0,AM,1614.5,0.36,0,0,2,3000,1,,,0,X among T,216
vs12,am,4,2,08Feb2013,1056,mixed,500,400,2000,7,11,3.57929745713,1,X,8,z,1,803,,,,,,,,,B,1417,4,Vert,0,8,0,0,,,0,AM,800.5,0.36,0,0,4,3000,3,,,0,X among T,217
vs12,am,4,2,08Feb2013,1046,mixed,500,400,2000,5,11,1.47226183675,0,X,4,a,1,348,,,,,,,,,A,1340,1,Rouge,0,1,0,0,,,0,AM,814.5,0.36,0,0,4,3000,3,,,0,X among T,218
vs12,am,4,2,08Feb2013,1051,mixed,500,400,2000,6,17,1.62397632652,0,L,4,z,1,711,,,,,,,,,A,1036,3,Vert,0,2,0,0,,,0,AM,815.5,0.36,0,0,4,3000,3,,,0,L among T,219
vs12,am,4,2,08Feb2013,1043,mixed,500,400,2000,4,30,1.47714536018,1,L,16,a,1,643,,,,,,,,,B,1002,5,Rouge,0,9,0,0,,,0,AM,1090,0.37,0,0,3,3000,2,,,0,L among T,220
vs12,am,4,2,08Feb2013,1018,Ent1,500,400,2000,1,5,2.6578000779,1,L,8,a,1,432,,,,,,,,,,,,Rouge,0,7,0,0,,,0,AM,1329,0.37,0,0,3,3000,2,,,0,L among T,221
vs12,am,4,2,08Feb2013,1037,mixed,500,400,2000,3,5,0.330841274127,0,L,8,a,1,560,,,,,,,,,B,1099,4,Rouge,0,4,0,0,,,0,AM,1109.67,0.37,0,0,3,3000,2,,,0,L among T,222
vs12,am,4,2,08Feb2013,1048,mixed,500,400,2000,5,35,5.05776201211,1,X,8,a,1,337,,,,,,,,,B,1976,4,Rouge,0,4,0,0,,,0,AM,1655.5,0.37,0,0,2,3000,1,,,0,X among T,223
vs12,am,4,2,08Feb2013,1042,mixed,500,400,2000,4,17,5.16361893216,1,L,16,a,1,417,,,,,,,,,C,1271,6,Rouge,0,16,0,0,,,0,AM,1697.5,0.37,0,0,2,3000,1,,,0,L among T,224
vs12,am,4,2,08Feb2013,1051,mixed,500,400,2000,6,14,0.793199780779,1,X,4,a,1,1064,,,,,,,,,A,794,1,Rouge,0,1,0,0,,,0,AM,1778.5,0.37,0,0,2,3000,1,,,0,X among T,225
vs12,am,4,2,08Feb2013,1050,mixed,500,400,2000,6,6,0.204390379635,0,L,16,a,1,954,,,,,,,,,D,2101,8,Rouge,0,12,0,0,,,0,AM,904.25,0.37,0,0,4,3000,3,,,0,L among T,226
vs12,am,4,2,08Feb2013,1017,Ent1,500,400,2000,1,3,5.6885659623,1,X,4,z,1,659,,,,,,,,,,,,Vert,0,2,0,0,,,0,AM,992,0.38,0,0,3,3000,2,,,0,X among T,227
vs12,am,4,2,08Feb2013,1042,mixed,500,400,2000,4,10,1.72487272149,1,L,16,z,1,789,,,,,,,,,C,1341,6,Vert,0,8,0,0,,,0,AM,1647,0.38,0,0,2,3000,1,,,0,L among T,228
vs12,am,4,2,08Feb2013,1102,mixed,500,400,2000,8,28,5.59321295591,1,X,16,a,1,853,,,,,,,,,A,1129,3,Rouge,0,13,0,0,,,0,AM,1099.33,0.38,0,0,3,3000,2,,,0,X among T,229
vs12,am,4,2,08Feb2013,1028,mixed,500,400,2000,1,11,0.102702033663,0,X,8,z,1,499,,,,,,,,,C,1790,6,Vert,0,8,0,0,,,0,AM,1623.5,0.38,0,0,2,3000,1,,,0,X among T,230
vs12,am,4,2,08Feb2013,1046,mixed,500,400,2000,5,12,0.36698747867,1,L,16,a,1,607,,,,,,,,,A,1853,2,Rouge,0,7,0,0,,,0,AM,1690.5,0.38,0,0,2,3000,1,,,0,L among T,231
vs12,am,4,2,08Feb2013,1046,mixed,500,400,2000,5,14,2.44254880939,1,L,16,z,0,861,,,,,,,,,D,2256,8,Rouge,0,5,0,0,,,0,AM,597.6,0.38,2,0,5,3000,4,,,0,L among T,232
vs12,am,4,2,08Feb2013,1034,mixed,500,400,2000,2,21,1.54763970752,1,L,8,z,1,464,,,,,,,,,A,872,1,Vert,0,8,0,0,,,0,AM,642.2,0.38,0,0,5,3000,4,,,0,L among T,233
vs12,am,4,2,08Feb2013,1039,mixed,500,400,2000,3,28,0.489918964125,1,X,16,a,1,599,,,,,,,,,C,928,6,Rouge,0,12,0,0,,,0,AM,815.5,0.38,0,0,4,3000,3,,,0,X among T,234
vs12,am,4,2,08Feb2013,1042,mixed,500,400,2000,4,19,4.37100430853,1,L,8,z,1,439,,,,,,,,,A,1635,3,Vert,0,6,0,0,,,0,AM,1701,0.39,0,0,2,3000,1,,,0,L among T,235
vs12,am,4,2,08Feb2013,1032,mixed,500,400,2000,2,4,5.72460877186,0,X,8,z,1,355,,,,,,,,,A,1071,0,Vert,0,1,0,0,,,0,AM,1792,0.39,0,0,2,3000,1,,,0,X among T,236
vs12,am,4,2,08Feb2013,1052,mixed,500,400,2000,6,21,3.35270648968,1,L,16,a,1,582,,,,,,,,,D,857,9,Rouge,0,5,0,0,,,0,AM,1086.67,0.39,0,0,3,3000,2,,,0,L among T,237
vs12,am,4,2,08Feb2013,1057,mixed,500,400,2000,7,30,2.21037500027,0,L,8,z,1,371,,,,,,,,,A,653,3,Vert,0,1,0,0,,,0,AM,1643.5,0.39,0,0,2,3000,1,,,0,L among T,238
vs12,am,4,2,08Feb2013,1044,mixed,500,400,2000,4,36,1.70144563647,0,L,8,z,1,393,,,,,,,,,A,1648,3,Vert,0,5,0,0,,,0,AM,1092,0.4,0,0,3,3000,2,,,0,L among T,239
vs12,am,4,2,08Feb2013,1019,Ent1,500,400,2000,1,11,0.337907023822,0,X,8,z,1,499,,,,,,,,,,,,Vert,0,3,0,0,,,0,AM,1101,0.4,0,0,3,3000,2,,,0,X among T,240
vs12,am,4,2,08Feb2013,1057,mixed,500,400,2000,7,26,5.56346477431,1,L,4,a,1,1028,,,,,,,,,A,1978,3,Rouge,0,3,0,0,,,0,AM,1193,0.4,0,0,3,3000,2,,,0,L among T,241
vs12,am,4,2,08Feb2013,1033,mixed,500,400,2000,2,16,4.57040350307,1,X,16,z,1,424,,,,,,,,,A,1078,2,Vert,0,2,0,0,,,0,AM,1662,0.4,0,0,2,3000,1,,,0,X among T,242
vs12,am,4,2,08Feb2013,1044,mixed,500,400,2000,4,35,1.22314684279,1,X,16,a,0,978,,,,,,,,,B,1131,5,Vert,0,11,0,0,,,0,AM,1126.33,0.4,0,0,3,3000,2,,,0,X among T,243
vs12,am,4,2,08Feb2013,1017,Ent1,500,400,2000,1,5,4.98191972868,1,L,8,z,1,819,,,,,,,,,,,,Vert,0,2,0,0,,,0,AM,1406.33,0.4,1,0,3,3000,2,,,0,L among T,244
vs12,am,4,2,08Feb2013,1038,mixed,500,400,2000,3,19,1.72713461735,1,L,8,z,1,378,,,,,,,,,A,2208,1,Vert,0,3,0,0,,,0,AM,1614.5,0.4,0,0,2,3000,1,,,0,L among T,245
vs12,am,4,2,08Feb2013,1034,mixed,500,400,2000,2,24,2.23009983296,0,X,16,a,1,627,,,,,,,,,D,1378,8,Rouge,0,10,0,0,,,0,AM,831,0.42,0,0,4,3000,3,,,0,X among T,246
vs12,am,4,2,08Feb2013,1101,mixed,500,400,2000,8,15,4.01932786701,1,X,4,a,1,340,,,,,,,,,A,1018,0,Rouge,0,4,0,0,,,0,AM,1627,0.42,0,0,2,3000,1,,,0,X among T,247
vs12,am,4,2,08Feb2013,1029,mixed,500,400,2000,1,12,3.2533955078,1,L,4,a,1,342,,,,,,,,,A,2061,2,Rouge,0,4,0,0,,,0,AM,1778,0.42,0,0,2,3000,1,,,0,L among T,248
vs12,am,4,2,08Feb2013,1041,mixed,500,400,2000,4,1,4.01168962434,0,X,8,z,1,536,,,,,,,,,A,1658,1,Vert,0,8,0,0,,,0,AM,1029.33,0.42,1,0,3,3000,2,,,0,X among T,249
vs12,am,4,2,08Feb2013,1056,mixed,500,400,2000,7,16,4.76814513175,0,L,4,z,1,268,,,,,,,,,A,673,1,Vert,0,2,0,0,,,0,AM,1073.33,0.42,0,0,3,3000,2,,,0,L among T,250
vs12,am,4,2,08Feb2013,1028,mixed,500,400,2000,1,9,3.226500403,1,X,16,z,1,454,,,,,,,,,C,1468,7,Vert,0,4,0,0,,,0,AM,1222.33,0.42,0,0,3,3000,2,,,0,X among T,251
vs12,am,4,2,08Feb2013,1033,mixed,500,400,2000,2,10,1.54509315804,1,L,8,a,1,397,,,,,,,,,A,971,2,Rouge,0,8,0,0,,,0,AM,536.6,0.42,2,0,5,3000,4,,,0,L among T,252
vs12,am,4,2,08Feb2013,1018,Ent1,500,400,2000,1,10,1.30197677251,0,L,16,a,0,314,,,,,,,,,,,,Vert,0,12,0,0,,,0,AM,802.25,0.42,0,0,4,3000,3,,,0,L among T,253
vs12,am,4,2,08Feb2013,1025,Ent2,500,400,2000,1,12,2.35566527651,0,X,4,z,1,505,,,,,,,,,A,1859,1,Vert,0,2,0,0,,,0,AM,1871.5,0.43,0,0,2,3000,1,,,0,X among T,254
vs12,am,4,2,08Feb2013,1029,mixed,500,400,2000,1,14,2.08761428883,0,L,8,a,1,625,,,,,,,,,C,2018,6,Rouge,0,6,0,0,,,0,AM,592.17,0.44,0,0,6,3000,5,,,0,L among T,255
vs12,am,4,2,08Feb2013,1101,mixed,500,400,2000,8,21,3.15161030098,0,X,16,z,1,902,,,,,,,,,A,782,3,Vert,0,6,0,0,,,0,AM,1294,0.45,0,0,3,3000,2,,,0,X among T,256
vs12,am,4,2,08Feb2013,1032,mixed,500,400,2000,2,3,0.218071263541,1,L,4,z,1,294,,,,,,,,,A,1578,1,Vert,0,2,0,0,,,0,AM,1074,0.46,0,0,3,3000,2,,,0,L among T,257
vs12,am,4,2,08Feb2013,1046,mixed,500,400,2000,5,15,4.66429853892,1,L,4,a,1,509,,,,,,,,,A,1273,2,Rouge,0,4,0,0,,,0,AM,1707,0.46,0,0,2,3000,1,,,0,L among T,258
vs12,am,4,2,08Feb2013,1017,Ent1,500,400,2000,1,9,4.42664170533,1,X,8,z,1,343,,,,,,,,,,,,Vert,0,5,0,0,,,0,AM,1937.5,0.46,0,0,2,3000,1,,,0,X among T,259
vs12,am,4,2,08Feb2013,1102,mixed,500,400,2000,8,32,1.8381605306,0,X,4,z,1,1302,,,,,,,,,A,946,1,Vert,0,3,0,0,,,0,AM,539.17,0.46,0,0,6,3000,5,,,0,X among T,260
vs12,am,4,2,08Feb2013,1025,Ent2,500,400,2000,1,8,6.11683297238,1,L,4,a,0,349,,,,,,,,,A,2868,2,Vert,0,1,0,0,,,0,AM,1791,0.47,0,0,2,3000,1,,,0,L among T,261
vs12,am,4,2,08Feb2013,1057,mixed,500,400,2000,7,28,3.36296719797,0,X,16,a,1,707,,,,,,,,,A,809,1,Rouge,0,10,0,0,,,0,AM,1145.67,0.47,0,0,3,3000,2,,,0,X among T,262
vs12,am,4,2,08Feb2013,1100,mixed,500,400,2000,8,7,4.31657969082,0,L,4,z,1,447,,,,,,,,,A,1005,2,Vert,0,4,0,0,,,0,AM,735.8,0.47,0,0,5,3000,4,,,0,L among T,263
vs12,am,4,2,08Feb2013,1028,mixed,500,400,2000,1,4,5.79791697414,0,L,8,z,0,1223,,,,,,,,,C,2050,6,Rouge,0,3,0,0,,,0,AM,1741.5,0.48,1,0,2,3000,1,,,0,L among T,264
vs12,am,4,2,08Feb2013,1033,mixed,500,400,2000,2,9,0.532134511988,0,X,16,z,1,433,,,,,,,,,B,1019,4,Vert,0,3,0,0,,,0,AM,1681,0.49,0,0,2,3000,1,,,0,X among T,265
vs12,am,4,2,08Feb2013,1028,mixed,500,400,2000,1,5,0.423837854467,1,L,16,z,1,499,,,,,,,,,A,1719,3,Vert,0,2,0,0,,,0,AM,1883,0.49,0,0,2,3000,1,,,0,L among T,266
vs12,am,4,2,08Feb2013,1041,mixed,500,400,2000,4,9,4.07510866355,1,L,4,a,1,395,,,,,,,,,A,1813,2,Rouge,0,1,0,0,,,0,AM,1231.67,0.49,0,0,3,3000,2,,,0,L among T,267
vs12,am,4,2,08Feb2013,1028,mixed,500,400,2000,1,7,2.2516398258,0,X,16,z,1,1037,,,,,,,,,C,2118,6,Vert,0,16,0,0,,,0,AM,1278.67,0.49,0,0,3,3000,2,,,0,X among T,268
vs12,am,4,2,08Feb2013,1017,Ent1,500,400,2000,1,6,6.00470502879,0,X,16,z,1,551,,,,,,,,,,,,Vert,0,6,0,0,,,0,AM,722.75,0.49,1,0,4,3000,3,,,0,X among T,269
vs12,am,4,2,08Feb2013,1019,Ent1,500,400,2000,1,3,5.99356292485,1,X,4,a,1,354,,,,,,,,,,,,Rouge,0,2,0,0,,,0,AM,940.25,0.49,1,0,4,3000,3,,,0,X among T,270
vs12,am,4,2,08Feb2013,1018,Ent1,500,400,2000,1,9,5.18992778201,1,X,8,a,1,423,,,,,,,,,,,,Rouge,0,1,0,0,,,0,AM,656,0.5,0,0,6,3000,5,,,0,X among T,271
vs12,am,4,2,08Feb2013,1018,Ent1,500,400,2000,1,7,2.08126088034,1,L,4,a,1,409,,,,,,,,,,,,Rouge,0,4,0,0,,,0,AM,1219,0.52,1,0,3,3000,2,,,0,L among T,272
vs12,am,4,2,08Feb2013,1101,mixed,500,400,2000,8,22,1.44837422068,1,X,16,z,1,326,,,,,,,,,A,804,0,Vert,0,6,0,0,,,0,AM,760.75,0.53,0,0,4,3000,3,,,0,X among T,273
vs12,am,4,2,08Feb2013,1018,Ent1,500,400,2000,1,2,3.66455505215,0,X,4,a,1,437,,,,,,,,,,,,Rouge,0,1,0,0,,,0,AM,1926.5,0.54,0,0,2,3000,1,,,0,X among T,274
vs12,am,4,2,08Feb2013,1018,Ent1,500,400,2000,1,11,5.03437929959,0,X,8,0,0,,,,,,,,,,,,Rouge,0,1,0,0,,,0,0,AM,403.5,0.54,1,0,2,1276,1,,,0,X among T,275
vs12,am,4,2,08Feb2013,1047,mixed,500,400,2000,5,22,4.35284027395,1,X,16,a,1,451,,,,,,,,,C,730,6,Rouge,0,6,0,0,,,0,AM,452.14,0.54,0,0,7,3000,6,,,0,X among T,276
vs12,am,4,2,08Feb2013,1057,mixed,500,400,2000,7,21,3.28510662684,1,L,4,z,1,344,,,,,,,,,A,1533,0,Vert,0,4,0,0,,,0,AM,536.67,0.54,0,0,6,3000,5,,,0,L among T,277
vs12,am,4,2,08Feb2013,1016,Ent1,500,400,2000,1,9,3.04809273521,1,X,8,N,0,1000,,,,,,,,,,,,Vert,0,1,0,0,,,0,AM,1664.5,0.55,0,0,2,3000,1,,,0,X among T,278
vs12,am,4,2,08Feb2013,1043,mixed,500,400,2000,4,21,3.36424355464,0,X,4,a,1,410,,,,,,,,,A,1395,1,Rouge,0,1,0,0,,,0,AM,914,0.56,0,0,4,3000,3,,,0,X among T,279
vs12,am,4,2,08Feb2013,1031,mixed,500,400,2000,1,32,3.68319742907,0,X,8,z,1,584,,,,,,,,,B,1656,4,Vert,0,4,0,0,,,0,AM,1693.5,0.56,0,0,2,3000,1,,,0,X among T,280
vs12,am,4,2,08Feb2013,1057,mixed,500,400,2000,7,22,3.78236089154,0,X,16,a,1,610,,,,,,,,,A,1507,2,Rouge,0,5,0,0,,,0,AM,542,0.57,0,0,6,3000,5,,,0,X among T,281
vs12,am,4,2,08Feb2013,1039,mixed,500,400,2000,3,24,3.77578819608,0,L,4,z,1,379,,,,,,,,,A,2135,1,Vert,0,3,0,0,,,0,AM,1013.67,0.57,0,0,3,3000,2,,,0,L among T,282
vs12,am,4,2,08Feb2013,1035,mixed,500,400,2000,2,31,4.01952205889,1,L,16,a,1,1001,,,,,,,,,B,1431,4,Rouge,0,10,0,0,,,0,AM,556,0.6,0,0,6,3000,5,,,0,L among T,283
vs12,am,4,2,08Feb2013,1047,mixed,500,400,2000,5,20,0.129421151453,0,L,8,a,1,459,,,,,,,,,C,1477,6,Rouge,0,8,0,0,,,0,AM,1623.5,0.61,0,0,2,3000,1,,,0,L among T,284
vs12,am,4,2,08Feb2013,1051,mixed,500,400,2000,6,16,5.66382285167,1,X,16,z,1,1440,,,,,,,,,C,2316,6,Vert,0,4,0,0,,,0,AM,859.25,0.62,0,0,4,3000,3,,,0,X among T,285
vs12,am,4,2,08Feb2013,1048,mixed,500,400,2000,5,32,1.32672972142,1,L,8,a,1,1108,,,,,,,,,A,2135,3,Rouge,0,6,0,0,,,0,AM,563.5,0.63,0,0,6,3000,5,,,0,L among T,286
vs12,am,4,2,08Feb2013,1051,mixed,500,400,2000,6,9,1.31835091745,1,L,16,z,1,746,,,,,,,,,D,1209,8,Vert,0,16,0,0,,,0,AM,810.25,0.63,1,0,4,3000,3,,,0,L among T,287
vs12,am,4,2,08Feb2013,1025,Ent2,500,400,2000,1,5,1.15889181159,0,L,16,0,0,,,,,,,,,,,,Vert,0,1,0,0,,,0,0,AM,924.67,0.63,1,0,3,2919,2,,,0,L among T,288
vs12,am,4,2,08Feb2013,1034,mixed,500,400,2000,2,22,2.47146386053,1,L,16,a,1,743,,,,,,,,,C,1083,6,Rouge,0,6,0,0,,,0,AM,1166.33,0.64,0,0,3,3000,2,,,0,L among T,289
vs12,am,4,2,08Feb2013,1100,mixed,500,400,2000,8,13,4.84094146129,0,L,16,a,1,894,,,,,,,,,D,643,8,Rouge,0,14,0,0,,,0,AM,747,0.65,0,0,4,3000,3,,,0,L among T,290
vs12,am,4,2,08Feb2013,1019,Ent1,500,400,2000,1,12,2.48676254332,1,L,16,a,1,441,,,,,,,,,,,,Rouge,0,10,0,0,,,0,AM,940,0.66,0,0,4,3000,3,,,0,L among T,291
vs12,am,4,2,08Feb2013,1015,Ent1,500,400,2000,1,2,5.75160282682,0,X,4,a,1,1113,,,,,,,,,,,,Rouge,0,3,0,0,,,0,AM,1121.33,0.66,0,0,3,3000,2,,,0,X among T,292
vs12,am,4,2,08Feb2013,1051,mixed,500,400,2000,6,10,4.32794178836,0,X,4,a,1,465,,,,,,,,,A,5832,2,Rouge,0,4,0,0,,,0,AM,417.29,0.66,2,0,7,3000,6,,,0,X among T,293
vs12,am,4,2,08Feb2013,1033,mixed,500,400,2000,2,15,4.76725015447,0,L,16,z,1,847,,,,,,,,,D,899,9,Vert,0,8,0,0,,,0,AM,635,0.68,1,0,5,3000,4,,,0,L among T,294
vs12,am,4,2,08Feb2013,1019,Ent1,500,400,2000,1,10,5.60658160313,0,L,16,z,1,354,,,,,,,,,,,,Vert,0,10,0,0,,,0,AM,1243,0.69,1,0,3,3000,2,,,0,L among T,295
vs12,am,4,2,08Feb2013,1019,Ent1,500,400,2000,1,7,3.05589675437,1,L,4,z,1,466,,,,,,,,,,,,Vert,0,3,0,0,,,0,AM,1074,0.7,0,0,3,3000,2,,,0,L among T,296
vs12,am,4,2,08Feb2013,1101,mixed,500,400,2000,8,16,0.308109533743,1,X,4,z,1,1258,,,,,,,,,A,1849,2,Vert,0,4,0,0,,,0,AM,913,0.73,0,0,4,3000,3,,,0,X among T,297
vs12,am,4,2,08Feb2013,1030,mixed,500,400,2000,1,29,2.18410586948,0,X,16,a,1,528,,,,,,,,,A,1465,3,Rouge,0,5,0,0,,,0,AM,802.5,0.75,0,0,4,3000,3,,,0,X among T,298
vs12,am,4,2,08Feb2013,1050,mixed,500,400,2000,6,8,5.75767664505,1,X,16,a,1,843,,,,,,,,,C,1714,6,Rouge,0,5,0,0,,,0,AM,929.25,0.82,0,0,4,3000,3,,,0,X among T,299
vs12,am,4,2,08Feb2013,1058,mixed,500,400,2000,7,33,2.85451368427,0,L,8,z,1,273,,,,,,,,,A,810,1,Vert,0,1,0,0,,,0,AM,636.2,0.86,0,0,5,3000,4,,,0,L among T,300
vs12,am,4,2,08Feb2013,1101,mixed,500,400,2000,8,14,0.718057587152,1,L,4,a,1,530,,,,,,,,,A,1323,1,Rouge,0,2,0,0,,,0,AM,833,0.88,0,0,4,3000,3,,,0,L among T,301
vs12,am,4,2,08Feb2013,1101,mixed,500,400,2000,8,17,4.11477238,1,L,8,a,1,830,,,,,,,,,D,1311,9,Rouge,0,3,0,0,,,0,AM,1783,0.89,0,0,2,3000,1,,,0,L among T,302
vs12,am,4,2,08Feb2013,1101,mixed,500,400,2000,8,19,0.509393691691,1,X,8,a,1,424,,,,,,,,,B,1364,5,Rouge,0,5,0,0,,,0,AM,1081.33,0.91,0,0,3,3000,2,,,0,X among T,303
vs12,am,4,2,08Feb2013,1053,mixed,500,400,2000,6,32,2.42708950147,0,X,16,a,1,689,,,,,,,,,A,2566,3,Rouge,0,15,0,0,,,0,AM,637.2,0.96,1,0,5,3000,4,,,0,X among T,304
vs12,am,4,2,08Feb2013,1030,mixed,500,400,2000,1,24,2.13811330052,0,L,4,z,1,625,,,,,,,,,A,985,1,Vert,0,1,0,0,,,0,AM,639.2,1.01,0,0,5,3000,4,,,0,L among T,305
vs12,am,4,2,08Feb2013,1019,Ent1,500,400,2000,1,6,5.71742485459,0,X,16,a,1,379,,,,,,,,,,,,Rouge,0,8,0,0,,,0,AM,644.83,1.03,0,0,6,3000,5,,,0,X among T,306
vs12,am,4,2,08Feb2013,1051,mixed,500,400,2000,6,13,5.64733478925,1,X,16,z,1,690,,,,,,,,,A,816,1,Vert,0,5,0,0,,,0,AM,1873.5,1.04,1,0,2,3000,1,,,0,X among T,307
vs12,am,4,2,08Feb2013,1033,mixed,500,400,2000,2,18,0.919063123852,1,X,8,a,1,929,,,,,,,,,A,1274,3,Rouge,0,5,0,0,,,0,AM,758.6,1.04,0,0,5,3000,4,,,0,X among T,308
vs12,am,4,2,08Feb2013,1057,mixed,500,400,2000,7,25,0.685392475234,0,L,4,a,1,551,,,,,,,,,A,1299,3,Rouge,0,3,0,0,,,0,AM,821.5,1.05,0,0,4,3000,3,,,0,L among T,309
vs12,am,4,2,08Feb2013,1102,mixed,500,400,2000,8,29,5.65003344618,0,X,8,a,1,308,,,,,,,,,A,3882,1,Rouge,0,7,0,0,,,0,AM,1003.67,1.09,1,0,3,3000,2,,,0,X among T,310
vs12,am,4,2,08Feb2013,1056,mixed,500,400,2000,7,19,2.8930002711,0,L,16,z,1,712,,,,,,,,,D,1018,8,Vert,0,10,0,0,,,0,AM,527,1.14,0,0,6,3000,5,,,0,L among T,311
vs12,am,4,2,08Feb2013,1046,mixed,500,400,2000,5,16,1.39601221686,0,L,16,z,1,560,,,,,,,,,D,1018,8,Vert,0,9,0,0,,,0,AM,433.71,1.19,1,0,7,3000,6,,,0,L among T,312
vs12,am,4,2,08Feb2013,1029,mixed,500,400,2000,1,15,5.73130418841,1,X,4,z,1,366,,,,,,,,,A,2984,1,Vert,0,3,0,0,,,0,AM,803.75,1.21,0,0,4,3000,3,,,0,X among T,313
vs12,am,4,2,08Feb2013,1058,mixed,500,400,2000,7,35,5.47748849597,1,X,16,z,1,342,,,,,,,,,A,783,1,Vert,0,8,0,0,,,0,AM,1078,1.28,0,0,3,3000,2,,,0,X among T,314
vs12,am,4,2,08Feb2013,1036,mixed,500,400,2000,3,1,5.21116507775,1,L,16,z,1,609,,,,,,,,,A,2333,3,Vert,0,8,0,0,,,0,AM,461,1.35,2,0,5,3000,4,,,0,L among T,315
vs12,am,4,2,08Feb2013,1052,mixed,500,400,2000,6,27,5.84486635854,0,X,16,z,1,1116,,,,,,,,,D,1082,8,Vert,0,6,0,0,,,0,AM,674.2,1.37,0,0,5,3000,4,,,0,X among T,316
vs12,am,4,2,08Feb2013,1018,Ent1,500,400,2000,1,12,0.935645305929,1,L,16,0,0,,,,,,,,,,,,Rouge,0,10,0,0,,,0,0,AM,223.86,1.46,1,0,7,1939,6,,,0,L among T,317
vs12,am,4,2,08Feb2013,1057,mixed,500,400,2000,7,24,4.46299516736,0,X,8,z,1,311,,,,,,,,,A,968,0,Vert,0,7,0,0,,,0,AM,878.25,1.46,0,0,4,3000,3,,,0,X among T,318
vs12,am,4,2,08Feb2013,1018,Ent1,500,400,2000,1,8,4.00687977446,1,X,16,z,1,621,,,,,,,,,,,,Vert,0,13,0,0,,,0,AM,457.5,1.57,1,0,6,3000,5,,,0,X among T,319
vs12,am,4,2,08Feb2013,1052,mixed,500,400,2000,6,25,3.83024326821,0,L,8,a,1,527,,,,,,,,,A,2907,2,Rouge,0,6,0,0,,,0,AM,345.11,1.65,0,0,9,3000,8,,,0,L among T,320
vs12,am,4,2,08Feb2013,1043,mixed,500,400,2000,4,29,3.91863354715,1,X,16,0,0,,,,,,,,,,,,Vert,0,12,0,0,,,0,0,AM,460,1.82,1,0,5,2564,4,,,0,X among T,321
vs12,am,4,2,08Feb2013,1034,mixed,500,400,2000,2,26,2.42261249446,0,X,4,z,1,326,,,,,,,,,A,2320,1,Vert,0,1,0,0,,,0,AM,607,1.85,1,0,5,3000,4,,,0,X among T,322
vs12,am,4,2,08Feb2013,1042,mixed,500,400,2000,4,15,5.24264579411,0,L,16,z,1,640,,,,,,,,,D,2489,8,Vert,0,9,0,0,,,0,AM,632.4,1.9,1,0,5,3000,4,,,0,L among T,323
vs12,am,4,2,08Feb2013,1016,Ent1,500,400,2000,1,12,3.97120516201,1,L,16,0,0,,,,,,,,,,,,Vert,0,12,0,0,,,0,0,AM,423.67,1.92,0,0,6,2749,5,,,0,L among T,324
vs12,am,4,2,08Feb2013,1030,mixed,500,400,2000,1,23,6.13200190566,1,L,16,z,1,1217,,,,,,,,,D,1728,8,Vert,0,13,0,0,,,0,AM,511.2,2.05,2,0,5,3000,5,,,0,L among T,325
vs12,am,4,2,08Feb2013,1052,mixed,500,400,2000,6,24,1.89106028361,1,L,16,0,0,,,,,,,,,,,,Vert,0,11,0,0,,,0,0,AM,170.86,2.08,1,0,7,1672,6,,,0,L among T,326
vs12,am,4,2,08Feb2013,1046,mixed,500,400,2000,5,18,2.81330172424,1,L,16,a,1,1236,,,,,,,,,D,1329,8,Rouge,0,15,0,0,,,0,AM,626,2.15,1,0,5,3000,4,,,0,L among T,327
vs12,am,4,2,08Feb2013,1030,mixed,500,400,2000,1,22,5.70305100792,0,X,16,a,0,1422,,,,,,,,,D,1601,8,Vert,0,2,0,0,,,0,AM,760.25,2.15,0,0,4,3000,3,,,0,X among T,328
vs12,am,4,2,08Feb2013,1048,mixed,500,400,2000,5,33,4.42775887427,1,X,16,a,1,359,,,,,,,,,C,1461,6,Rouge,0,10,0,0,,,0,AM,799.75,2.15,0,0,4,3000,3,,,0,X among T,329
vs12,am,4,2,08Feb2013,1019,Ent1,500,400,2000,1,5,1.88762314849,1,L,8,z,1,2994,,,,,,,,,,,,Vert,0,5,0,0,,,0,AM,340,2.2,2,0,9,3000,8,,,0,L among T,330
vs12,am,4,2,08Feb2013,1034,mixed,500,400,2000,2,25,1.81315792521,1,X,16,a,1,967,,,,,,,,,C,2759,6,Rouge,0,15,0,0,,,0,AM,423.57,2.29,1,0,7,3000,6,,,0,X among T,331
vs12,am,4,2,08Feb2013,1053,mixed,500,400,2000,6,36,1.29347770598,1,X,4,a,1,322,,,,,,,,,A,1163,1,Rouge,0,3,0,0,,,0,AM,736.25,2.54,1,0,4,3000,3,,,0,X among T,332
vs12,am,4,2,08Feb2013,1018,Ent1,500,400,2000,1,4,0.880473613636,0,L,4,a,1,466,,,,,,,,,,,,Rouge,0,2,0,0,,,0,AM,686,2.58,1,0,5,3000,4,,,0,L among T,333
vs12,am,4,2,08Feb2013,1047,mixed,500,400,2000,5,24,1.65022387439,0,L,4,a,1,509,,,,,,,,,B,1761,4,Rouge,0,4,0,0,,,0,AM,1128.33,2.58,0,0,3,3000,2,,,0,L among T,334
vs12,am,4,2,08Feb2013,1031,mixed,500,400,2000,1,33,4.83819918259,0,L,16,0,0,,,,,,,,,,,,Rouge,0,8,0,0,,,0,0,AM,425.67,2.75,1,0,3,1566,2,,,0,L among T,335
vs12,am,4,2,08Feb2013,1017,Ent1,500,400,2000,1,2,1.21504482117,0,X,4,a,1,325,,,,,,,,,,,,Rouge,0,1,0,0,,,0,AM,756.4,2.81,0,0,5,3000,4,,,0,X among T,336
vs12,am,4,2,08Feb2013,1038,mixed,500,400,2000,3,21,1.35006490768,1,L,16,a,1,674,,,,,,,,,A,1029,1,Rouge,0,11,0,0,,,0,AM,895.25,2.92,0,0,4,3000,3,,,0,L among T,337
vs12,ber,4,2,08Feb2013,1142,Ent1,500,400,2000,1,2,4.21249549081,0,X,16,0,0,,,,,,,,,,,,Vert,0,6,0,0,,,0,0,BER,623,0,0,0,1,637,0,,,0,X among T,338
vs12,ber,4,2,08Feb2013,1201,mixed,500,400,2000,2,36,3.65904923642,1,X,4,z,1,372,,,,,,,,,A,889,3,Vert,0,2,0,0,,,0,BER,3000,0,0,0,1,3000,0,,,0,X among T,339
vs12,ber,4,2,08Feb2013,1143,Ent1,500,400,2000,1,7,2.99080076616,1,X,8,a,1,151,,,,,,,,,,,,Rouge,0,8,0,0,,,0,BER,3000,0,0,0,1,3000,0,,,0,X among T,340
vs12,ber,4,2,08Feb2013,1219,mixed,500,400,2000,7,15,1.42336161456,1,L,16,z,1,398,,,,,,,,,D,970,9,Vert,0,14,0,0,,,0,BER,3000,0,0,0,1,3000,0,,,0,L among T,341
vs12,ber,4,2,08Feb2013,1153,mixed,500,400,2000,1,22,0.428648695988,1,X,4,a,1,296,,,,,,,,,A,709,1,Rouge,0,2,0,0,,,0,BER,3000,0,0,0,1,3000,0,,,0,X among T,342
vs12,ber,4,2,08Feb2013,1210,mixed,500,400,2000,5,3,1.74276968864,0,L,16,z,0,962,,,,,,,,,D,1020,8,Rouge,0,3,0,0,,,0,BER,3000,0,0,0,1,3000,0,,,0,L among T,343
vs12,ber,4,2,08Feb2013,1223,mixed,500,400,2000,8,22,4.62638500915,0,L,4,a,1,311,,,,,,,,,A,687,1,Rouge,0,2,0,0,,,0,BER,3000,0,0,0,1,3000,0,,,0,L among T,344
vs12,ber,4,2,08Feb2013,1210,mixed,500,400,2000,5,2,5.24213011484,0,L,4,a,1,313,,,,,,,,,A,793,1,Rouge,0,1,0,0,,,0,BER,3000,0,0,0,1,3000,0,,,0,L among T,345
vs12,ber,4,2,08Feb2013,1150,Ent2,500,400,2000,1,5,4.19795553922,1,L,16,z,1,448,,,,,,,,,C,7349,6,Vert,0,14,0,0,,,0,BER,3000,0,0,0,1,3000,0,,,0,L among T,346
vs12,ber,4,2,08Feb2013,1145,Ent1,500,400,2000,1,4,2.12700548574,1,X,4,a,1,241,,,,,,,,,,,,Rouge,0,3,0,0,,,0,BER,3000,0,0,0,1,3000,0,,,0,X among T,347
vs12,ber,4,2,08Feb2013,1203,mixed,500,400,2000,3,8,2.41292546118,1,L,16,z,1,300,,,,,,,,,A,721,1,Vert,0,14,0,0,,,0,BER,3000,0,0,0,1,3000,0,,,0,L among T,348
vs12,ber,4,2,08Feb2013,1216,mixed,500,400,2000,6,25,4.41756859361,1,L,16,z,1,480,,,,,,,,,D,1023,9,Vert,0,4,0,0,,,0,BER,3000,0,0,0,1,3000,0,,,0,L among T,349
vs12,ber,4,2,08Feb2013,1217,mixed,500,400,2000,6,34,3.95109773148,1,X,8,a,1,421,,,,,,,,,A,4158,0,Rouge,0,8,0,0,,,0,BER,3000,0,0,0,1,3000,0,,,0,X among T,350
vs12,ber,4,2,08Feb2013,1218,mixed,500,400,2000,7,2,5.99189594138,0,L,4,z,1,327,,,,,,,,,A,981,0,Vert,0,2,0,0,,,0,BER,3000,0,0,0,1,3000,0,,,0,L among T,351
vs12,ber,4,2,08Feb2013,1216,mixed,500,400,2000,6,29,3.98495039171,0,L,8,z,1,358,,,,,,,,,B,967,5,Vert,0,2,0,0,,,0,BER,3000,0,0,0,1,3000,0,,,0,L among T,352
vs12,ber,4,2,08Feb2013,1145,Ent1,500,400,2000,1,8,0.530045248142,0,L,4,a,1,246,,,,,,,,,,,,Rouge,0,4,0,0,,,0,BER,3000,0,0,0,1,3000,0,,,0,L among T,353
vs12,ber,4,2,08Feb2013,1222,mixed,500,400,2000,8,10,4.09691797948,0,X,16,z,1,425,,,,,,,,,A,1440,1,Vert,0,12,0,0,,,0,BER,3000,0,0,0,1,3000,0,,,0,X among T,354
vs12,ber,4,2,08Feb2013,1202,mixed,500,400,2000,3,4,0.055241248039,0,L,16,a,1,312,,,,,,,,,C,789,6,Rouge,0,6,0,0,,,0,BER,3000,0,0,0,1,3000,0,,,0,L among T,355
vs12,ber,4,2,08Feb2013,1208,mixed,500,400,2000,4,24,1.65740563526,1,L,8,a,1,317,,,,,,,,,A,1022,2,Rouge,0,5,0,0,,,0,BER,3000,0,0,0,1,3000,0,,,0,L among T,356
vs12,ber,4,2,08Feb2013,1214,mixed,500,400,2000,6,3,0.515347701979,0,L,8,a,1,272,,,,,,,,,A,1067,3,Rouge,0,1,0,0,,,0,BER,3000,0,0,0,1,3000,0,,,0,L among T,357
vs12,ber,4,2,08Feb2013,1215,mixed,500,400,2000,6,18,5.89174047416,1,X,16,a,1,296,,,,,,,,,A,1211,0,Rouge,0,3,0,0,,,0,BER,3000,0,0,0,1,3000,0,,,0,X among T,358
vs12,ber,4,2,08Feb2013,1218,mixed,500,400,2000,7,4,1.61814679067,0,L,4,a,1,305,,,,,,,,,A,1236,2,Rouge,0,2,0,0,,,0,BER,3000,0,0,0,1,3000,0,,,0,L among T,359
vs12,ber,4,2,08Feb2013,1223,mixed,500,400,2000,8,16,3.80615899069,1,X,8,a,1,386,,,,,,,,,B,2988,4,Rouge,0,3,0,0,,,0,BER,3000,0,0,0,1,3000,0,,,0,X among T,360
vs12,ber,4,2,08Feb2013,1224,mixed,500,400,2000,8,28,4.53600579175,1,L,4,z,1,315,,,,,,,,,A,578,1,Vert,0,3,0,0,,,0,BER,3000,0,0,0,1,3000,0,,,0,L among T,361
vs12,ber,4,2,08Feb2013,1216,mixed,500,400,2000,6,20,2.76453066813,1,L,16,a,1,326,,,,,,,,,C,1121,6,Rouge,0,14,0,0,,,0,BER,3000,0,0,0,1,3000,0,,,0,L among T,362
vs12,ber,4,2,08Feb2013,1221,mixed,500,400,2000,7,34,0.56962146177,1,L,8,z,1,343,,,,,,,,,A,1329,1,Vert,0,1,0,0,,,0,BER,3000,0,0,0,1,3000,0,,,0,L among T,363
vs12,ber,4,2,08Feb2013,1207,mixed,500,400,2000,4,14,2.54938201429,1,X,8,z,1,351,,,,,,,,,A,1136,0,Vert,0,6,0,0,,,0,BER,3000,0,0,0,1,3000,0,,,0,X among T,364
vs12,ber,4,2,08Feb2013,1206,mixed,500,400,2000,4,2,1.53219744399,0,X,4,z,1,288,,,,,,,,,A,1144,1,Vert,0,4,0,0,,,0,BER,3000,0,0,0,1,3000,0,,,0,X among T,365
vs12,ber,4,2,08Feb2013,1218,mixed,500,400,2000,7,7,5.81440819089,0,X,16,a,1,365,,,,,,,,,A,1017,0,Rouge,0,10,0,0,,,0,BER,3000,0,0,0,1,3000,0,,,0,X among T,366
vs12,ber,4,2,08Feb2013,1152,mixed,500,400,2000,1,8,2.70383163173,1,X,16,a,1,283,,,,,,,,,A,1001,1,Rouge,0,1,0,0,,,0,BER,3000,0,0,0,1,3000,0,,,0,X among T,367
vs12,ber,4,2,08Feb2013,1223,mixed,500,400,2000,8,23,0.548520157511,0,L,16,a,1,286,,,,,,,,,A,1811,2,Rouge,0,7,0,0,,,0,BER,3000,0,0,0,1,3000,0,,,0,L among T,368
vs12,ber,4,2,08Feb2013,1152,mixed,500,400,2000,1,7,4.67468983194,0,X,8,a,1,301,,,,,,,,,A,933,0,Rouge,0,2,0,0,,,0,BER,3000,0,0,0,1,3000,0,,,0,X among T,369
vs12,ber,4,2,08Feb2013,1219,mixed,500,400,2000,7,12,3.34034407112,1,X,16,z,1,421,,,,,,,,,A,1248,2,Vert,0,3,0,0,,,0,BER,3000,0,0,0,1,3000,0,,,0,X among T,370
vs12,ber,4,2,08Feb2013,1208,mixed,500,400,2000,4,25,0.458157515962,1,L,16,a,1,322,,,,,,,,,A,1048,2,Rouge,0,6,0,0,,,0,BER,3000,0,0,0,1,3000,0,,,0,L among T,371
vs12,ber,4,2,08Feb2013,1224,mixed,500,400,2000,8,34,0.498762354161,1,L,16,a,1,310,,,,,,,,,A,917,2,Rouge,0,4,0,0,,,0,BER,3000,0,0,0,1,3000,0,,,0,L among T,372
vs12,ber,4,2,08Feb2013,1210,mixed,500,400,2000,5,1,1.80675226101,0,L,8,a,1,402,,,,,,,,,A,1234,3,Rouge,0,8,0,0,,,0,BER,3000,0,0,0,1,3000,0,,,0,L among T,373
vs12,ber,4,2,08Feb2013,1222,mixed,500,400,2000,8,11,4.98539333307,1,X,8,a,1,345,,,,,,,,,A,1735,0,Rouge,0,4,0,0,,,0,BER,3000,0,0,0,1,3000,0,,,0,X among T,374
vs12,ber,4,2,08Feb2013,1153,mixed,500,400,2000,1,19,3.77997826846,1,L,16,z,1,438,,,,,,,,,A,812,2,Vert,0,2,0,0,,,0,BER,3000,0,0,0,1,3000,0,,,0,L among T,375
vs12,ber,4,2,08Feb2013,1222,mixed,500,400,2000,8,12,2.07126889073,0,X,8,z,1,385,,,,,,,,,A,1313,0,Vert,0,4,0,0,,,0,BER,3000,0,0,0,1,3000,0,,,0,X among T,376
vs12,ber,4,2,08Feb2013,1150,Ent2,500,400,2000,1,8,2.83779575145,1,X,16,a,1,326,,,,,,,,,A,1066,0,Rouge,0,9,0,0,,,0,BER,3000,0,0,0,1,3000,0,,,0,X among T,377
vs12,ber,4,2,08Feb2013,1214,mixed,500,400,2000,6,5,2.45409770988,1,L,16,z,1,444,,,,,,,,,C,1742,6,Vert,0,8,0,0,,,0,BER,3000,0,0,0,1,3000,0,,,0,L among T,378
vs12,ber,4,2,08Feb2013,1216,mixed,500,400,2000,6,27,1.18911003743,0,X,4,a,1,256,,,,,,,,,A,1158,1,Rouge,0,4,0,0,,,0,BER,3000,0,0,0,1,3000,0,,,0,X among T,379
vs12,ber,4,2,08Feb2013,1214,mixed,500,400,2000,6,7,3.78277140874,1,X,4,a,1,436,,,,,,,,,A,4646,1,Rouge,0,1,0,0,,,0,BER,3000,0,0,0,1,3000,0,,,0,X among T,380
vs12,ber,4,2,08Feb2013,1214,mixed,500,400,2000,6,2,3.85077705128,0,L,16,a,1,305,,,,,,,,,B,747,4,Rouge,0,4,0,0,,,0,BER,3000,0,0,0,1,3000,0,,,0,L among T,381
vs12,ber,4,2,08Feb2013,1145,Ent1,500,400,2000,1,3,2.9804989743,0,X,4,a,1,247,,,,,,,,,,,,Rouge,0,2,0,0,,,0,BER,3000,0,0,0,1,3000,0,,,0,X among T,382
vs12,ber,4,2,08Feb2013,1204,mixed,500,400,2000,3,19,3.5146733788,1,X,16,a,1,532,,,,,,,,,A,824,3,Rouge,0,1,0,0,,,0,BER,3000,0,0,0,1,3000,0,,,0,X among T,383
vs12,ber,4,2,08Feb2013,1202,mixed,500,400,2000,3,3,2.4410042276,1,L,8,z,1,364,,,,,,,,,A,1156,3,Vert,0,2,0,0,,,0,BER,3000,0,0,0,1,3000,0,,,0,L among T,384
vs12,ber,4,2,08Feb2013,1222,mixed,500,400,2000,8,7,1.25289079421,1,X,16,a,1,263,,,,,,,,,B,1013,4,Rouge,0,10,0,0,,,0,BER,3000,0,0,0,1,3000,0,,,0,X among T,385
vs12,ber,4,2,08Feb2013,1215,mixed,500,400,2000,6,17,4.12766591146,1,X,4,z,1,467,,,,,,,,,A,939,1,Vert,0,4,0,0,,,0,BER,3000,0,0,0,1,3000,0,,,0,X among T,386
vs12,ber,4,2,08Feb2013,1149,Ent2,500,400,2000,1,4,1.7659609331,0,X,4,a,1,644,,,,,,,,,A,10865,3,Rouge,0,3,0,0,,,0,BER,3000,0,0,0,1,3000,0,,,0,X among T,387
vs12,ber,4,2,08Feb2013,1158,mixed,500,400,2000,2,2,3.37413745588,1,L,4,a,1,264,,,,,,,,,B,905,4,Rouge,0,2,0,0,,,0,BER,3000,0,0,0,1,3000,0,,,0,L among T,388
vs12,ber,4,2,08Feb2013,1150,Ent2,500,400,2000,1,10,2.90515783949,0,L,8,a,1,688,,,,,,,,,A,1199,1,Rouge,0,3,0,0,,,0,BER,3000,0,0,0,1,3000,0,,,0,L among T,389
vs12,ber,4,2,08Feb2013,1207,mixed,500,400,2000,4,9,1.95290660119,1,X,4,z,1,257,,,,,,,,,A,865,1,Vert,0,3,0,0,,,0,BER,3000,0,0,0,1,3000,0,,,0,X among T,390
vs12,ber,4,2,08Feb2013,1150,Ent2,500,400,2000,1,7,2.3130954025,1,X,4,a,1,330,,,,,,,,,A,2348,3,Rouge,0,1,0,0,,,0,BER,3000,0,0,0,1,3000,0,,,0,X among T,391
vs12,ber,4,2,08Feb2013,1207,mixed,500,400,2000,4,15,3.90604653102,0,L,4,a,1,461,,,,,,,,,A,801,3,Rouge,0,3,0,0,,,0,BER,3000,0,0,0,1,3000,0,,,0,L among T,392
vs12,ber,4,2,08Feb2013,1215,mixed,500,400,2000,6,10,0.287608183942,0,L,4,a,1,624,,,,,,,,,A,1497,2,Rouge,0,4,0,0,,,0,BER,3000,0,0,0,1,3000,0,,,0,L among T,393
vs12,ber,4,2,08Feb2013,1221,mixed,500,400,2000,7,33,3.83144511234,1,L,4,z,1,562,,,,,,,,,A,1074,0,Vert,0,3,0,0,,,0,BER,3000,0,0,0,1,3000,0,,,0,L among T,394
vs12,ber,4,2,08Feb2013,1143,Ent1,500,400,2000,1,3,0.56563489351,0,X,4,a,1,430,,,,,,,,,,,,Rouge,0,4,0,0,,,0,BER,3000,0,0,0,1,3000,0,,,0,X among T,395
vs12,ber,4,2,08Feb2013,1145,Ent1,500,400,2000,1,1,3.67029762963,0,L,8,z,1,437,,,,,,,,,,,,Vert,0,5,0,0,,,0,BER,3000,0,0,0,1,3000,0,,,0,L among T,396
vs12,ber,4,2,08Feb2013,1158,mixed,500,400,2000,2,5,4.87847320012,0,L,4,z,1,299,,,,,,,,,A,711,1,Vert,0,3,0,0,,,0,BER,3000,0,0,0,1,3000,0,,,0,L among T,397
vs12,ber,4,2,08Feb2013,1154,mixed,500,400,2000,1,33,0.141935821646,1,L,16,a,1,274,,,,,,,,,A,757,3,Rouge,0,9,0,0,,,0,BER,3000,0,0,0,1,3000,0,,,0,L among T,398
vs12,ber,4,2,08Feb2013,1214,mixed,500,400,2000,6,1,3.84226397685,1,L,4,a,1,495,,,,,,,,,A,1985,1,Rouge,0,3,0,0,,,0,BER,3000,0,0,0,1,3000,0,,,0,L among T,399
vs12,ber,4,2,08Feb2013,1151,mixed,500,400,2000,1,1,1.77852468063,1,X,8,z,1,441,,,,,,,,,A,1570,0,Vert,0,1,0,0,,,0,BER,3000,0,0,0,1,3000,0,,,0,X among T,400
vs12,ber,4,2,08Feb2013,1202,mixed,500,400,2000,3,2,1.59024706442,1,L,4,z,1,289,,,,,,,,,A,663,1,Vert,0,1,0,0,,,0,BER,3000,0,0,0,1,3000,0,,,0,L among T,401
vs12,ber,4,2,08Feb2013,1206,mixed,500,400,2000,4,1,5.66279896645,0,X,16,a,1,394,,,,,,,,,A,786,1,Rouge,0,14,0,0,,,0,BER,3000,0,0,0,1,3000,0,,,0,X among T,402
vs12,ber,4,2,08Feb2013,1200,mixed,500,400,2000,2,32,3.38024901619,1,X,16,z,1,383,,,,,,,,,A,826,2,Vert,0,15,0,0,,,0,BER,3000,0,0,0,1,3000,0,,,0,X among T,403
vs12,ber,4,2,08Feb2013,1207,mixed,500,400,2000,4,13,3.03415523451,0,X,8,a,1,456,,,,,,,,,A,613,1,Rouge,0,2,0,0,,,0,BER,3000,0,0,0,1,3000,0,,,0,X among T,404
vs12,ber,4,2,08Feb2013,1159,mixed,500,400,2000,2,18,0.223795310875,0,L,16,a,1,278,,,,,,,,,A,1002,1,Rouge,0,6,0,0,,,0,BER,3000,0,0,0,1,3000,0,,,0,L among T,405
vs12,ber,4,2,08Feb2013,1213,mixed,500,400,2000,5,35,1.37928912086,0,X,4,a,1,297,,,,,,,,,A,1017,1,Rouge,0,2,0,0,,,0,BER,3000,0,0,0,1,3000,0,,,0,X among T,406
vs12,ber,4,2,08Feb2013,1216,mixed,500,400,2000,6,23,2.50209238358,1,X,16,a,1,260,,,,,,,,,A,919,1,Rouge,0,8,0,0,,,0,BER,3000,0,0,0,1,3000,0,,,0,X among T,407
vs12,ber,4,2,08Feb2013,1207,mixed,500,400,2000,4,12,6.12757989832,0,L,16,z,1,422,,,,,,,,,A,1241,3,Vert,0,5,0,0,,,0,BER,3000,0,0,0,1,3000,0,,,0,L among T,408
vs12,ber,4,2,08Feb2013,1206,mixed,500,400,2000,4,3,4.25185838962,1,X,16,a,1,297,,,,,,,,,A,1047,3,Rouge,0,3,0,0,,,0,BER,3000,0,0,0,1,3000,0,,,0,X among T,409
vs12,ber,4,2,08Feb2013,1200,mixed,500,400,2000,2,28,3.87561245571,1,X,4,a,1,283,,,,,,,,,A,1119,1,Rouge,0,2,0,0,,,0,BER,3000,0,0,0,1,3000,0,,,0,X among T,410
vs12,ber,4,2,08Feb2013,1208,mixed,500,400,2000,4,28,1.80195490225,1,X,8,z,1,364,,,,,,,,,A,1226,1,Vert,0,4,0,0,,,0,BER,3000,0,0,0,1,3000,0,,,0,X among T,411
vs12,ber,4,2,08Feb2013,1207,mixed,500,400,2000,4,17,3.70630198915,1,L,16,z,1,459,,,,,,,,,A,1133,2,Vert,0,4,0,0,,,0,BER,3000,0,0,0,1,3000,0,,,0,L among T,412
vs12,ber,4,2,08Feb2013,1142,Ent1,500,400,2000,1,5,0.529608561374,1,X,16,0,0,,,,,,,,,,,,Vert,0,10,0,0,,,0,0,BER,117.5,0,0,0,2,639,3,,,0,X among T,413
vs12,ber,4,2,08Feb2013,1149,Ent2,500,400,2000,1,3,2.47770659396,0,L,4,a,1,421,,,,,,,,,B,1995,4,Rouge,0,4,0,0,,,0,BER,1883.5,0.05,0,0,2,3000,1,,,0,L among T,414
vs12,ber,4,2,08Feb2013,1223,mixed,500,400,2000,8,18,5.92283346598,1,L,4,z,1,285,,,,,,,,,A,560,1,Vert,0,1,0,0,,,0,BER,535.17,0.05,0,0,6,3000,5,,,0,L among T,415
vs12,ber,4,2,08Feb2013,1204,mixed,500,400,2000,3,22,2.16722596143,1,X,4,a,1,281,,,,,,,,,A,792,1,Rouge,0,1,0,0,,,0,BER,2180,0.07,0,0,2,3000,1,,,0,X among T,416
vs12,ber,4,2,08Feb2013,1223,mixed,500,400,2000,8,21,1.94020128837,0,L,16,a,1,249,,,,,,,,,C,687,7,Rouge,0,10,0,0,,,0,BER,1659.5,0.07,0,0,2,3000,1,,,0,L among T,417
vs12,ber,4,2,08Feb2013,1220,mixed,500,400,2000,7,26,0.241799169578,1,L,8,z,1,496,,,,,,,,,B,1492,4,Vert,0,8,0,0,,,0,BER,398.57,0.07,0,0,7,3000,7,,,0,L among T,418
vs12,ber,4,2,08Feb2013,1142,Ent1,500,400,2000,1,6,0.0188341609324,0,L,16,0,0,,,,,,,,,,,,Rouge,0,15,0,0,,,0,0,BER,56.6,0.07,0,0,5,642,4,,,0,L among T,419
vs12,ber,4,2,08Feb2013,1223,mixed,500,400,2000,8,25,2.1187614135,0,X,8,z,1,474,,,,,,,,,A,643,1,Vert,0,5,0,0,,,0,BER,1614,0.09,0,0,2,3000,1,,,0,X among T,420
vs12,ber,4,2,08Feb2013,1142,Ent1,500,400,2000,1,7,0.247730822822,1,X,8,z,1,289,,,,,,,,,,,,Vert,0,7,0,0,,,0,BER,104.5,0.09,0,0,22,3000,22,,,0,X among T,421
vs12,ber,4,2,08Feb2013,1208,mixed,500,400,2000,4,29,5.10416484663,1,X,4,z,1,377,,,,,,,,,A,743,1,Vert,0,1,0,0,,,0,BER,2039.5,0.1,0,0,2,3000,1,,,0,X among T,422
vs12,ber,4,2,08Feb2013,1153,mixed,500,400,2000,1,30,4.41775020561,0,L,16,0,0,,,,,,,,,,,,Vert,0,6,0,0,,,0,0,BER,62.44,0.1,0,0,9,957,9,,,0,L among T,423
vs12,ber,4,2,08Feb2013,1142,Ent1,500,400,2000,1,11,1.57504894513,1,L,16,0,0,,,,,,,,,,,,Vert,0,1,0,0,,,0,0,BER,1,0.11,0,0,1,642,1,,,0,L among T,424
vs12,ber,4,2,08Feb2013,1143,Ent1,500,400,2000,1,4,5.89467699538,1,X,4,a,1,294,,,,,,,,,,,,Rouge,0,2,0,0,,,0,BER,1887.5,0.11,0,0,2,3000,1,,,0,X among T,425
vs12,ber,4,2,08Feb2013,1153,mixed,500,400,2000,1,29,2.90651221862,1,X,4,0,0,,,,,,,,,,,,Rouge,0,2,0,0,,,0,0,BER,83.83,0.11,0,0,12,1645,11,,,0,X among T,426
vs12,ber,4,2,08Feb2013,1210,mixed,500,400,2000,5,6,0.68124291285,0,X,4,z,1,348,,,,,,,,,A,1176,1,Vert,0,2,0,0,,,0,BER,1691.5,0.12,0,0,2,3000,1,,,0,X among T,427
vs12,ber,4,2,08Feb2013,1222,mixed,500,400,2000,8,13,2.54485537655,1,L,4,a,1,268,,,,,,,,,A,1040,1,Rouge,0,2,0,0,,,0,BER,550.8,0.12,0,0,5,3000,4,,,0,L among T,428
vs12,ber,4,2,08Feb2013,1202,mixed,500,400,2000,3,1,1.60672290251,0,X,4,z,1,299,,,,,,,,,A,1700,1,Vert,0,2,0,0,,,0,BER,1966,0.13,0,0,2,3000,1,,,0,X among T,429
vs12,ber,4,2,08Feb2013,1224,mixed,500,400,2000,8,36,4.32544034024,0,X,4,z,1,384,,,,,,,,,A,1337,1,Vert,0,2,0,0,,,0,BER,1633.5,0.13,0,0,2,3000,1,,,0,X among T,430
vs12,ber,4,2,08Feb2013,1219,mixed,500,400,2000,7,10,3.85791214393,1,L,8,a,1,413,,,,,,,,,B,1273,4,Rouge,0,3,0,0,,,0,BER,1688.5,0.13,0,0,2,3000,1,,,0,L among T,431
vs12,ber,4,2,08Feb2013,1158,mixed,500,400,2000,2,3,2.08808518425,0,L,16,z,1,489,,,,,,,,,C,739,6,Vert,0,1,0,0,,,0,BER,1844.5,0.13,0,0,2,3000,1,,,0,L among T,432
vs12,ber,4,2,08Feb2013,1210,mixed,500,400,2000,5,4,0.906643884809,0,L,4,z,1,340,,,,,,,,,A,556,3,Vert,0,2,0,0,,,0,BER,2002.5,0.13,0,0,2,3000,1,,,0,L among T,433
vs12,ber,4,2,08Feb2013,1141,Ent1,500,400,2000,1,8,0.437856687086,0,L,4,a,0,759,,,,,,,,,,,,Vert,0,4,0,0,,,0,BER,468,0.14,0,0,5,3000,4,,,0,L among T,434
vs12,ber,4,2,08Feb2013,1208,mixed,500,400,2000,4,31,3.47389643354,0,L,4,a,1,309,,,,,,,,,A,1255,1,Rouge,0,1,0,0,,,0,BER,803,0.14,0,0,4,3000,3,,,0,L among T,435
vs12,ber,4,2,08Feb2013,1151,mixed,500,400,2000,1,2,3.74133250237,0,L,4,a,1,460,,,,,,,,,A,1547,0,Rouge,0,2,0,0,,,0,BER,1249.33,0.14,0,0,3,3000,2,,,0,L among T,436
vs12,ber,4,2,08Feb2013,1152,mixed,500,400,2000,1,14,5.98469065903,0,L,8,z,1,343,,,,,,,,,A,829,2,Vert,0,3,0,0,,,0,BER,179.07,0.14,0,0,14,3000,13,,,0,L among T,437
vs12,ber,4,2,08Feb2013,1220,mixed,500,400,2000,7,28,6.16836101209,1,X,8,z,1,328,,,,,,,,,A,2256,2,Vert,0,2,0,0,,,0,BER,92.5,0.14,0,0,10,3000,10,,,0,X among T,438
vs12,ber,4,2,08Feb2013,1211,mixed,500,400,2000,5,11,5.02622144981,0,X,16,z,1,392,,,,,,,,,A,1507,3,Vert,0,13,0,0,,,0,BER,242.56,0.15,0,0,9,3000,8,,,0,X among T,439
vs12,ber,4,2,08Feb2013,1141,Ent1,500,400,2000,1,2,0.452639206261,0,X,16,z,1,450,,,,,,,,,,,,Vert,0,8,0,0,,,0,BER,546.57,0.15,0,0,7,3000,6,,,0,X among T,440
vs12,ber,4,2,08Feb2013,1204,mixed,500,400,2000,3,30,2.89236786235,0,L,16,a,1,369,,,,,,,,,C,1186,7,Rouge,0,9,0,0,,,0,BER,800.5,0.15,0,0,4,3000,3,,,0,L among T,441
vs12,ber,4,2,08Feb2013,1145,Ent1,500,400,2000,1,10,4.74466149982,1,L,4,a,1,351,,,,,,,,,,,,Rouge,0,1,0,0,,,0,BER,1184,0.16,0,0,3,3000,2,,,0,L among T,442
vs12,ber,4,2,08Feb2013,1219,mixed,500,400,2000,7,18,2.47851420377,0,L,4,z,1,343,,,,,,,,,A,1858,0,Vert,0,1,0,0,,,0,BER,1851,0.16,0,0,2,3000,1,,,0,L among T,443
vs12,ber,4,2,08Feb2013,1204,mixed,500,400,2000,3,24,1.13987343368,0,X,8,z,1,299,,,,,,,,,A,818,1,Vert,0,2,0,0,,,0,BER,1258.33,0.16,0,0,3,3000,2,,,0,X among T,444
vs12,ber,4,2,08Feb2013,1159,mixed,500,400,2000,2,23,1.05601304514,0,L,8,a,1,309,,,,,,,,,A,712,1,Rouge,0,8,0,0,,,0,BER,792.8,0.16,0,0,5,3000,4,,,0,L among T,445
vs12,ber,4,2,08Feb2013,1217,mixed,500,400,2000,6,31,5.16079598532,0,X,16,a,1,542,,,,,,,,,A,1244,0,Rouge,0,7,0,0,,,0,BER,1113,0.17,0,0,3,3000,2,,,0,X among T,446
vs12,ber,4,2,08Feb2013,1211,mixed,500,400,2000,5,8,4.21526823966,1,X,4,z,1,995,,,,,,,,,A,1032,1,Vert,0,1,0,0,,,0,BER,1663,0.17,0,0,2,3000,1,,,0,X among T,447
vs12,ber,4,2,08Feb2013,1206,mixed,500,400,2000,4,5,1.68675987726,1,L,8,z,1,362,,,,,,,,,B,842,4,Vert,0,7,0,0,,,0,BER,1671,0.17,0,0,2,3000,1,,,0,L among T,448
vs12,ber,4,2,08Feb2013,1221,mixed,500,400,2000,7,32,0.692170717543,0,L,8,z,1,304,,,,,,,,,A,1132,0,Vert,0,3,0,0,,,0,BER,1816,0.17,0,0,2,3000,1,,,0,L among T,449
vs12,ber,4,2,08Feb2013,1153,mixed,500,400,2000,1,27,2.21509811234,0,X,16,a,1,309,,,,,,,,,A,1927,1,Rouge,0,9,0,0,,,0,BER,1011.33,0.17,0,0,3,3000,2,,,0,X among T,450
vs12,ber,4,2,08Feb2013,1207,mixed,500,400,2000,4,11,1.55819021391,1,L,4,0,0,,,,,,,,,,,,Rouge,0,2,0,0,,,0,0,BER,1103.5,0.17,1,0,2,2451,1,,,0,L among T,451
vs12,ber,4,2,08Feb2013,1145,Ent1,500,400,2000,1,11,2.73585720807,1,L,16,z,1,233,,,,,,,,,,,,Vert,0,13,0,0,,,0,BER,1600.5,0.17,0,0,2,3000,1,,,0,L among T,452
vs12,ber,4,2,08Feb2013,1224,mixed,500,400,2000,8,32,0.246697508059,1,L,16,z,1,362,,,,,,,,,D,973,8,Vert,0,5,0,0,,,0,BER,482.33,0.17,0,0,6,3000,5,,,0,L among T,453
vs12,ber,4,2,08Feb2013,1224,mixed,500,400,2000,8,27,3.85065948138,0,L,4,z,1,311,,,,,,,,,A,2763,2,Vert,0,1,0,0,,,0,BER,761.5,0.17,0,0,4,3000,3,,,0,L among T,454
vs12,ber,4,2,08Feb2013,1152,mixed,500,400,2000,1,11,0.580313987982,1,L,4,z,1,1038,,,,,,,,,A,1948,2,Vert,0,4,0,0,,,0,BER,811.5,0.17,0,0,4,3000,3,,,0,L among T,455
vs12,ber,4,2,08Feb2013,1153,mixed,500,400,2000,1,25,3.94327550908,1,X,16,a,1,304,,,,,,,,,A,1072,1,Rouge,0,16,0,0,,,0,BER,1154,0.18,0,0,4,3000,3,,,0,X among T,456
vs12,ber,4,2,08Feb2013,1212,mixed,500,400,2000,5,26,0.951840415364,0,L,8,z,1,304,,,,,,,,,C,775,7,Vert,0,7,0,0,,,0,BER,1478,0.18,0,0,2,3000,2,,,0,L among T,457
vs12,ber,4,2,08Feb2013,1224,mixed,500,400,2000,8,35,2.95923452969,1,L,8,a,1,283,,,,,,,,,A,2066,0,Rouge,0,6,0,0,,,0,BER,1082.67,0.18,0,0,3,3000,2,,,0,L among T,458
vs12,ber,4,2,08Feb2013,1205,mixed,500,400,2000,3,32,0.327494505995,0,X,16,z,1,283,,,,,,,,,A,855,1,Vert,0,13,0,0,,,0,BER,1164.25,0.18,0,0,4,3000,3,,,0,X among T,459
vs12,ber,4,2,08Feb2013,1222,mixed,500,400,2000,8,6,1.77604360811,0,X,4,z,1,270,,,,,,,,,A,787,1,Vert,0,2,0,0,,,0,BER,1192.33,0.18,0,0,3,3000,2,,,0,X among T,460
vs12,ber,4,2,08Feb2013,1159,mixed,500,400,2000,2,20,4.16142942973,1,L,16,a,1,299,,,,,,,,,C,647,6,Rouge,0,15,0,0,,,0,BER,1746.5,0.18,0,0,2,3000,1,,,0,L among T,461
vs12,ber,4,2,08Feb2013,1224,mixed,500,400,2000,8,30,1.4069493245,0,L,16,a,1,293,,,,,,,,,C,981,7,Rouge,0,15,0,0,,,0,BER,315.11,0.18,0,0,9,3000,8,,,0,L among T,462
vs12,ber,4,2,08Feb2013,1200,mixed,500,400,2000,2,35,0.0906637128455,0,L,8,a,1,332,,,,,,,,,A,642,1,Rouge,0,7,0,0,,,0,BER,979.5,0.18,0,0,4,3000,3,,,0,L among T,463
vs12,ber,4,2,08Feb2013,1220,mixed,500,400,2000,7,24,4.07451285623,1,L,16,a,1,369,,,,,,,,,A,1933,3,Rouge,0,3,0,0,,,0,BER,1285.33,0.19,0,0,3,3000,2,,,0,L among T,464
vs12,ber,4,2,08Feb2013,1204,mixed,500,400,2000,3,28,2.88504808663,0,L,4,a,1,332,,,,,,,,,A,1629,3,Rouge,0,1,0,0,,,0,BER,1522.33,0.19,0,0,3,3000,2,,,0,L among T,465
vs12,ber,4,2,08Feb2013,1206,mixed,500,400,2000,4,4,5.4981145751,0,L,16,z,1,336,,,,,,,,,C,634,6,Vert,0,7,0,0,,,0,BER,1789.5,0.19,0,0,2,3000,1,,,0,L among T,466
vs12,ber,4,2,08Feb2013,1152,mixed,500,400,2000,1,13,1.5374901579,0,X,8,z,1,540,,,,,,,,,A,996,1,Vert,0,4,0,0,,,0,BER,444.88,0.19,0,0,8,3000,7,,,0,X among T,467
vs12,ber,4,2,08Feb2013,1209,mixed,500,400,2000,4,33,2.69308323991,0,L,8,z,1,304,,,,,,,,,A,995,2,Vert,0,4,0,0,,,0,BER,1442,0.2,0,0,3,3000,2,,,0,L among T,468
vs12,ber,4,2,08Feb2013,1151,mixed,500,400,2000,1,5,3.95291729102,0,L,16,a,1,291,,,,,,,,,A,1465,2,Rouge,0,10,0,0,,,0,BER,2991,0.2,0,0,1,3000,1,,,0,L among T,469
vs12,ber,4,2,08Feb2013,1215,mixed,500,400,2000,6,13,3.60072832731,1,X,16,a,1,418,,,,,,,,,A,1416,0,Rouge,0,6,0,0,,,0,BER,1163.33,0.2,0,0,3,3000,2,,,0,X among T,470
vs12,ber,4,2,08Feb2013,1154,mixed,500,400,2000,1,36,5.81537721985,1,X,4,z,1,311,,,,,,,,,A,1443,2,Vert,0,2,0,0,,,0,BER,1193.33,0.2,0,0,3,3000,2,,,0,X among T,471
vs12,ber,4,2,08Feb2013,1142,Ent1,500,400,2000,1,3,0.415207746315,0,X,4,z,1,299,,,,,,,,,,,,Vert,0,3,0,0,,,0,BER,33.12,0.2,0,0,8,3000,8,,,0,X among T,472
vs12,ber,4,2,08Feb2013,1153,mixed,500,400,2000,1,31,1.57173381624,0,X,4,z,1,352,,,,,,,,,A,1430,1,Vert,0,2,0,0,,,0,BER,40.69,0.2,0,0,16,3000,16,,,0,X among T,473
vs12,ber,4,2,08Feb2013,1204,mixed,500,400,2000,3,26,3.82252493642,1,X,4,z,1,319,,,,,,,,,A,1069,1,Vert,0,2,0,0,,,0,BER,910,0.21,0,0,5,3000,4,,,0,X among T,474
vs12,ber,4,2,08Feb2013,1152,mixed,500,400,2000,1,6,3.31061508044,1,X,8,z,1,275,,,,,,,,,B,1057,4,Vert,0,5,0,0,,,0,BER,1235.33,0.21,0,0,3,3000,2,,,0,X among T,475
vs12,ber,4,2,08Feb2013,1211,mixed,500,400,2000,5,17,4.53638414377,1,L,4,z,1,354,,,,,,,,,A,868,1,Vert,0,3,0,0,,,0,BER,1414.67,0.21,0,0,3,3000,2,,,0,L among T,476
vs12,ber,4,2,08Feb2013,1209,mixed,500,400,2000,4,36,4.33617924322,1,L,4,z,1,550,,,,,,,,,A,889,3,Vert,0,3,0,0,,,0,BER,1674.5,0.21,0,0,2,3000,1,,,0,L among T,477
vs12,ber,4,2,08Feb2013,1142,Ent1,500,400,2000,1,4,1.15425104698,1,X,4,z,1,331,,,,,,,,,,,,Vert,0,1,0,0,,,0,BER,336.29,0.21,0,0,7,3000,7,,,0,X among T,478
vs12,ber,4,2,08Feb2013,1153,mixed,500,400,2000,1,18,4.6806063696,1,X,16,z,1,405,,,,,,,,,C,1329,6,Vert,0,12,0,0,,,0,BER,580.8,0.21,0,0,5,3000,4,,,0,X among T,479
vs12,ber,4,2,08Feb2013,1205,mixed,500,400,2000,3,34,0.0956222153063,1,X,16,a,1,327,,,,,,,,,B,677,4,Rouge,0,7,0,0,,,0,BER,748.25,0.21,0,0,4,3000,3,,,0,X among T,480
vs12,ber,4,2,08Feb2013,1143,Ent1,500,400,2000,1,10,4.55254926933,1,L,4,z,1,495,,,,,,,,,,,,Vert,0,1,0,0,,,0,BER,87.94,0.21,0,0,18,3000,17,,,0,L among T,481
vs12,ber,4,2,08Feb2013,1224,mixed,500,400,2000,8,31,0.373165209101,1,X,4,a,1,261,,,,,,,,,A,1145,2,Rouge,0,1,0,0,,,0,BER,871,0.22,0,0,4,3000,3,,,0,X among T,482
vs12,ber,4,2,08Feb2013,1222,mixed,500,400,2000,8,14,4.900613554,0,L,4,a,1,276,,,,,,,,,B,1003,4,Rouge,0,2,0,0,,,0,BER,905,0.22,0,0,4,3000,3,,,0,L among T,483
vs12,ber,4,2,08Feb2013,1200,mixed,500,400,2000,2,29,3.09583508186,1,L,4,z,1,318,,,,,,,,,B,1640,4,Vert,0,2,0,0,,,0,BER,1201,0.22,0,0,3,3000,2,,,0,L among T,484
vs12,ber,4,2,08Feb2013,1223,mixed,500,400,2000,8,15,2.79983936193,1,L,16,a,1,340,,,,,,,,,C,728,6,Rouge,0,8,0,0,,,0,BER,349.86,0.22,0,0,7,3000,6,,,0,L among T,485
vs12,ber,4,2,08Feb2013,1142,Ent1,500,400,2000,1,5,5.82392938568,1,X,16,z,1,333,,,,,,,,,,,,Vert,0,5,0,0,,,0,BER,59.35,0.22,0,0,17,3000,16,,,0,X among T,486
vs12,ber,4,2,08Feb2013,1153,mixed,500,400,2000,1,21,4.58271000083,0,X,4,z,1,277,,,,,,,,,A,893,1,Vert,0,4,0,0,,,0,BER,686,0.23,0,0,5,3000,4,,,0,X among T,487
vs12,ber,4,2,08Feb2013,1217,mixed,500,400,2000,6,35,3.20523435806,1,L,8,z,1,320,,,,,,,,,A,1957,2,Vert,0,3,0,0,,,0,BER,1662,0.23,0,0,2,3000,1,,,0,L among T,488
vs12,ber,4,2,08Feb2013,1145,Ent1,500,400,2000,1,2,3.4695733821,0,X,16,a,1,304,,,,,,,,,,,,Rouge,0,1,0,0,,,0,BER,1936,0.23,0,0,2,3000,1,,,0,X among T,489
vs12,ber,4,2,08Feb2013,1215,mixed,500,400,2000,6,15,5.4783256462,0,X,8,a,1,450,,,,,,,,,A,1088,0,Rouge,0,4,0,0,,,0,BER,1173.67,0.23,0,0,3,3000,2,,,0,X among T,490
vs12,ber,4,2,08Feb2013,1218,mixed,500,400,2000,7,1,2.07021640199,1,X,16,a,1,368,,,,,,,,,A,1683,1,Rouge,0,13,0,0,,,0,BER,1747.5,0.23,0,0,2,3000,1,,,0,X among T,491
vs12,ber,4,2,08Feb2013,1200,mixed,500,400,2000,2,24,1.62994471812,1,X,4,a,1,351,,,,,,,,,A,1326,1,Rouge,0,3,0,0,,,0,BER,2205.5,0.23,0,0,2,3000,1,,,0,X among T,492
vs12,ber,4,2,08Feb2013,1145,Ent1,500,400,2000,1,7,0.19776663068,1,X,8,z,1,307,,,,,,,,,,,,Vert,0,8,0,0,,,0,BER,756.8,0.23,0,0,5,3000,4,,,0,X among T,493
vs12,ber,4,2,08Feb2013,1208,mixed,500,400,2000,4,26,2.16267564245,1,X,4,z,1,444,,,,,,,,,A,1165,3,Vert,0,3,0,0,,,0,BER,760.75,0.23,0,0,4,3000,3,,,0,X among T,494
vs12,ber,4,2,08Feb2013,1223,mixed,500,400,2000,8,24,4.1876483716,0,X,16,z,1,295,,,,,,,,,A,554,1,Vert,0,5,0,0,,,0,BER,794.75,0.23,0,0,4,3000,3,,,0,X among T,495
vs12,ber,4,2,08Feb2013,1215,mixed,500,400,2000,6,16,2.92895977222,0,L,16,z,1,368,,,,,,,,,B,912,4,Vert,0,5,0,0,,,0,BER,950.25,0.23,0,0,4,3000,3,,,0,L among T,496
vs12,ber,4,2,08Feb2013,1141,Ent1,500,400,2000,1,3,4.85664013455,0,X,4,z,1,944,,,,,,,,,,,,Vert,0,2,0,0,,,0,BER,201,0.24,0,0,5,3000,4,,,0,X among T,497
vs12,ber,4,2,08Feb2013,1222,mixed,500,400,2000,8,9,2.47604141911,1,X,16,z,1,247,,,,,,,,,A,1004,1,Vert,0,7,0,0,,,0,BER,735,0.24,0,0,4,3000,4,,,0,X among T,498
vs12,ber,4,2,08Feb2013,1203,mixed,500,400,2000,3,13,5.16881326262,1,X,8,z,1,466,,,,,,,,,A,1699,1,Vert,0,6,0,0,,,0,BER,1006,0.24,0,0,3,3000,2,,,0,X among T,499
vs12,ber,4,2,08Feb2013,1220,mixed,500,400,2000,7,30,1.07178586719,1,X,4,a,1,291,,,,,,,,,A,1080,1,Rouge,0,1,0,0,,,0,BER,1236,0.24,0,0,3,3000,2,,,0,X among T,500
vs12,ber,4,2,08Feb2013,1219,mixed,500,400,2000,7,9,4.87903196267,0,X,16,z,1,670,,,,,,,,,A,1594,2,Vert,0,2,0,0,,,0,BER,1538,0.24,0,0,2,3000,1,,,0,X among T,501
vs12,ber,4,2,08Feb2013,1143,Ent1,500,400,2000,1,6,0.747505593726,0,L,16,N,0,1000,,,,,,,,,,,,Rouge,0,10,0,0,,,0,BER,1558,0.24,0,0,2,3000,1,,,0,L among T,502
vs12,ber,4,2,08Feb2013,1200,mixed,500,400,2000,2,27,5.66693656984,0,X,4,a,1,253,,,,,,,,,A,870,1,Rouge,0,4,0,0,,,0,BER,1607,0.24,0,0,2,3000,1,,,0,X among T,503
vs12,ber,4,2,08Feb2013,1212,mixed,500,400,2000,5,28,2.60299135928,1,L,4,z,1,312,,,,,,,,,A,506,1,Vert,0,4,0,0,,,0,BER,1034.25,0.24,0,0,4,3000,3,,,0,L among T,504
vs12,ber,4,2,08Feb2013,1213,mixed,500,400,2000,5,34,4.05260544003,1,L,8,z,1,352,,,,,,,,,A,906,3,Vert,0,8,0,0,,,0,BER,1040.75,0.24,0,0,4,3000,3,,,0,L among T,505
vs12,ber,4,2,08Feb2013,1211,mixed,500,400,2000,5,14,1.92064073286,1,X,8,a,1,293,,,,,,,,,A,1492,1,Rouge,0,5,0,0,,,0,BER,1162.33,0.24,0,0,3,3000,2,,,0,X among T,506
vs12,ber,4,2,08Feb2013,1219,mixed,500,400,2000,7,13,2.64510266333,0,L,8,a,1,264,,,,,,,,,A,921,1,Rouge,0,7,0,0,,,0,BER,1659.5,0.24,0,0,2,3000,1,,,0,L among T,507
vs12,ber,4,2,08Feb2013,1214,mixed,500,400,2000,6,4,4.97326507538,1,L,4,z,1,384,,,,,,,,,A,1634,2,Vert,0,4,0,0,,,0,BER,1978.5,0.24,0,0,2,3000,1,,,0,L among T,508
vs12,ber,4,2,08Feb2013,1224,mixed,500,400,2000,8,33,2.69788198729,0,X,16,a,1,287,,,,,,,,,A,1056,0,Rouge,0,16,0,0,,,0,BER,488.17,0.24,0,0,6,3000,5,,,0,X among T,509
vs12,ber,4,2,08Feb2013,1211,mixed,500,400,2000,5,18,0.411887402258,0,L,8,a,1,283,,,,,,,,,A,793,3,Rouge,0,4,0,0,,,0,BER,533.29,0.24,0,0,7,3000,6,,,0,L among T,510
vs12,ber,4,2,08Feb2013,1216,mixed,500,400,2000,6,26,1.29268233294,0,X,16,z,1,304,,,,,,,,,A,832,0,Vert,0,14,0,0,,,0,BER,615.67,0.24,0,0,6,3000,5,,,0,X among T,511
vs12,ber,4,2,08Feb2013,1205,mixed,500,400,2000,3,35,0.217450102038,1,L,16,z,1,389,,,,,,,,,B,1038,5,Vert,0,5,0,0,,,0,BER,720.4,0.24,0,0,5,3000,4,,,0,L among T,512
vs12,ber,4,2,08Feb2013,1159,mixed,500,400,2000,2,17,1.46818035292,0,X,4,z,1,275,,,,,,,,,A,697,1,Vert,0,1,0,0,,,0,BER,965,0.25,0,0,4,3000,3,,,0,X among T,513
vs12,ber,4,2,08Feb2013,1142,Ent1,500,400,2000,1,4,5.10083571852,1,X,4,a,1,542,,,,,,,,,,,,Rouge,0,1,0,0,,,0,BER,142.43,0.25,0,0,7,3000,7,,,0,X among T,514
vs12,ber,4,2,08Feb2013,1153,mixed,500,400,2000,1,24,6.20081204953,1,L,8,a,1,390,,,,,,,,,B,1285,5,Rouge,0,4,0,0,,,0,BER,257.36,0.25,0,0,11,3000,10,,,0,L among T,515
vs12,ber,4,2,08Feb2013,1159,mixed,500,400,2000,2,11,3.75213014657,1,X,8,a,1,258,,,,,,,,,A,798,3,Rouge,0,6,0,0,,,0,BER,698,0.26,0,0,5,3000,4,,,0,X among T,516
vs12,ber,4,2,08Feb2013,1217,mixed,500,400,2000,6,33,2.02252943305,1,X,4,a,1,328,,,,,,,,,A,1672,0,Rouge,0,3,0,0,,,0,BER,977,0.26,0,0,3,3000,3,,,0,X among T,517
vs12,ber,4,2,08Feb2013,1220,mixed,500,400,2000,7,22,3.95412914716,0,X,4,a,1,294,,,,,,,,,A,777,1,Rouge,0,3,0,0,,,0,BER,1177,0.26,0,0,3,3000,2,,,0,X among T,518
vs12,ber,4,2,08Feb2013,1222,mixed,500,400,2000,8,5,2.84256153794,0,L,8,z,1,288,,,,,,,,,A,1031,2,Vert,0,4,0,0,,,0,BER,1242,0.26,0,0,3,3000,2,,,0,L among T,519
vs12,ber,4,2,08Feb2013,1141,Ent1,500,400,2000,1,1,4.65277726303,0,L,8,N,0,1000,,,,,,,,,,,,Rouge,0,2,0,0,,,0,BER,1661,0.26,0,0,2,3000,1,,,0,L among T,520
vs12,ber,4,2,08Feb2013,1220,mixed,500,400,2000,7,31,3.01859213959,0,X,8,z,1,286,,,,,,,,,A,3805,0,Vert,0,3,0,0,,,0,BER,1806,0.26,0,0,2,3000,1,,,0,X among T,521
vs12,ber,4,2,08Feb2013,1212,mixed,500,400,2000,5,23,1.19967456637,0,X,8,z,1,321,,,,,,,,,A,841,3,Vert,0,1,0,0,,,0,BER,1842,0.26,0,0,2,3000,1,,,0,X among T,522
vs12,ber,4,2,08Feb2013,1218,mixed,500,400,2000,7,6,5.58438263203,0,X,16,a,1,614,,,,,,,,,A,1692,2,Rouge,0,16,0,0,,,0,BER,1945,0.26,0,0,2,3000,1,,,0,X among T,523
vs12,ber,4,2,08Feb2013,1208,mixed,500,400,2000,4,21,4.13309234252,0,X,16,z,1,365,,,,,,,,,A,1612,1,Vert,0,10,0,0,,,0,BER,2774,0.26,0,0,2,3000,1,,,0,X among T,524
vs12,ber,4,2,08Feb2013,1209,mixed,500,400,2000,4,32,3.73263712948,0,L,4,a,1,596,,,,,,,,,A,1127,1,Rouge,0,1,0,0,,,0,BER,1092.5,0.26,0,0,4,3000,3,,,0,L among T,525
vs12,ber,4,2,08Feb2013,1159,mixed,500,400,2000,2,14,3.72294163427,0,L,4,z,1,334,,,,,,,,,A,973,1,Vert,0,2,0,0,,,0,BER,1127.75,0.26,0,0,4,3000,3,,,0,L among T,526
vs12,ber,4,2,08Feb2013,1200,mixed,500,400,2000,2,33,1.56113352498,1,L,8,z,1,444,,,,,,,,,B,788,4,Vert,0,3,0,0,,,0,BER,1168.33,0.26,0,0,3,3000,2,,,0,L among T,527
vs12,ber,4,2,08Feb2013,1152,mixed,500,400,2000,1,12,4.9544437583,0,L,4,z,1,394,,,,,,,,,A,823,1,Vert,0,1,0,0,,,0,BER,347.56,0.26,0,0,9,3000,8,,,0,L among T,528
vs12,ber,4,2,08Feb2013,1212,mixed,500,400,2000,5,19,0.679620787486,0,L,4,a,1,347,,,,,,,,,A,792,1,Rouge,0,1,0,0,,,0,BER,619.2,0.26,0,0,5,3000,4,,,0,L among T,529
vs12,ber,4,2,08Feb2013,1220,mixed,500,400,2000,7,25,2.74942379858,1,L,4,a,1,273,,,,,,,,,A,1042,0,Rouge,0,3,0,0,,,0,BER,724.4,0.26,0,0,5,3000,4,,,0,L among T,530
vs12,ber,4,2,08Feb2013,1200,mixed,500,400,2000,2,30,1.69745976437,0,X,16,a,1,284,,,,,,,,,A,885,2,Rouge,0,5,0,0,,,0,BER,1376,0.27,0,0,3,3000,2,,,0,X among T,531
vs12,ber,4,2,08Feb2013,1159,mixed,500,400,2000,2,21,1.00942129564,0,L,16,z,1,384,,,,,,,,,B,1332,4,Vert,0,1,0,0,,,0,BER,1811,0.27,0,0,2,3000,1,,,0,L among T,532
vs12,ber,4,2,08Feb2013,1151,mixed,500,400,2000,1,3,4.29196730827,1,L,8,a,1,595,,,,,,,,,B,1005,4,Rouge,0,3,0,0,,,0,BER,1898,0.27,0,0,2,3000,1,,,0,L among T,533
vs12,ber,4,2,08Feb2013,1209,mixed,500,400,2000,4,34,0.523025171522,0,X,8,a,1,297,,,,,,,,,A,973,1,Rouge,0,6,0,0,,,0,BER,1063.5,0.27,0,0,4,3000,3,,,0,X among T,534
vs12,ber,4,2,08Feb2013,1222,mixed,500,400,2000,8,8,4.28715115745,0,L,8,z,1,251,,,,,,,,,A,5212,0,Vert,0,1,0,0,,,0,BER,1610.5,0.27,0,0,2,3000,1,,,0,L among T,535
vs12,ber,4,2,08Feb2013,1205,mixed,500,400,2000,3,33,4.79582280335,0,L,4,a,1,422,,,,,,,,,A,971,1,Rouge,0,2,0,0,,,0,BER,2232.5,0.27,0,0,2,3000,1,,,0,L among T,536
vs12,ber,4,2,08Feb2013,1203,mixed,500,400,2000,3,16,1.55064589871,1,L,8,z,1,462,,,,,,,,,B,701,5,Vert,0,7,0,0,,,0,BER,594.86,0.27,0,0,7,3000,6,,,0,L among T,537
vs12,ber,4,2,08Feb2013,1206,mixed,500,400,2000,4,6,5.80240580457,1,L,16,z,1,498,,,,,,,,,C,945,6,Vert,0,9,0,0,,,0,BER,722.75,0.27,0,0,4,3000,4,,,0,L among T,538
vs12,ber,4,2,08Feb2013,1143,Ent1,500,400,2000,1,9,3.8851353577,1,L,8,N,0,1000,,,,,,,,,,,,Vert,0,8,0,0,,,0,BER,741.2,0.27,0,0,5,3000,4,,,0,L among T,539
vs12,ber,4,2,08Feb2013,1213,mixed,500,400,2000,5,33,4.67364221781,1,X,16,a,1,305,,,,,,,,,A,1337,1,Rouge,0,11,0,0,,,0,BER,833,0.28,0,0,5,3000,4,,,0,X among T,540
vs12,ber,4,2,08Feb2013,1203,mixed,500,400,2000,3,10,6.17541578583,0,X,4,a,1,323,,,,,,,,,A,736,1,Rouge,0,4,0,0,,,0,BER,1775,0.28,0,0,2,3000,1,,,0,X among T,541
vs12,ber,4,2,08Feb2013,1216,mixed,500,400,2000,6,28,3.62528215242,0,L,4,a,1,891,,,,,,,,,A,1255,2,Rouge,0,3,0,0,,,0,BER,1777,0.28,0,0,2,3000,1,,,0,L among T,542
vs12,ber,4,2,08Feb2013,1152,mixed,500,400,2000,1,15,3.8418859013,0,L,8,z,1,280,,,,,,,,,A,1113,3,Vert,0,1,0,0,,,0,BER,574.4,0.28,0,0,5,3000,5,,,0,L among T,543
vs12,ber,4,2,08Feb2013,1220,mixed,500,400,2000,7,20,6.27873193989,1,X,8,a,1,462,,,,,,,,,A,1218,1,Rouge,0,7,0,0,,,0,BER,913.75,0.28,0,0,4,3000,3,,,0,X among T,544
vs12,ber,4,2,08Feb2013,1220,mixed,500,400,2000,7,29,2.068457317,0,L,16,a,1,320,,,,,,,,,B,946,5,Rouge,0,7,0,0,,,0,BER,1165.33,0.29,0,0,3,3000,2,,,0,L among T,545
vs12,ber,4,2,08Feb2013,1154,mixed,500,400,2000,1,34,3.45134823017,1,L,8,a,1,794,,,,,,,,,B,1285,5,Rouge,0,6,0,0,,,0,BER,1219.67,0.29,0,0,3,3000,2,,,0,L among T,546
vs12,ber,4,2,08Feb2013,1212,mixed,500,400,2000,5,24,0.0571242150112,1,X,16,z,1,417,,,,,,,,,A,1012,1,Vert,0,4,0,0,,,0,BER,1291.33,0.29,0,0,3,3000,2,,,0,X among T,547
vs12,ber,4,2,08Feb2013,1158,mixed,500,400,2000,2,4,3.68322908358,0,L,8,a,1,263,,,,,,,,,A,649,3,Rouge,0,7,0,0,,,0,BER,1736.5,0.29,0,0,2,3000,1,,,0,L among T,548
vs12,ber,4,2,08Feb2013,1221,mixed,500,400,2000,8,3,4.25165301289,1,L,8,a,1,322,,,,,,,,,A,2020,3,Rouge,0,4,0,0,,,0,BER,1804.5,0.29,0,0,2,3000,1,,,0,L among T,549
vs12,ber,4,2,08Feb2013,1143,Ent1,500,400,2000,1,8,4.64465926145,0,L,4,a,1,329,,,,,,,,,,,,Rouge,0,1,0,0,,,0,BER,1940.5,0.29,0,0,2,3000,1,,,0,L among T,550
vs12,ber,4,2,08Feb2013,1141,Ent1,500,400,2000,1,2,5.79316330543,0,X,16,0,0,,,,,,,,,,,,Rouge,0,8,0,0,,,0,0,BER,289.17,0.29,0,0,6,2685,5,,,0,X among T,551
vs12,ber,4,2,08Feb2013,1141,Ent1,500,400,2000,1,1,2.92180290136,0,L,8,a,1,496,,,,,,,,,,,,Rouge,0,6,0,0,,,0,BER,321.62,0.29,0,0,8,3000,7,,,0,L among T,552
vs12,ber,4,2,08Feb2013,1215,mixed,500,400,2000,6,11,2.25769623606,1,X,8,z,1,462,,,,,,,,,A,1568,1,Vert,0,2,0,0,,,0,BER,761.25,0.29,0,0,4,3000,3,,,0,X among T,553
vs12,ber,4,2,08Feb2013,1211,mixed,500,400,2000,5,7,3.75196120178,1,X,16,z,1,346,,,,,,,,,A,1683,1,Vert,0,14,0,0,,,0,BER,880.5,0.29,0,0,4,3000,3,,,0,X among T,554
vs12,ber,4,2,08Feb2013,1210,mixed,500,400,2000,5,5,1.68155460138,1,L,4,z,1,321,,,,,,,,,A,1008,1,Vert,0,2,0,0,,,0,BER,994.33,0.29,0,0,3,3000,2,,,0,L among T,555
vs12,ber,4,2,08Feb2013,1219,mixed,500,400,2000,7,8,5.57564370537,0,X,4,z,1,677,,,,,,,,,A,3672,0,Vert,0,3,0,0,,,0,BER,1085,0.3,0,0,3,3000,2,,,0,X among T,556
vs12,ber,4,2,08Feb2013,1218,mixed,500,400,2000,7,3,6.08040685466,1,L,4,z,1,284,,,,,,,,,A,1391,0,Vert,0,1,0,0,,,0,BER,1133,0.3,0,0,3,3000,2,,,0,L among T,557
vs12,ber,4,2,08Feb2013,1207,mixed,500,400,2000,4,19,4.45918524513,1,X,8,a,1,288,,,,,,,,,A,1067,1,Rouge,0,7,0,0,,,0,BER,1522,0.3,0,0,3,3000,2,,,0,X among T,558
vs12,ber,4,2,08Feb2013,1150,Ent2,500,400,2000,1,9,0.373182120863,0,X,8,a,1,312,,,,,,,,,A,1339,0,Rouge,0,1,0,0,,,0,BER,1789,0.3,0,0,2,3000,1,,,0,X among T,559
vs12,ber,4,2,08Feb2013,1211,mixed,500,400,2000,5,12,0.818263856458,1,L,8,z,1,378,,,,,,,,,A,911,3,Vert,0,6,0,0,,,0,BER,1791,0.3,0,0,2,3000,1,,,0,L among T,560
vs12,ber,4,2,08Feb2013,1202,mixed,500,400,2000,3,6,2.92289671588,1,X,8,z,1,367,,,,,,,,,A,1231,1,Vert,0,3,0,0,,,0,BER,1326.67,0.3,0,0,3,3000,2,,,0,X among T,561
vs12,ber,4,2,08Feb2013,1215,mixed,500,400,2000,6,9,2.6725014569,1,X,8,a,1,574,,,,,,,,,A,1799,1,Rouge,0,4,0,0,,,0,BER,1895.5,0.3,0,0,2,3000,1,,,0,X among T,562
vs12,ber,4,2,08Feb2013,1142,Ent1,500,400,2000,1,8,5.13986378974,0,L,4,z,1,365,,,,,,,,,,,,Vert,0,1,0,0,,,0,BER,64.72,0.3,0,0,18,3000,18,,,0,L among T,563
vs12,ber,4,2,08Feb2013,1223,mixed,500,400,2000,8,20,5.42777000493,0,L,8,z,1,242,,,,,,,,,A,1152,3,Vert,0,2,0,0,,,0,BER,826.75,0.3,0,0,4,3000,3,,,0,L among T,564
vs12,ber,4,2,08Feb2013,1215,mixed,500,400,2000,6,14,2.07162422122,1,L,8,z,1,509,,,,,,,,,A,1433,3,Vert,0,2,0,0,,,0,BER,987.67,0.3,0,0,3,3000,2,,,0,L among T,565
vs12,ber,4,2,08Feb2013,1159,mixed,500,400,2000,2,19,2.81572453295,0,X,16,0,0,,,,,,,,,,,,Rouge,0,10,0,0,,,0,0,BER,434,0.31,1,0,2,1098,1,,,0,X among T,566
vs12,ber,4,2,08Feb2013,1208,mixed,500,400,2000,4,23,0.0744374496348,0,L,8,z,1,342,,,,,,,,,B,1697,5,Vert,0,2,0,0,,,0,BER,2978,0.31,0,0,1,3000,1,,,0,L among T,567
vs12,ber,4,2,08Feb2013,1145,Ent1,500,400,2000,1,9,5.60939167981,1,L,8,a,1,313,,,,,,,,,,,,Rouge,0,5,0,0,,,0,BER,1177.67,0.31,0,0,3,3000,2,,,0,L among T,568
vs12,ber,4,2,08Feb2013,1203,mixed,500,400,2000,3,9,3.0510702191,1,X,16,z,1,366,,,,,,,,,A,1166,1,Vert,0,5,0,0,,,0,BER,429.83,0.31,1,0,6,3000,5,,,0,X among T,569
vs12,ber,4,2,08Feb2013,1204,mixed,500,400,2000,3,31,2.48774334593,0,L,16,a,1,245,,,,,,,,,A,576,3,Rouge,0,6,0,0,,,0,BER,802,0.32,0,0,5,3000,4,,,0,L among T,570
vs12,ber,4,2,08Feb2013,1203,mixed,500,400,2000,3,15,6.006007618,1,L,4,a,1,312,,,,,,,,,B,1000,4,Rouge,0,2,0,0,,,0,BER,1137,0.32,0,0,3,3000,2,,,0,L among T,571
vs12,ber,4,2,08Feb2013,1200,mixed,500,400,2000,2,34,5.47111701157,1,L,8,a,1,337,,,,,,,,,A,857,1,Rouge,0,3,0,0,,,0,BER,1430,0.32,0,0,3,3000,2,,,0,L among T,572
vs12,ber,4,2,08Feb2013,1222,mixed,500,400,2000,8,4,0.90746328886,1,X,4,a,1,466,,,,,,,,,A,1914,0,Rouge,0,3,0,0,,,0,BER,1643,0.32,0,0,2,3000,1,,,0,X among T,573
vs12,ber,4,2,08Feb2013,1152,mixed,500,400,2000,1,10,4.70002660319,0,L,8,a,1,337,,,,,,,,,A,995,1,Rouge,0,2,0,0,,,0,BER,1774,0.32,0,0,2,3000,1,,,0,L among T,574
vs12,ber,4,2,08Feb2013,1158,mixed,500,400,2000,2,8,0.617226338667,1,L,16,z,1,278,,,,,,,,,A,897,3,Vert,0,5,0,0,,,0,BER,1948,0.32,0,0,2,3000,1,,,0,L among T,575
vs12,ber,4,2,08Feb2013,1150,Ent2,500,400,2000,1,12,1.10219047033,1,X,8,a,1,1198,,,,,,,,,A,1118,3,Rouge,0,4,0,0,,,0,BER,2213,0.32,0,0,2,3000,1,,,0,X among T,576
vs12,ber,4,2,08Feb2013,1153,mixed,500,400,2000,1,23,1.89390750352,0,X,4,z,1,375,,,,,,,,,A,796,3,Vert,0,2,0,0,,,0,BER,1031.33,0.32,0,0,3,3000,2,,,0,X among T,577
vs12,ber,4,2,08Feb2013,1212,mixed,500,400,2000,5,22,4.33557342971,1,X,8,a,1,282,,,,,,,,,A,1279,1,Rouge,0,4,0,0,,,0,BER,1262.33,0.32,0,0,3,3000,2,,,0,X among T,578
vs12,ber,4,2,08Feb2013,1212,mixed,500,400,2000,5,30,3.63174290678,1,X,4,z,1,264,,,,,,,,,A,693,1,Vert,0,3,0,0,,,0,BER,1541.5,0.32,0,0,2,3000,1,,,0,X among T,579
vs12,ber,4,2,08Feb2013,1151,mixed,500,400,2000,1,4,0.122737704774,1,L,16,z,1,818,,,,,,,,,C,1158,6,Vert,0,9,0,0,,,0,BER,1939.5,0.32,0,0,2,3000,1,,,0,L among T,580
vs12,ber,4,2,08Feb2013,1152,mixed,500,400,2000,1,17,5.51303327786,0,X,8,a,1,293,,,,,,,,,A,1064,1,Rouge,0,5,0,0,,,0,BER,686.4,0.32,0,0,5,3000,4,,,0,X among T,581
vs12,ber,4,2,08Feb2013,1221,mixed,500,400,2000,7,35,0.953284832602,1,L,16,z,1,282,,,,,,,,,A,1204,0,Vert,0,11,0,0,,,0,BER,918.5,0.32,0,0,4,3000,3,,,0,L among T,582
vs12,ber,4,2,08Feb2013,1152,mixed,500,400,2000,1,9,3.59403847574,1,L,4,a,1,274,,,,,,,,,A,743,1,Rouge,0,2,0,0,,,0,BER,1769,0.33,0,0,2,3000,1,,,0,L among T,583
vs12,ber,4,2,08Feb2013,1144,Ent1,500,400,2000,1,12,0.920261829665,0,X,8,a,1,337,,,,,,,,,,,,Rouge,0,7,0,0,,,0,BER,1985,0.33,0,0,2,3000,1,,,0,X among T,584
vs12,ber,4,2,08Feb2013,1216,mixed,500,400,2000,6,24,0.655350946763,1,L,8,z,1,312,,,,,,,,,B,4080,5,Vert,0,2,0,0,,,0,BER,1128.33,0.33,0,0,3,3000,2,,,0,L among T,585
vs12,ber,4,2,08Feb2013,1207,mixed,500,400,2000,4,18,4.54013373108,0,X,4,z,1,387,,,,,,,,,A,1085,1,Vert,0,2,0,0,,,0,BER,1136.75,0.33,0,0,4,3000,3,,,0,X among T,586
vs12,ber,4,2,08Feb2013,1220,mixed,500,400,2000,7,23,0.406084173425,0,L,8,z,1,266,,,,,,,,,A,893,3,Vert,0,6,0,0,,,0,BER,1153.67,0.33,0,0,3,3000,2,,,0,L among T,587
vs12,ber,4,2,08Feb2013,1149,Ent2,500,400,2000,1,2,3.10512510527,0,X,16,a,1,318,,,,,,,,,A,1837,2,Rouge,0,4,0,0,,,0,BER,1346.67,0.33,0,0,3,3000,2,,,0,X among T,588
vs12,ber,4,2,08Feb2013,1203,mixed,500,400,2000,3,11,5.76497460742,0,X,16,z,1,358,,,,,,,,,A,764,2,Vert,0,8,0,0,,,0,BER,1555.67,0.33,0,0,3,3000,2,,,0,X among T,589
vs12,ber,4,2,08Feb2013,1200,mixed,500,400,2000,2,25,3.60849107051,0,X,8,a,1,278,,,,,,,,,A,1266,1,Rouge,0,3,0,0,,,0,BER,1541,0.34,0,0,3,3000,2,,,0,X among T,590
vs12,ber,4,2,08Feb2013,1209,mixed,500,400,2000,4,35,2.68304563823,1,X,16,a,1,318,,,,,,,,,A,1009,1,Rouge,0,13,0,0,,,0,BER,1430.33,0.34,0,0,3,3000,2,,,0,X among T,591
vs12,ber,4,2,08Feb2013,1145,Ent1,500,400,2000,1,12,3.52959047322,0,X,8,a,1,418,,,,,,,,,,,,Rouge,0,8,0,0,,,0,BER,246.14,0.34,0,0,14,3000,13,,,0,X among T,592
vs12,ber,4,2,08Feb2013,1152,mixed,500,400,2000,1,16,3.56942846976,0,L,16,a,1,366,,,,,,,,,C,968,6,Rouge,0,3,0,0,,,0,BER,506.86,0.34,0,0,7,3000,6,,,0,L among T,593
vs12,ber,4,2,08Feb2013,1223,mixed,500,400,2000,8,17,1.67455279128,1,X,16,z,1,471,,,,,,,,,A,2528,3,Vert,0,3,0,0,,,0,BER,894.5,0.34,0,0,4,3000,3,,,0,X among T,594
vs12,ber,4,2,08Feb2013,1154,mixed,500,400,2000,1,32,1.2686744055,0,X,16,z,1,554,,,,,,,,,A,1458,1,Vert,0,4,0,0,,,0,BER,988.2,0.34,0,0,5,3000,4,,,0,X among T,595
vs12,ber,4,2,08Feb2013,1212,mixed,500,400,2000,5,27,2.69443862209,1,L,16,z,1,387,,,,,,,,,A,794,3,Vert,0,1,0,0,,,0,BER,2378,0.35,0,0,2,3000,1,,,0,L among T,596
vs12,ber,4,2,08Feb2013,1204,mixed,500,400,2000,3,21,3.520194617,1,L,4,a,1,299,,,,,,,,,A,977,3,Rouge,0,4,0,0,,,0,BER,1083.33,0.35,0,0,3,3000,2,,,0,L among T,597
vs12,ber,4,2,08Feb2013,1217,mixed,500,400,2000,6,36,2.71411484263,0,L,8,a,1,452,,,,,,,,,A,1400,2,Rouge,0,6,0,0,,,0,BER,723.6,0.35,0,0,5,3000,4,,,0,L among T,598
vs12,ber,4,2,08Feb2013,1212,mixed,500,400,2000,5,29,0.933782997559,1,L,16,a,1,319,,,,,,,,,A,764,1,Rouge,0,15,0,0,,,0,BER,957.75,0.35,0,0,4,3000,3,,,0,L among T,599
vs12,ber,4,2,08Feb2013,1216,mixed,500,400,2000,6,22,0.808812520936,0,L,16,a,1,382,,,,,,,,,A,6205,2,Rouge,0,14,0,0,,,0,BER,896,0.36,0,0,4,3000,3,,,0,L among T,600
vs12,ber,4,2,08Feb2013,1208,mixed,500,400,2000,4,27,5.93222341639,1,L,8,z,1,275,,,,,,,,,A,1306,1,Vert,0,5,0,0,,,0,BER,2121,0.36,0,0,2,3000,1,,,0,L among T,601
vs12,ber,4,2,08Feb2013,1203,mixed,500,400,2000,3,17,1.94555238229,1,L,16,a,1,496,,,,,,,,,C,645,6,Rouge,0,16,0,0,,,0,BER,1997.5,0.36,0,0,2,3000,1,,,0,L among T,602
vs12,ber,4,2,08Feb2013,1204,mixed,500,400,2000,3,29,2.78419242423,0,X,4,a,1,370,,,,,,,,,A,1506,2,Rouge,0,3,0,0,,,0,BER,2419.5,0.36,0,0,2,3000,1,,,0,X among T,603
vs12,ber,4,2,08Feb2013,1218,mixed,500,400,2000,7,5,1.75288069449,1,X,4,a,1,312,,,,,,,,,A,965,0,Rouge,0,3,0,0,,,0,BER,646,0.37,0,0,5,3000,4,,,0,X among T,604
vs12,ber,4,2,08Feb2013,1217,mixed,500,400,2000,6,30,4.83860567038,0,X,8,a,1,469,,,,,,,,,A,3200,0,Rouge,0,1,0,0,,,0,BER,1901,0.37,0,0,2,3000,1,,,0,X among T,605
vs12,ber,4,2,08Feb2013,1145,Ent1,500,400,2000,1,5,6.14747674484,1,X,16,z,1,322,,,,,,,,,,,,Vert,0,3,0,0,,,0,BER,1537.5,0.37,0,0,2,3000,1,,,0,X among T,606
vs12,ber,4,2,08Feb2013,1215,mixed,500,400,2000,6,12,4.41101914798,0,X,4,z,1,535,,,,,,,,,A,1292,0,Vert,0,2,0,0,,,0,BER,1729.5,0.37,0,0,2,3000,1,,,0,X among T,607
vs12,ber,4,2,08Feb2013,1217,mixed,500,400,2000,6,32,3.08498320839,0,L,4,z,1,410,,,,,,,,,A,955,2,Vert,0,3,0,0,,,0,BER,665.2,0.37,0,0,5,3000,4,,,0,L among T,608
vs12,ber,4,2,08Feb2013,1211,mixed,500,400,2000,5,13,1.07666340411,0,L,16,a,1,260,,,,,,,,,C,754,6,Rouge,0,13,0,0,,,0,BER,83.8,0.37,0,0,15,3000,14,,,0,L among T,609
vs12,ber,4,2,08Feb2013,1142,Ent1,500,400,2000,1,7,0.0155229198185,1,X,8,a,1,465,,,,,,,,,,,,Rouge,0,1,0,0,,,0,BER,128.22,0.38,0,0,9,3000,9,,,0,X among T,610
vs12,ber,4,2,08Feb2013,1212,mixed,500,400,2000,5,20,4.64185468002,1,X,4,z,1,292,,,,,,,,,A,936,1,Vert,0,3,0,0,,,0,BER,171.83,0.38,0,0,6,3000,5,,,0,X among T,611
vs12,ber,4,2,08Feb2013,1212,mixed,500,400,2000,5,21,2.02113069354,1,X,8,z,1,293,,,,,,,,,A,1085,0,Vert,0,7,0,0,,,0,BER,433,0.39,0,0,8,3000,7,,,0,X among T,612
vs12,ber,4,2,08Feb2013,1214,mixed,500,400,2000,6,6,0.982637578961,0,X,4,z,1,318,,,,,,,,,A,1885,1,Vert,0,4,0,0,,,0,BER,1157.67,0.39,0,0,3,3000,2,,,0,X among T,613
vs12,ber,4,2,08Feb2013,1215,mixed,500,400,2000,6,19,5.70750399849,0,X,16,a,1,289,,,,,,,,,B,827,4,Rouge,0,13,0,0,,,0,BER,2097.5,0.39,0,0,2,3000,1,,,0,X among T,614
vs12,ber,4,2,08Feb2013,1220,mixed,500,400,2000,7,21,0.380579779444,1,X,8,a,1,329,,,,,,,,,A,1385,0,Rouge,0,6,0,0,,,0,BER,811.75,0.39,0,0,4,3000,3,,,0,X among T,615
vs12,ber,4,2,08Feb2013,1143,Ent1,500,400,2000,1,10,5.21041311732,1,L,4,z,1,363,,,,,,,,,,,,Vert,0,1,0,0,,,0,BER,1251,0.4,0,0,3,3000,2,,,0,L among T,616
vs12,ber,4,2,08Feb2013,1207,mixed,500,400,2000,4,10,5.93921639649,1,L,4,z,1,354,,,,,,,,,A,1107,1,Vert,0,3,0,0,,,0,BER,1844,0.4,0,0,2,3000,1,,,0,L among T,617
vs12,ber,4,2,08Feb2013,1224,mixed,500,400,2000,8,26,4.87985660722,0,X,4,z,1,246,,,,,,,,,A,992,1,Vert,0,2,0,0,,,0,BER,1749.5,0.4,0,0,2,3000,1,,,0,X among T,618
vs12,ber,4,2,08Feb2013,1159,mixed,500,400,2000,2,22,0.46871844125,1,X,8,z,1,363,,,,,,,,,B,918,4,Vert,0,6,0,0,,,0,BER,938.5,0.4,1,0,4,3000,3,,,0,X among T,619
vs12,ber,4,2,08Feb2013,1219,mixed,500,400,2000,7,19,5.35510314454,0,X,4,a,1,282,,,,,,,,,A,913,0,Rouge,0,3,0,0,,,0,BER,1863,0.41,0,0,2,3000,1,,,0,X among T,620
vs12,ber,4,2,08Feb2013,1204,mixed,500,400,2000,3,20,4.76855117678,1,X,8,z,1,484,,,,,,,,,A,1236,1,Vert,0,4,0,0,,,0,BER,1106.75,0.41,0,0,4,3000,3,,,0,X among T,621
vs12,ber,4,2,08Feb2013,1211,mixed,500,400,2000,5,15,5.77931036165,0,X,4,z,1,335,,,,,,,,,A,677,1,Vert,0,1,0,0,,,0,BER,466.2,0.41,0,0,5,3000,4,,,0,X among T,622
vs12,ber,4,2,08Feb2013,1150,Ent2,500,400,2000,1,11,0.271202969993,1,L,8,a,1,618,,,,,,,,,B,1655,4,Rouge,0,6,0,0,,,0,BER,629.5,0.41,0,0,6,3000,5,,,0,L among T,623
vs12,ber,4,2,08Feb2013,1208,mixed,500,400,2000,4,30,4.44363494205,0,L,8,z,1,419,,,,,,,,,B,767,5,Vert,0,4,0,0,,,0,BER,833.8,0.41,0,0,5,3000,4,,,0,L among T,624
vs12,ber,4,2,08Feb2013,1153,mixed,500,400,2000,1,20,5.41810866778,1,X,8,z,1,336,,,,,,,,,A,996,1,Vert,0,3,0,0,,,0,BER,479.33,0.42,1,0,6,3000,5,,,0,X among T,625
vs12,ber,4,2,08Feb2013,1207,mixed,500,400,2000,4,16,6.25176674227,0,X,8,z,1,316,,,,,,,,,A,1269,0,Vert,0,6,0,0,,,0,BER,751.25,0.42,0,0,4,3000,3,,,0,X among T,626
vs12,ber,4,2,08Feb2013,1213,mixed,500,400,2000,5,32,3.10869757771,0,L,16,a,1,794,,,,,,,,,D,1039,9,Rouge,0,1,0,0,,,0,BER,248.36,0.43,0,0,11,3000,11,,,0,L among T,627
vs12,ber,4,2,08Feb2013,1153,mixed,500,400,2000,1,28,5.06369993022,0,L,4,z,1,340,,,,,,,,,A,767,3,Vert,0,3,0,0,,,0,BER,460.12,0.43,1,0,8,3000,7,,,0,L among T,628
vs12,ber,4,2,08Feb2013,1207,mixed,500,400,2000,4,8,5.26917907116,0,X,16,z,1,375,,,,,,,,,A,1286,1,Vert,0,5,0,0,,,0,BER,948.75,0.43,0,0,4,3000,3,,,0,X among T,629
vs12,ber,4,2,08Feb2013,1219,mixed,500,400,2000,7,11,4.36903346853,0,X,8,a,1,469,,,,,,,,,A,1353,2,Rouge,0,8,0,0,,,0,BER,1874.5,0.45,0,0,2,3000,1,,,0,X among T,630
vs12,ber,4,2,08Feb2013,1220,mixed,500,400,2000,7,27,1.48574595789,0,L,16,0,0,,,,,,,,,,,,Rouge,0,12,0,0,,,0,0,BER,230.17,0.45,0,0,6,1647,6,,,0,L among T,631
vs12,ber,4,2,08Feb2013,1208,mixed,500,400,2000,4,20,0.736477898938,1,X,16,z,1,274,,,,,,,,,A,1012,1,Vert,0,8,0,0,,,0,BER,1243.67,0.46,0,0,3,3000,2,,,0,X among T,632
vs12,ber,4,2,08Feb2013,1143,Ent1,500,400,2000,1,2,6.24159709709,0,X,16,z,1,449,,,,,,,,,,,,Vert,0,14,0,0,,,0,BER,790.8,0.46,0,0,5,3000,4,,,0,X among T,633
