manip,subject,session,order,mm,tm,trialType,iti,fixDur,stimDur,nBlock,nTrial,alpha,present,targType,nItems,resp,acc,rt,confidence,estNItems,estTime,confidenceRT,estNItemsRT,estTimeRT,training,task,trialId
vs12,benlakhal,1,0,13Dec2010,1334,pTSer,500,567,200,1,1,4.86365302378,0,L,2,a,1,2457,,,,,,,1,L among T,1
vs12,benlakhal,1,0,13Dec2010,1334,pTSer,500,436,200,1,2,0.808050005676,1,L,2,z,1,2015,,,,,,,1,L among T,2
vs12,benlakhal,1,0,13Dec2010,1334,pTSer,500,471,200,1,3,2.38860157385,0,L,8,a,1,2298,,,,,,,1,L among T,3
vs12,benlakhal,1,0,13Dec2010,1334,pTSer,500,433,200,1,4,3.87825569093,0,L,4,z,0,2016,,,,,,,1,L among T,4
vs12,benlakhal,1,0,13Dec2010,1334,pTSer,500,514,200,1,5,5.21536026626,1,L,8,a,0,2016,,,,,,,1,L among T,5
vs12,benlakhal,1,0,13Dec2010,1334,pTSer,500,452,200,1,6,5.09714125324,1,L,12,z,1,2014,,,,,,,1,L among T,6
vs12,benlakhal,1,0,13Dec2010,1334,pTSer,500,435,200,1,7,3.55623355969,1,L,4,a,0,2016,,,,,,,1,L among T,7
vs12,benlakhal,1,0,13Dec2010,1334,pTSer,500,683,200,1,8,6.19351872581,0,L,2,a,1,2025,,,,,,,1,L among T,8
vs12,benlakhal,1,0,13Dec2010,1335,pTSer,500,564,200,1,9,0.948491963261,0,L,4,z,0,2016,,,,,,,1,L among T,9
vs12,benlakhal,1,0,13Dec2010,1335,pTSer,500,455,200,1,10,5.93943312887,0,L,12,z,0,16444,,,,,,,1,L among T,10
vs12,benlakhal,1,0,13Dec2010,1335,pTSer,500,455,200,1,11,2.06634235005,0,L,12,z,0,15102,,,,,,,1,L among T,11
vs12,benlakhal,1,0,13Dec2010,1335,pTSer,500,619,200,1,12,5.21896921197,1,L,12,a,0,2041,,,,,,,1,L among T,12
vs12,benlakhal,1,0,13Dec2010,1335,pTSer,500,698,200,1,13,0.520599399383,0,L,8,a,1,2016,,,,,,,1,L among T,13
vs12,benlakhal,1,0,13Dec2010,1335,pTSer,500,599,200,1,14,3.18294531536,1,L,2,z,1,2016,,,,,,,1,L among T,14
vs12,benlakhal,1,0,13Dec2010,1335,pTSer,500,623,200,1,15,2.56973337639,1,L,4,z,1,2016,,,,,,,1,L among T,15
vs12,benlakhal,1,0,13Dec2010,1335,pTSer,500,488,200,1,16,5.47388636223,1,L,8,z,1,2015,,,,,,,1,L among T,16
vs12,benlakhal,1,0,13Dec2010,1335,pTSer,500,418,200,1,1,0.499428886997,0,L,2,a,1,2015,,,,,,,1,L among T,17
vs12,benlakhal,1,0,13Dec2010,1335,pTSer,500,493,200,1,2,3.23829115934,1,L,2,z,1,2016,,,,,,,1,L among T,18
vs12,benlakhal,1,0,13Dec2010,1336,pTSer,500,553,200,1,3,0.144209704521,0,L,8,a,1,2015,,,,,,,1,L among T,19
vs12,benlakhal,1,0,13Dec2010,1336,pTSer,500,573,200,1,4,0.214613215147,0,L,4,a,1,2016,,,,,,,1,L among T,20
vs12,benlakhal,1,0,13Dec2010,1336,pTSer,500,563,200,1,5,1.45747573534,1,L,8,z,1,2012,,,,,,,1,L among T,21
vs12,benlakhal,1,0,13Dec2010,1336,pTSer,500,442,200,1,6,0.781927047021,1,L,12,z,1,2016,,,,,,,1,L among T,22
vs12,benlakhal,1,0,13Dec2010,1336,pTSer,500,434,200,1,7,3.04164402334,1,L,4,z,1,2016,,,,,,,1,L among T,23
vs12,benlakhal,1,0,13Dec2010,1336,pTSer,500,511,200,1,8,5.64067595175,0,L,2,a,1,2016,,,,,,,1,L among T,24
vs12,benlakhal,1,0,13Dec2010,1336,pTSer,500,472,200,1,9,6.06260406307,0,L,4,a,1,2015,,,,,,,1,L among T,25
vs12,benlakhal,1,0,13Dec2010,1336,pTSer,500,685,200,1,10,2.35866647467,0,L,12,z,0,2013,,,,,,,1,L among T,26
vs12,benlakhal,1,0,13Dec2010,1336,pTSer,500,457,200,1,11,6.13738618617,0,L,12,a,1,2016,,,,,,,1,L among T,27
vs12,benlakhal,1,0,13Dec2010,1336,pTSer,500,676,200,1,12,0.801278173465,1,L,12,z,1,2015,,,,,,,1,L among T,28
vs12,benlakhal,1,0,13Dec2010,1336,pTSer,500,480,200,1,13,0.858602569295,0,L,8,a,1,2016,,,,,,,1,L among T,29
vs12,benlakhal,1,0,13Dec2010,1336,pTSer,500,518,200,1,14,1.7531986071,1,L,2,z,1,2015,,,,,,,1,L among T,30
vs12,benlakhal,1,0,13Dec2010,1336,pTSer,500,426,200,1,15,3.91815632747,1,L,4,z,1,2014,,,,,,,1,L among T,31
vs12,benlakhal,1,0,13Dec2010,1336,pTSer,500,684,200,1,16,4.4872324851,1,L,8,z,1,2015,,,,,,,1,L among T,32
vs12,benlakhal,1,0,13Dec2010,1341,tSerial,500,512,200,1,1,5.55568778934,1,L,12,a,0,3146,0,35.352,711,7584,13762,18109,1,L among T,33
vs12,benlakhal,1,0,13Dec2010,1342,tSerial,500,605,200,1,2,3.05267747619,0,L,2,z,0,12385,1,24.37,623,13226,14313,15571,1,L among T,34
vs12,benlakhal,1,0,13Dec2010,1342,tSerial,500,654,200,1,3,2.34988452792,0,L,4,a,1,557,0,1.428,866,7052,12302,19996,1,L among T,35
vs12,benlakhal,1,0,13Dec2010,1343,tSerial,500,446,200,1,4,3.63386938644,0,L,12,a,1,469,3,3.228,902,8213,5486,9843,1,L among T,36
vs12,benlakhal,1,0,13Dec2010,1343,tSerial,500,483,200,1,5,4.49498503396,0,L,8,a,1,213,0,0.104,870,6511,7999,8856,1,L among T,37
vs12,benlakhal,1,0,13Dec2010,1343,tSerial,500,470,200,1,6,3.87195419172,0,L,8,a,1,379,4,1.432,686,3910,2552,5411,1,L among T,38
vs12,benlakhal,1,0,13Dec2010,1343,tSerial,500,468,200,1,7,3.43464773918,1,L,8,a,0,726,1,4.208,542,3009,4138,5182,1,L among T,39
vs12,benlakhal,1,0,13Dec2010,1343,tSerial,500,647,200,1,8,6.16538116983,1,L,2,a,0,442,9,0.484,387,12521,4526,14180,1,L among T,40
vs12,benlakhal,1,0,13Dec2010,1344,tSerial,500,541,200,1,9,5.30407199336,1,L,2,z,1,499,9,0.598,358,4211,8685,9800,1,L among T,41
vs12,benlakhal,1,0,13Dec2010,1344,tSerial,500,591,200,1,10,5.32628098158,0,L,12,z,0,413,1,2.556,461,7112,5926,8656,1,L among T,42
vs12,benlakhal,1,0,13Dec2010,1344,tSerial,500,494,200,1,11,0.799560513079,1,L,4,z,1,399,3,0.796,350,9858,4940,13792,1,L among T,43
vs12,benlakhal,1,0,13Dec2010,1344,tSerial,500,547,200,1,12,3.75324362498,1,L,12,z,1,384,2,2.208,425,6296,4053,7267,1,L among T,44
vs12,benlakhal,1,0,13Dec2010,1344,tSerial,500,544,200,1,13,3.40609279745,1,L,4,z,1,399,1,0.796,362,3659,2379,6248,1,L among T,45
vs12,benlakhal,1,0,13Dec2010,1345,tSerial,500,485,200,1,14,2.09116630973,0,L,4,z,0,342,6,0.568,391,2906,2079,10770,1,L among T,46
vs12,benlakhal,1,0,13Dec2010,1345,tSerial,500,514,200,1,15,2.10090616002,0,L,2,z,0,499,10,0.598,336,4167,2651,5766,1,L among T,47
vs12,benlakhal,1,0,13Dec2010,1345,tSerial,500,457,200,1,16,4.06623988281,1,L,8,z,1,385,2,3,462,5707,4367,1894,1,L among T,48
vs12,benlakhal,1,0,13Dec2010,1347,serial,500,532,200,1,1,5.23681737139,1,L,4,a,0,586,0,2,355,7283,5498,8356,0,L among T,49
vs12,benlakhal,1,0,13Dec2010,1347,serial,500,695,200,1,2,2.77723560233,1,L,8,z,1,414,5,3,398,5837,17151,18480,0,L among T,50
vs12,benlakhal,1,0,13Dec2010,1348,serial,500,636,200,1,3,1.8341953758,0,L,4,z,0,370,4,2,457,2351,3595,5168,0,L among T,51
vs12,benlakhal,1,0,13Dec2010,1348,serial,500,624,200,1,4,2.7585234677,1,L,4,z,1,356,1,1,401,3121,1948,4808,0,L among T,52
vs12,benlakhal,1,0,13Dec2010,1348,serial,500,562,200,1,5,4.70023507993,0,L,12,z,0,428,1,2,348,3533,2347,4506,0,L among T,53
vs12,benlakhal,1,0,13Dec2010,1348,serial,500,616,200,1,6,3.30682679267,1,L,8,z,1,471,8,0,328,4824,3610,8085,0,L among T,54
vs12,benlakhal,1,0,13Dec2010,1348,serial,500,626,200,1,7,6.04289246395,1,L,2,z,1,500,9,1,326,6077,4389,7421,0,L among T,55
vs12,benlakhal,1,0,13Dec2010,1348,serial,500,424,200,1,8,5.91267989858,1,L,12,z,1,442,9,2,355,5510,3651,6997,0,L among T,56
vs12,benlakhal,1,0,13Dec2010,1348,serial,500,483,200,1,9,4.35011486176,1,L,12,z,1,399,8,1,317,2876,1203,3920,0,L among T,57
vs12,benlakhal,1,0,13Dec2010,1348,serial,500,624,200,1,10,2.81972428576,0,L,4,z,0,442,2,1,367,3348,2193,4550,0,L among T,58
vs12,benlakhal,1,0,13Dec2010,1349,serial,500,678,200,1,11,5.99592761596,1,L,12,z,1,484,9,1,361,4449,2996,8597,0,L among T,59
vs12,benlakhal,1,0,13Dec2010,1349,serial,500,692,200,1,12,3.13208552634,1,L,2,z,1,428,9,2,405,5367,2107,6568,0,L among T,60
vs12,benlakhal,1,0,13Dec2010,1349,serial,500,532,200,1,13,5.36999476085,0,L,12,z,0,371,5,2,341,12230,3821,14934,0,L among T,61
vs12,benlakhal,1,0,13Dec2010,1349,serial,500,430,200,1,14,5.91973887199,1,L,4,a,0,399,9,1,377,3749,2777,4892,0,L among T,62
vs12,benlakhal,1,0,13Dec2010,1349,serial,500,472,200,1,15,4.4147575576,0,L,8,z,0,400,1,3,372,3877,2692,5136,0,L among T,63
vs12,benlakhal,1,0,13Dec2010,1349,serial,500,664,200,1,16,3.5618530458,0,L,8,z,0,413,8,2,346,5737,2651,7239,0,L among T,64
vs12,benlakhal,1,0,13Dec2010,1350,serial,500,465,200,1,17,4.21952705691,0,L,4,z,0,427,9,2,392,7353,9226,10397,0,L among T,65
vs12,benlakhal,1,0,13Dec2010,1350,serial,500,677,200,1,18,5.91124063944,0,L,4,z,0,757,9,1,370,2238,3009,4368,0,L among T,66
vs12,benlakhal,1,0,13Dec2010,1350,serial,500,523,200,1,19,4.15353510643,0,L,12,z,0,653,2,2,415,3910,2866,4897,0,L among T,67
vs12,benlakhal,1,0,13Dec2010,1350,serial,500,619,200,1,20,2.58609620657,1,L,4,z,1,514,9,1,393,4952,3079,7255,0,L among T,68
vs12,benlakhal,1,0,13Dec2010,1350,serial,500,498,200,1,21,4.76227426407,0,L,12,z,0,426,9,4,356,6056,1794,7214,0,L among T,69
vs12,benlakhal,1,0,13Dec2010,1350,serial,500,546,200,1,22,0.189360803718,0,L,8,z,0,657,9,2,390,4954,2609,5941,0,L among T,70
vs12,benlakhal,1,0,13Dec2010,1350,serial,500,624,200,1,23,3.99763076111,1,L,4,z,1,384,8,2,416,2536,1363,5368,0,L among T,71
vs12,benlakhal,1,0,13Dec2010,1350,serial,500,568,200,1,24,4.96021372233,0,L,2,z,0,522,9,2,317,2951,1950,4081,0,L among T,72
vs12,benlakhal,1,0,13Dec2010,1351,serial,500,629,200,1,25,5.18793501376,1,L,8,z,1,486,8,3,418,3120,1336,4378,0,L among T,73
vs12,benlakhal,1,0,13Dec2010,1351,serial,500,661,200,1,26,2.70502705656,1,L,2,z,1,513,9,1,357,3008,1736,4165,0,L among T,74
vs12,benlakhal,1,0,13Dec2010,1351,serial,500,496,200,1,27,3.21514456694,1,L,12,z,1,357,9,4,385,9227,4355,6825,0,L among T,75
vs12,benlakhal,1,0,13Dec2010,1351,serial,500,599,200,1,28,5.1691338611,0,L,8,z,0,456,9,3,387,2836,1507,4250,0,L among T,76
vs12,benlakhal,1,0,13Dec2010,1351,serial,500,401,200,1,29,0.968129033952,0,L,2,z,0,499,6,1,317,4196,3152,17824,0,L among T,77
vs12,benlakhal,1,0,13Dec2010,1351,serial,500,585,200,1,30,1.29336114531,1,L,8,z,1,357,9,2,423,2730,1816,3860,0,L among T,78
vs12,benlakhal,1,0,13Dec2010,1351,serial,500,405,200,1,31,3.15504378392,0,L,12,z,0,499,8,4,348,2536,1478,4092,0,L among T,79
vs12,benlakhal,1,0,13Dec2010,1352,serial,500,457,200,1,32,3.28340371717,1,L,12,z,1,414,9,5,336,5900,7784,8840,0,L among T,80
vs12,benlakhal,1,0,13Dec2010,1352,serial,500,642,200,1,33,3.69829660975,1,L,2,z,1,428,9,2,282,2779,1964,3678,0,L among T,81
vs12,benlakhal,1,0,13Dec2010,1352,serial,500,556,200,1,34,4.95456687555,0,L,2,z,0,527,4,2,356,3252,2352,4553,0,L among T,82
vs12,benlakhal,1,0,13Dec2010,1352,serial,500,597,200,1,35,3.79668300043,0,L,2,z,0,483,1,1,293,14424,2894,15634,0,L among T,83
vs12,benlakhal,1,0,13Dec2010,1352,serial,500,425,200,1,36,0.0875537068033,1,L,2,a,0,400,4,2,341,4482,1864,5811,0,L among T,84
vs12,benlakhal,1,0,13Dec2010,1352,serial,500,630,200,1,37,5.9718759676,0,L,2,z,0,399,7,1,326,8885,13562,15033,0,L among T,85
vs12,benlakhal,1,0,13Dec2010,1353,serial,500,613,200,1,38,0.926892548695,0,L,4,a,1,442,0,1,291,15794,12620,16881,0,L among T,86
vs12,benlakhal,1,0,13Dec2010,1353,serial,500,572,200,1,39,0.842314015299,0,L,8,z,0,399,1,4,336,3705,2709,4420,0,L among T,87
vs12,benlakhal,1,0,13Dec2010,1353,serial,500,602,200,1,40,0.0581979570884,1,L,8,z,1,413,9,2,367,5897,2452,6926,0,L among T,88
vs12,benlakhal,1,0,13Dec2010,1354,serial,500,541,200,2,1,4.51134361542,1,L,8,a,0,442,0,2,333,4135,3134,5351,0,L among T,89
vs12,benlakhal,1,0,13Dec2010,1354,serial,500,677,200,2,2,3.62891126336,0,L,4,z,0,428,1,2,360,5606,4633,6663,0,L among T,90
vs12,benlakhal,1,0,13Dec2010,1354,serial,500,561,200,2,3,1.86136500289,0,L,2,z,0,484,8,1,333,6926,6398,8242,0,L among T,91
vs12,benlakhal,1,0,13Dec2010,1354,serial,500,659,200,2,4,0.795441265671,0,L,8,z,0,456,4,3,321,3637,2508,5368,0,L among T,92
vs12,benlakhal,1,0,13Dec2010,1355,serial,500,671,200,2,5,1.53576518936,0,L,4,z,0,529,2,2,332,6557,5599,7897,0,L among T,93
vs12,benlakhal,1,0,13Dec2010,1355,serial,500,649,200,2,6,5.02149032943,1,L,4,a,0,456,1,2,326,12432,6367,14460,0,L among T,94
vs12,benlakhal,1,0,13Dec2010,1355,serial,500,632,200,2,7,1.53043366786,1,L,2,z,1,428,9,1,363,3224,2051,17409,0,L among T,95
vs12,benlakhal,1,0,13Dec2010,1355,serial,500,440,200,2,8,1.84336056695,1,L,2,z,1,399,9,1,348,2506,1679,4222,0,L among T,96
vs12,benlakhal,1,0,13Dec2010,1355,serial,500,537,200,2,9,5.14698036475,0,L,2,z,0,427,9,2,342,2722,2036,5981,0,L among T,97
vs12,benlakhal,1,0,13Dec2010,1355,serial,500,501,200,2,10,0.245860528616,1,L,4,a,0,427,9,3,402,2994,2193,5379,0,L among T,98
vs12,benlakhal,1,0,13Dec2010,1356,serial,500,600,200,2,11,5.22177750768,0,L,12,z,0,484,8,2,365,3980,2795,5049,0,L among T,99
vs12,benlakhal,1,0,13Dec2010,1356,serial,500,547,200,2,12,3.59376364976,1,L,4,z,1,456,9,2,393,3638,2352,7910,0,L among T,100
vs12,benlakhal,1,0,13Dec2010,1356,serial,500,474,200,2,13,3.21235336718,0,L,4,z,0,456,9,2,396,5110,4211,6153,0,L among T,101
vs12,benlakhal,1,0,13Dec2010,1356,serial,500,562,200,2,14,2.04098386828,1,L,2,z,1,499,9,2,377,3194,2565,5977,0,L among T,102
vs12,benlakhal,1,0,13Dec2010,1356,serial,500,587,200,2,15,4.55575817093,1,L,8,z,1,413,9,3,412,2794,1937,3853,0,L among T,103
vs12,benlakhal,1,0,13Dec2010,1356,serial,500,477,200,2,16,2.50720784665,0,L,12,a,1,454,9,3,398,3137,2180,4066,0,L among T,104
vs12,benlakhal,1,0,13Dec2010,1356,serial,500,437,200,2,17,3.66959769996,1,L,4,z,1,428,9,3,383,2728,2013,3714,0,L among T,105
vs12,benlakhal,1,0,13Dec2010,1356,serial,500,506,200,2,18,5.7961246801,0,L,12,z,0,384,9,3,333,2350,1336,3480,0,L among T,106
vs12,benlakhal,1,0,13Dec2010,1356,serial,500,609,200,2,19,5.17424681075,0,L,2,z,0,496,9,1,393,2764,1821,4037,0,L among T,107
vs12,benlakhal,1,0,13Dec2010,1357,serial,500,611,200,2,20,4.64822115907,1,L,12,z,1,413,7,3,376,3146,1816,5506,0,L among T,108
vs12,benlakhal,1,0,13Dec2010,1357,serial,500,589,200,2,21,0.428302436389,0,L,4,z,0,399,8,3,363,4078,2634,5537,0,L among T,109
vs12,benlakhal,1,0,13Dec2010,1357,serial,500,694,200,2,22,5.73736764687,0,L,4,z,0,485,4,1,322,3593,5467,7326,0,L among T,110
vs12,benlakhal,1,0,13Dec2010,1357,serial,500,403,200,2,23,5.18039534762,0,L,8,z,0,499,8,3,386,5839,4595,7426,0,L among T,111
vs12,benlakhal,1,0,13Dec2010,1357,serial,500,621,200,2,24,3.69114194585,1,L,8,a,0,356,1,3,357,4706,2561,7051,0,L among T,112
vs12,benlakhal,1,0,13Dec2010,1357,serial,500,653,200,2,25,1.5586558458,0,L,2,z,0,428,1,2,312,11556,2464,8697,0,L among T,113
vs12,benlakhal,1,0,13Dec2010,1357,serial,500,488,200,2,26,3.93563749769,0,L,8,z,0,443,8,3,356,5525,3094,9230,0,L among T,114
vs12,benlakhal,1,0,13Dec2010,1358,serial,500,662,200,2,27,5.83841349746,0,L,2,a,1,540,9,2,355,3050,1921,4037,0,L among T,115
vs12,benlakhal,1,0,13Dec2010,1358,serial,500,465,200,2,28,4.85499260252,1,L,12,a,0,457,9,3,318,6023,1832,9112,0,L among T,116
vs12,benlakhal,1,0,13Dec2010,1358,serial,500,595,200,2,29,2.64573027329,1,L,2,a,0,742,4,1,286,11600,9197,12601,0,L among T,117
vs12,benlakhal,1,0,13Dec2010,1358,serial,500,664,200,2,30,3.76910208979,0,L,12,z,0,496,7,2,336,3451,1707,9013,0,L among T,118
vs12,benlakhal,1,0,13Dec2010,1359,serial,500,577,200,2,31,2.75704622114,1,L,2,z,1,771,1,1,338,18824,4881,19754,0,L among T,119
vs12,benlakhal,1,0,13Dec2010,1359,serial,500,426,200,2,32,1.77038894711,1,L,12,z,1,399,1,3,327,6027,1436,7426,0,L among T,120
vs12,benlakhal,1,0,13Dec2010,1359,serial,500,578,200,2,33,2.65555869068,1,L,8,z,1,370,7,1,317,3381,1336,4481,0,L among T,121
vs12,benlakhal,1,0,13Dec2010,1359,serial,500,525,200,2,34,0.558224660058,0,L,8,z,0,426,8,2,406,3051,1865,4581,0,L among T,122
vs12,benlakhal,1,0,13Dec2010,1359,serial,500,550,200,2,35,4.29319497325,1,L,12,z,1,385,8,0,333,3818,3005,5206,0,L among T,123
vs12,benlakhal,1,0,13Dec2010,1359,serial,500,495,200,2,36,1.05501573838,0,L,8,z,0,513,9,2,361,5266,1979,9172,0,L among T,124
vs12,benlakhal,1,0,13Dec2010,1359,serial,500,690,200,2,37,5.1739146702,0,L,12,z,0,540,8,1,342,1922,1050,2980,0,L among T,125
vs12,benlakhal,1,0,13Dec2010,1359,serial,500,507,200,2,38,3.25491871537,1,L,8,z,1,399,8,1,345,2350,1578,3389,0,L among T,126
vs12,benlakhal,1,0,13Dec2010,1359,serial,500,599,200,2,39,2.07643413246,1,L,12,z,1,571,5,3,308,2923,2052,4067,0,L among T,127
vs12,benlakhal,1,0,13Dec2010,1400,serial,500,533,200,2,40,1.41374952648,1,L,4,z,1,370,8,1,435,2478,1663,3965,0,L among T,128
vs12,benlakhal,1,0,13Dec2010,1400,serial,500,469,200,3,1,2.26764104107,0,L,2,a,1,457,9,1,315,6082,4738,7240,0,L among T,129
vs12,benlakhal,1,0,13Dec2010,1401,serial,500,492,200,3,2,3.01254303427,1,L,2,a,0,427,2,1,325,3033,1563,4678,0,L among T,130
vs12,benlakhal,1,0,13Dec2010,1401,serial,500,446,200,3,3,2.2443125574,0,L,12,a,1,341,9,1,381,2751,1966,3565,0,L among T,131
vs12,benlakhal,1,0,13Dec2010,1401,serial,500,506,200,3,4,2.32832927575,0,L,12,a,1,542,9,1,348,6026,5184,6999,0,L among T,132
vs12,benlakhal,1,0,13Dec2010,1401,serial,500,577,200,3,5,6.23501572321,1,L,2,z,1,427,10,1,331,2379,1678,5325,0,L among T,133
vs12,benlakhal,1,0,13Dec2010,1401,serial,500,689,200,3,6,0.933848902598,1,L,12,z,1,527,9,2,332,8328,6987,15458,0,L among T,134
vs12,benlakhal,1,0,13Dec2010,1401,serial,500,658,200,3,7,1.32436225296,0,L,8,z,0,443,8,2,376,3366,1808,6983,0,L among T,135
vs12,benlakhal,1,0,13Dec2010,1401,serial,500,657,200,3,8,5.98906987705,0,L,4,z,0,342,6,2,338,2550,1264,6882,0,L among T,136
vs12,benlakhal,1,0,13Dec2010,1402,serial,500,531,200,3,9,1.65962092058,0,L,8,z,0,342,8,1,397,2079,1021,3237,0,L among T,137
vs12,benlakhal,1,0,13Dec2010,1402,serial,500,532,200,3,10,3.28332112026,0,L,2,z,0,425,9,1,308,16393,15339,18382,0,L among T,138
vs12,benlakhal,1,0,13Dec2010,1402,serial,500,557,200,3,11,0.470556529026,1,L,8,z,1,671,9,5,418,1593,4361,10211,0,L among T,139
vs12,benlakhal,1,0,13Dec2010,1402,serial,500,575,200,3,12,1.02471866989,0,L,12,z,0,1129,4,1,351,7470,8542,9957,0,L among T,140
vs12,benlakhal,1,0,13Dec2010,1403,serial,500,584,200,3,13,2.06575300255,1,L,8,z,1,355,1,2,376,13429,1565,9915,0,L among T,141
vs12,benlakhal,1,0,13Dec2010,1403,serial,500,604,200,3,14,2.60298012044,1,L,8,z,1,499,9,2,355,2880,1794,5794,0,L among T,142
vs12,benlakhal,1,0,13Dec2010,1403,serial,500,532,200,3,15,2.93701985059,1,L,12,z,1,413,8,3,375,2579,1550,11060,0,L among T,143
vs12,benlakhal,1,0,13Dec2010,1403,serial,500,447,200,3,16,1.23092642118,1,L,2,z,1,413,9,2,368,2151,1365,3080,0,L among T,144
vs12,benlakhal,1,0,13Dec2010,1403,serial,500,416,200,3,17,3.92076702481,1,L,12,z,1,399,9,3,385,2136,1007,5049,0,L among T,145
vs12,benlakhal,1,0,13Dec2010,1403,serial,500,410,200,3,18,4.63959042237,0,L,8,z,0,700,8,2,345,2393,1221,7424,0,L among T,146
vs12,benlakhal,1,0,13Dec2010,1403,serial,500,658,200,3,19,5.39451579447,0,L,2,z,0,4557,9,0,308,2565,5783,7082,0,L among T,147
vs12,benlakhal,1,0,13Dec2010,1404,serial,500,501,200,3,20,2.94093248441,1,L,4,z,1,342,9,1,408,4797,2952,5951,0,L among T,148
vs12,benlakhal,1,0,13Dec2010,1404,serial,500,614,200,3,21,5.77971772482,1,L,8,z,1,513,9,3,333,2036,1149,3007,0,L among T,149
vs12,benlakhal,1,0,13Dec2010,1404,serial,500,597,200,3,22,5.4992974031,0,L,4,z,0,413,8,1,381,2420,1662,3692,0,L among T,150
vs12,benlakhal,1,0,13Dec2010,1404,serial,500,491,200,3,23,0.413402399253,0,L,4,z,0,442,2,1,375,21236,10773,20209,0,L among T,151
vs12,benlakhal,1,0,13Dec2010,1404,serial,500,552,200,3,24,5.13016275738,0,L,2,z,0,428,9,2,393,2207,1436,5923,0,L among T,152
vs12,benlakhal,1,0,13Dec2010,1404,serial,500,692,200,3,25,1.95052663584,0,L,4,z,0,370,9,2,396,2165,1207,3437,0,L among T,153
vs12,benlakhal,1,0,13Dec2010,1405,serial,500,478,200,3,26,1.47520620241,1,L,4,z,1,480,0,1,376,15492,5170,10303,0,L among T,154
vs12,benlakhal,1,0,13Dec2010,1405,serial,500,561,200,3,27,5.21781691504,1,L,12,a,0,385,9,3,426,2036,1336,2880,0,L among T,155
vs12,benlakhal,1,0,13Dec2010,1405,serial,500,462,200,3,28,4.73479568985,0,L,8,z,0,213,8,1,420,3905,2305,3262,0,L among T,156
vs12,benlakhal,1,0,13Dec2010,1405,serial,500,566,200,3,29,2.99533652607,0,L,2,z,0,427,6,1,351,9057,7055,10273,0,L among T,157
vs12,benlakhal,1,0,13Dec2010,1405,serial,500,660,200,3,30,0.687619877352,0,L,4,z,0,514,9,2,386,28958,26012,31504,0,L among T,158
vs12,benlakhal,1,0,13Dec2010,1406,serial,500,652,200,3,31,2.92608566109,1,L,4,z,1,299,8,1,332,2808,1793,3866,0,L among T,159
vs12,benlakhal,1,0,13Dec2010,1406,serial,500,496,200,3,32,4.62088822002,1,L,4,z,1,399,9,1,393,1789,920,2675,0,L among T,160
vs12,benlakhal,1,0,13Dec2010,1406,serial,500,496,200,3,33,0.980103012543,0,L,8,z,0,428,9,1,316,2580,1351,3552,0,L among T,161
vs12,benlakhal,1,0,13Dec2010,1406,serial,500,700,200,3,34,5.51751738138,1,L,4,z,1,325,9,0,312,2981,2180,3938,0,L among T,162
vs12,benlakhal,1,0,13Dec2010,1406,serial,500,669,200,3,35,0.168756594042,1,L,2,z,1,342,9,0,308,3836,2536,5967,0,L among T,163
vs12,benlakhal,1,0,13Dec2010,1406,serial,500,537,200,3,36,1.17169338566,1,L,8,z,1,427,9,1,308,1778,7797,8612,0,L among T,164
vs12,benlakhal,1,0,13Dec2010,1406,serial,500,545,200,3,37,5.21065017364,1,L,12,z,1,385,9,2,313,4147,2147,3033,0,L among T,165
vs12,benlakhal,1,0,13Dec2010,1406,serial,500,673,200,3,38,3.55537102799,0,L,12,z,0,771,9,1,342,9636,7670,8484,0,L among T,166
vs12,benlakhal,1,0,13Dec2010,1407,serial,500,422,200,3,39,4.6105233604,0,L,12,z,0,528,9,2,365,11247,10189,12519,0,L among T,167
vs12,benlakhal,1,0,13Dec2010,1407,serial,500,476,200,3,40,5.09168881946,1,L,2,z,1,456,9,1,367,1545,817,2331,0,L among T,168
vs12,benlakhal,1,0,13Dec2010,1408,serial,500,672,200,4,1,3.35745495347,0,L,12,z,0,370,9,2,340,2562,1347,3819,0,L among T,169
vs12,benlakhal,1,0,13Dec2010,1408,serial,500,514,200,4,2,1.49304732071,0,L,4,z,0,485,1,0,295,2336,1393,3263,0,L among T,170
vs12,benlakhal,1,0,13Dec2010,1408,serial,500,536,200,4,3,4.39096070928,1,L,4,z,1,370,0,1,307,3250,1851,2537,0,L among T,171
vs12,benlakhal,1,0,13Dec2010,1408,serial,500,453,200,4,4,2.86521212852,1,L,12,z,1,484,2,0,262,3676,2034,2748,0,L among T,172
vs12,benlakhal,1,0,13Dec2010,1408,serial,500,697,200,4,5,5.59688676808,1,L,2,z,1,399,10,0,323,3409,1551,4346,0,L among T,173
vs12,benlakhal,1,0,13Dec2010,1408,serial,500,533,200,4,6,1.66025548157,0,L,4,z,0,385,9,1,341,1922,1264,3166,0,L among T,174
vs12,benlakhal,1,0,13Dec2010,1408,serial,500,648,200,4,7,5.55543572625,0,L,2,a,1,370,8,0,316,4937,4179,5651,0,L among T,175
vs12,benlakhal,1,0,13Dec2010,1409,serial,500,578,200,4,8,5.81107423357,1,L,8,a,0,327,9,1,372,2527,3414,5158,0,L among T,176
vs12,benlakhal,1,0,13Dec2010,1409,serial,500,602,200,4,9,5.42982559843,1,L,4,z,1,456,8,0,332,1978,1292,5151,0,L among T,177
vs12,benlakhal,1,0,13Dec2010,1409,serial,500,487,200,4,10,1.60623278983,0,L,8,z,0,342,9,0,405,1979,907,3395,0,L among T,178
vs12,benlakhal,1,0,13Dec2010,1409,serial,500,461,200,4,11,3.82864855616,0,L,8,z,0,399,8,1,323,1692,920,2978,0,L among T,179
vs12,benlakhal,1,0,13Dec2010,1409,serial,500,527,200,4,12,4.33465552374,0,L,2,z,0,1715,9,1,367,1931,3046,4835,0,L among T,180
vs12,benlakhal,1,0,13Dec2010,1409,serial,500,688,200,4,13,1.04471156527,1,L,8,z,1,3401,9,1,352,4223,3379,2438,0,L among T,181
vs12,benlakhal,1,0,13Dec2010,1409,serial,500,401,200,4,14,4.25005322448,1,L,12,z,1,643,4,1,325,2063,1450,2892,0,L among T,182
vs12,benlakhal,1,0,13Dec2010,1409,serial,500,569,200,4,15,6.175577278,1,L,2,z,1,413,10,1,335,2336,1148,4395,0,L among T,183
vs12,benlakhal,1,0,13Dec2010,1409,serial,500,433,200,4,16,6.28068493356,1,L,4,z,1,298,9,1,343,2264,1349,3107,0,L among T,184
vs12,benlakhal,1,0,13Dec2010,1409,serial,500,612,200,4,17,2.27469822015,1,L,12,z,1,342,9,1,342,2179,1422,3779,0,L among T,185
vs12,benlakhal,1,0,13Dec2010,1409,serial,500,523,200,4,18,0.397901761415,0,L,12,z,0,341,8,1,366,1635,906,2336,0,L among T,186
vs12,benlakhal,1,0,13Dec2010,1410,serial,500,554,200,4,19,6.00058657706,1,L,2,z,1,485,10,1,280,2877,1504,4350,0,L among T,187
vs12,benlakhal,1,0,13Dec2010,1410,serial,500,438,200,4,20,4.27193788853,1,L,12,z,1,370,8,2,372,2779,1764,4347,0,L among T,188
vs12,benlakhal,1,0,13Dec2010,1410,serial,500,632,200,4,21,4.34478421637,0,L,4,z,0,299,9,1,410,1850,1063,2822,0,L among T,189
vs12,benlakhal,1,0,13Dec2010,1410,serial,500,564,200,4,22,1.85599488757,0,L,2,z,0,15601,9,0,356,2577,1436,3679,0,L among T,190
vs12,benlakhal,1,0,13Dec2010,1410,serial,500,674,200,4,23,4.09862444631,0,L,8,z,0,356,9,1,375,1491,834,2492,0,L among T,191
vs12,benlakhal,1,0,13Dec2010,1410,serial,500,493,200,4,24,3.7069375466,0,L,2,z,0,428,0,0,322,2388,1630,3174,0,L among T,192
vs12,benlakhal,1,0,13Dec2010,1410,serial,500,689,200,4,25,1.68658960838,0,L,12,z,0,427,8,1,258,4475,2280,3090,0,L among T,193
vs12,benlakhal,1,0,13Dec2010,1410,serial,500,480,200,4,26,5.86742830057,0,L,12,a,1,399,2,0,328,3537,1464,5579,0,L among T,194
vs12,benlakhal,1,0,13Dec2010,1411,serial,500,544,200,4,27,5.79854174794,1,L,4,z,1,427,9,0,332,2393,1735,4066,0,L among T,195
vs12,benlakhal,1,0,13Dec2010,1411,serial,500,572,200,4,28,5.74049638808,0,L,2,z,0,442,9,0,253,3018,1474,4592,0,L among T,196
vs12,benlakhal,1,0,13Dec2010,1411,serial,500,526,200,4,29,4.0471929794,1,L,8,z,1,456,8,1,277,3778,3092,4722,0,L among T,197
vs12,benlakhal,1,0,13Dec2010,1411,serial,500,592,200,4,30,2.12796403539,0,L,12,a,1,414,9,1,320,6081,4067,5196,0,L among T,198
vs12,benlakhal,1,0,13Dec2010,1411,serial,500,404,200,4,31,3.33903290319,1,L,8,z,1,528,8,1,345,2207,1593,2979,0,L among T,199
vs12,benlakhal,1,0,13Dec2010,1411,serial,500,646,200,4,32,0.615620192865,0,L,8,z,0,456,9,1,342,1649,934,2606,0,L among T,200
vs12,benlakhal,1,0,13Dec2010,1411,serial,500,634,200,4,33,6.25820545969,0,L,4,z,0,385,9,1,293,2051,907,4137,0,L among T,201
vs12,benlakhal,1,0,13Dec2010,1411,serial,500,543,200,4,34,5.79051891012,0,L,8,z,0,484,8,1,350,17292,14877,16079,0,L among T,202
vs12,benlakhal,1,0,13Dec2010,1411,serial,500,667,200,4,35,5.17590837793,1,L,4,z,1,356,9,0,358,3048,1491,2077,0,L among T,203
vs12,benlakhal,1,0,13Dec2010,1412,serial,500,409,200,4,36,5.07002767183,0,L,4,z,0,414,9,0,301,2734,734,1935,0,L among T,204
vs12,benlakhal,1,0,13Dec2010,1412,serial,500,596,200,4,37,4.01725891198,1,L,8,z,1,328,8,0,315,2288,989,1646,0,L among T,205
vs12,benlakhal,1,0,13Dec2010,1412,serial,500,473,200,4,38,6.0048455221,1,L,2,a,0,528,9,1,332,1778,1121,2579,0,L among T,206
vs12,benlakhal,1,0,13Dec2010,1412,serial,500,658,200,4,39,5.6808008826,1,L,12,z,1,370,9,1,345,3505,2662,4949,0,L among T,207
vs12,benlakhal,1,0,13Dec2010,1412,serial,500,569,200,4,40,2.68151631327,1,L,2,z,1,385,9,0,380,4264,3349,5637,0,L among T,208
vs12,benlakhal,1,0,13Dec2010,1413,serial,500,685,200,5,1,5.35597435423,1,L,4,z,1,370,9,1,338,2679,1707,3580,0,L among T,209
vs12,benlakhal,1,0,13Dec2010,1413,serial,500,517,200,5,2,1.92922546448,1,L,2,z,1,399,10,2,328,2890,2146,4020,0,L among T,210
vs12,benlakhal,1,0,13Dec2010,1413,serial,500,629,200,5,3,4.74088791443,1,L,12,z,1,328,8,2,362,2079,1164,2864,0,L among T,211
vs12,benlakhal,1,0,13Dec2010,1413,serial,500,669,200,5,4,4.0784142888,0,L,4,z,0,399,9,1,373,2680,1407,4352,0,L among T,212
vs12,benlakhal,1,0,13Dec2010,1413,serial,500,625,200,5,5,6.00392063163,1,L,4,z,1,385,9,1,362,1901,1049,2787,0,L among T,213
vs12,benlakhal,1,0,13Dec2010,1414,serial,500,583,200,5,6,2.24863344434,1,L,12,z,1,385,9,0,307,1992,1235,3021,0,L among T,214
vs12,benlakhal,1,0,13Dec2010,1414,serial,500,573,200,5,7,3.65363955373,1,L,12,z,1,385,9,1,350,1787,1074,2732,0,L among T,215
vs12,benlakhal,1,0,13Dec2010,1414,serial,500,538,200,5,8,3.67669093983,1,L,8,z,1,385,9,1,322,2136,1322,3137,0,L among T,216
vs12,benlakhal,1,0,13Dec2010,1414,serial,500,459,200,5,9,2.80826570446,0,L,4,z,0,384,10,0,312,2207,1278,3308,0,L among T,217
vs12,benlakhal,1,0,13Dec2010,1414,serial,500,400,200,5,10,5.04647646689,1,L,2,z,1,500,9,1,356,1520,963,2619,0,L among T,218
vs12,benlakhal,1,0,13Dec2010,1414,serial,500,460,200,5,11,2.37028846311,1,L,2,z,1,341,9,1,317,2049,1449,2964,0,L among T,219
vs12,benlakhal,1,0,13Dec2010,1414,serial,500,475,200,5,12,1.11300818571,0,L,12,z,0,327,9,2,347,2346,1508,3461,0,L among T,220
vs12,benlakhal,1,0,13Dec2010,1414,serial,500,697,200,5,13,1.61151183418,1,L,2,z,1,428,9,2,376,3538,1750,5295,0,L among T,221
vs12,benlakhal,1,0,13Dec2010,1414,serial,500,427,200,5,14,0.839618672452,1,L,4,z,1,357,10,2,352,5355,4497,7942,0,L among T,222
vs12,benlakhal,1,0,13Dec2010,1414,serial,500,584,200,5,15,4.278960594,1,L,4,z,1,357,9,1,356,2294,1336,3223,0,L among T,223
vs12,benlakhal,1,0,13Dec2010,1414,serial,500,550,200,5,16,4.00792266802,0,L,8,z,0,399,9,1,393,1635,848,4495,0,L among T,224
vs12,benlakhal,1,0,13Dec2010,1415,serial,500,595,200,5,17,6.1627186921,0,L,4,z,0,1999,9,1,300,1321,2107,2950,0,L among T,225
vs12,benlakhal,1,0,13Dec2010,1415,serial,500,614,200,5,18,5.65502402525,0,L,12,z,0,341,9,1,315,1550,835,2923,0,L among T,226
vs12,benlakhal,1,0,13Dec2010,1415,serial,500,436,200,5,19,5.93858528626,0,L,2,z,0,442,9,0,335,4440,3567,5755,0,L among T,227
vs12,benlakhal,1,0,13Dec2010,1415,serial,500,603,200,5,20,5.86893147274,1,L,12,z,1,370,9,1,295,1449,792,2449,0,L among T,228
vs12,benlakhal,1,0,13Dec2010,1415,serial,500,519,200,5,21,1.15154481338,0,L,2,z,0,428,9,1,291,2007,1292,2908,0,L among T,229
vs12,benlakhal,1,0,13Dec2010,1415,serial,500,501,200,5,22,3.19486951309,1,L,8,z,1,457,9,1,367,1621,1035,2993,0,L among T,230
vs12,benlakhal,1,0,13Dec2010,1415,serial,500,434,200,5,23,5.3565221853,0,L,12,a,1,570,9,1,346,1735,977,2503,0,L among T,231
vs12,benlakhal,1,0,13Dec2010,1415,serial,500,418,200,5,24,1.62319079738,1,L,8,z,1,643,8,2,376,1492,777,11557,0,L among T,232
vs12,benlakhal,1,0,13Dec2010,1415,serial,500,688,200,5,25,5.41338474096,1,L,12,z,1,585,9,1,407,2134,1520,3192,0,L among T,233
vs12,benlakhal,1,0,13Dec2010,1415,serial,500,669,200,5,26,1.30587343196,0,L,2,z,0,442,9,1,363,3009,1464,4189,0,L among T,234
vs12,benlakhal,1,0,13Dec2010,1415,serial,500,532,200,5,27,4.07422758522,0,L,8,z,0,385,8,1,351,1650,978,2535,0,L among T,235
vs12,benlakhal,1,0,13Dec2010,1416,serial,500,535,200,5,28,1.86703781763,1,L,4,z,1,356,9,1,370,1589,891,2403,0,L among T,236
vs12,benlakhal,1,0,13Dec2010,1416,serial,500,457,200,5,29,1.76791959378,1,L,8,z,1,398,9,1,405,2349,1607,3436,0,L among T,237
vs12,benlakhal,1,0,13Dec2010,1416,serial,500,480,200,5,30,1.15926583174,0,L,8,z,0,385,9,2,421,1288,2245,3103,0,L among T,238
vs12,benlakhal,1,0,13Dec2010,1416,serial,500,609,200,5,31,3.34309081674,0,L,8,z,0,413,9,1,325,1766,2551,3280,0,L among T,239
vs12,benlakhal,1,0,13Dec2010,1416,serial,500,588,200,5,32,4.59293358033,0,L,2,a,1,484,9,1,388,2265,850,3209,0,L among T,240
vs12,benlakhal,1,0,13Dec2010,1416,serial,500,500,200,5,33,1.79645307196,0,L,12,a,1,342,8,3,401,1436,792,2275,0,L among T,241
vs12,benlakhal,1,0,13Dec2010,1416,serial,500,586,200,5,34,3.47990564786,0,L,2,z,0,628,9,0,452,892,1764,2694,0,L among T,242
vs12,benlakhal,1,0,13Dec2010,1416,serial,500,650,200,5,35,4.82847224963,0,L,4,z,0,341,9,1,428,1106,2031,2846,0,L among T,243
vs12,benlakhal,1,0,13Dec2010,1416,serial,500,645,200,5,36,2.53854375182,0,L,12,a,1,313,8,2,357,1450,736,2165,0,L among T,244
vs12,benlakhal,1,0,13Dec2010,1416,serial,500,628,200,5,37,4.78454866347,1,L,8,z,1,471,9,3,482,1214,577,2558,0,L among T,245
vs12,benlakhal,1,0,13Dec2010,1416,serial,500,431,200,5,38,2.95444198446,1,L,2,z,1,614,9,1,323,1621,3093,4166,0,L among T,246
vs12,benlakhal,1,0,13Dec2010,1416,serial,500,500,200,5,39,0.42323715264,0,L,4,z,0,399,8,1,355,3438,2322,4667,0,L among T,247
vs12,benlakhal,1,0,13Dec2010,1416,serial,500,537,200,5,40,1.8782986684,0,L,8,z,0,399,2,1,320,3258,2486,4187,0,L among T,248
vs12,benlakhal,1,0,13Dec2010,1418,pTPar,500,652,200,1,1,6.03410696798,0,X,4,z,0,2016,,,,,,,1,X among T,249
vs12,benlakhal,1,0,13Dec2010,1418,pTPar,500,418,200,1,2,3.66921621616,1,X,8,z,1,2016,,,,,,,1,X among T,250
vs12,benlakhal,1,0,13Dec2010,1419,pTPar,500,679,200,1,3,5.87778491547,1,X,4,z,1,2014,,,,,,,1,X among T,251
vs12,benlakhal,1,0,13Dec2010,1419,pTPar,500,615,200,1,4,0.426980229529,1,X,4,z,1,2016,,,,,,,1,X among T,252
vs12,benlakhal,1,0,13Dec2010,1419,pTPar,500,624,200,1,5,5.71762158267,0,X,2,a,1,2016,,,,,,,1,X among T,253
vs12,benlakhal,1,0,13Dec2010,1419,pTPar,500,614,200,1,6,5.43253203505,0,X,8,a,1,2015,,,,,,,1,X among T,254
vs12,benlakhal,1,0,13Dec2010,1419,pTPar,500,666,200,1,7,4.25495242462,1,X,2,z,1,2015,,,,,,,1,X among T,255
vs12,benlakhal,1,0,13Dec2010,1419,pTPar,500,421,200,1,8,0.519656752703,1,X,12,z,1,2013,,,,,,,1,X among T,256
vs12,benlakhal,1,0,13Dec2010,1419,pTPar,500,500,200,1,9,5.73576930334,1,X,2,z,1,2016,,,,,,,1,X among T,257
vs12,benlakhal,1,0,13Dec2010,1419,pTPar,500,700,200,1,10,6.10343733537,0,X,4,a,1,2016,,,,,,,1,X among T,258
vs12,benlakhal,1,0,13Dec2010,1419,pTPar,500,652,200,1,11,4.67772480615,1,X,8,z,1,2016,,,,,,,1,X among T,259
vs12,benlakhal,1,0,13Dec2010,1419,pTPar,500,480,200,1,12,1.9119785874,0,X,12,a,1,2016,,,,,,,1,X among T,260
vs12,benlakhal,1,0,13Dec2010,1419,pTPar,500,455,200,1,13,5.64385902932,0,X,2,a,1,2025,,,,,,,1,X among T,261
vs12,benlakhal,1,0,13Dec2010,1419,pTPar,500,495,200,1,14,1.20586710835,0,X,12,a,1,2015,,,,,,,1,X among T,262
vs12,benlakhal,1,0,13Dec2010,1419,pTPar,500,610,200,1,15,4.04260208259,1,X,12,z,1,2016,,,,,,,1,X among T,263
vs12,benlakhal,1,0,13Dec2010,1419,pTPar,500,505,200,1,16,1.71007154439,0,X,8,a,1,2016,,,,,,,1,X among T,264
vs12,benlakhal,1,0,13Dec2010,1420,tPar,500,400,200,1,1,3.72436078114,1,X,8,a,0,740,0,4.32,336,13248,14563,15633,1,X among T,265
vs12,benlakhal,1,0,13Dec2010,1420,tPar,500,623,200,1,2,0.100468014991,0,X,4,z,0,443,5,0.972,335,8800,7956,9844,1,X among T,266
vs12,benlakhal,1,0,13Dec2010,1420,tPar,500,504,200,1,3,2.27996153477,1,X,2,a,0,385,5,0.37,347,3208,2463,3994,1,X among T,267
vs12,benlakhal,1,0,13Dec2010,1420,tPar,500,462,200,1,4,3.80631719279,0,X,2,a,1,442,9,0.484,358,2372,1149,3231,1,X among T,268
vs12,benlakhal,1,0,13Dec2010,1420,tPar,500,441,200,1,5,0.0211757322434,1,X,12,z,1,428,8,2.736,352,3022,2165,3966,1,X among T,269
vs12,benlakhal,1,0,13Dec2010,1420,tPar,500,595,200,1,6,5.85091897373,1,X,4,z,1,342,9,0.568,367,2594,1665,3437,1,X among T,270
vs12,benlakhal,1,0,13Dec2010,1420,tPar,500,610,200,1,7,5.16897285111,1,X,8,a,0,412,8,1.696,378,1764,1221,2564,1,X among T,271
vs12,benlakhal,1,0,13Dec2010,1420,tPar,500,640,200,1,8,4.92309951138,0,X,8,z,0,441,9,1.928,272,1092,1693,2274,1,X among T,272
vs12,benlakhal,1,0,13Dec2010,1420,tPar,500,670,200,1,9,2.67412662709,0,X,4,a,1,442,0,0.968,357,1336,2079,2593,1,X among T,273
vs12,benlakhal,1,0,13Dec2010,1421,tPar,500,499,200,1,10,4.73816889144,0,X,8,z,0,427,0,1.816,362,1806,3364,4136,1,X among T,274
vs12,benlakhal,1,0,13Dec2010,1421,tPar,500,681,200,1,11,2.39430976522,1,X,12,a,0,442,9,2.904,307,8112,6912,9080,1,X among T,275
vs12,benlakhal,1,0,13Dec2010,1421,tPar,500,572,200,1,12,1.34239122549,0,X,12,a,1,529,9,3.948,372,1508,3280,4167,1,X among T,276
vs12,benlakhal,1,0,13Dec2010,1421,tPar,500,512,200,1,13,6.0181126353,0,X,12,a,1,428,9,2.736,346,2710,3353,4067,1,X among T,277
vs12,benlakhal,1,0,13Dec2010,1421,tPar,500,438,200,1,14,5.29164433493,1,X,2,z,1,437,9,0.474,391,1621,3008,3852,1,X among T,278
vs12,benlakhal,1,0,13Dec2010,1421,tPar,500,619,200,1,15,6.28079251418,1,X,4,z,1,299,9,0.396,371,2931,1859,3832,1,X among T,279
vs12,benlakhal,1,0,13Dec2010,1421,tPar,500,685,200,1,16,1.00056647778,0,X,2,a,1,442,9,0.484,380,1836,1178,2748,1,X among T,280
vs12,benlakhal,1,0,13Dec2010,1422,parallel,500,457,200,1,1,5.63223849594,0,X,4,a,1,513,9,3,366,2403,1736,3290,0,X among T,281
vs12,benlakhal,1,0,13Dec2010,1422,parallel,500,643,200,1,2,0.557908755101,0,X,4,a,1,486,9,3,360,1649,1020,2836,0,X among T,282
vs12,benlakhal,1,0,13Dec2010,1422,parallel,500,617,200,1,3,0.783687219796,0,X,2,a,1,470,9,1,391,1973,1287,2745,0,X among T,283
vs12,benlakhal,1,0,13Dec2010,1422,parallel,500,421,200,1,4,2.52489990532,1,X,12,a,0,400,1,2,320,2465,1165,3337,0,X among T,284
vs12,benlakhal,1,0,13Dec2010,1422,parallel,500,604,200,1,5,4.60835696108,1,X,8,z,1,398,9,3,310,2278,1206,3980,0,X among T,285
vs12,benlakhal,1,0,13Dec2010,1422,parallel,500,412,200,1,6,2.60409645088,1,X,2,z,1,414,9,1,355,1933,1120,2690,0,X among T,286
vs12,benlakhal,1,0,13Dec2010,1422,parallel,500,517,200,1,7,0.0679388721726,0,X,12,a,1,500,8,2,376,2851,1279,3480,0,X among T,287
vs12,benlakhal,1,0,13Dec2010,1422,parallel,500,570,200,1,8,2.53717124897,0,X,12,z,0,270,9,1,370,2505,1433,3621,0,X among T,288
vs12,benlakhal,1,0,13Dec2010,1422,parallel,500,539,200,1,9,2.45365308172,1,X,8,z,1,400,9,3,380,2064,1407,3031,0,X among T,289
vs12,benlakhal,1,0,13Dec2010,1422,parallel,500,644,200,1,10,1.60785075453,1,X,2,z,1,470,9,1,377,1634,1063,2764,0,X among T,290
vs12,benlakhal,1,0,13Dec2010,1422,parallel,500,681,200,1,11,1.9980259914,1,X,12,a,0,471,9,4,343,1179,3451,4280,0,X among T,291
vs12,benlakhal,1,0,13Dec2010,1422,parallel,500,675,200,1,12,5.82248712478,0,X,8,z,0,342,9,2,405,1121,1736,2722,0,X among T,292
vs12,benlakhal,1,0,13Dec2010,1422,parallel,500,557,200,1,13,0.961923148704,1,X,8,z,1,443,9,3,405,2179,1464,3008,0,X among T,293
vs12,benlakhal,1,0,13Dec2010,1423,parallel,500,522,200,1,14,5.05446507384,0,X,2,z,0,485,9,1,403,2036,1463,2760,0,X among T,294
vs12,benlakhal,1,0,13Dec2010,1423,parallel,500,694,200,1,15,4.81234630006,1,X,12,z,1,384,9,3,455,2007,1193,4110,0,X among T,295
vs12,benlakhal,1,0,13Dec2010,1423,parallel,500,494,200,1,16,3.83740312778,0,X,8,z,0,400,9,2,331,1132,2619,3205,0,X among T,296
vs12,benlakhal,1,0,13Dec2010,1423,parallel,500,415,200,1,17,6.19040998781,0,X,4,z,0,471,8,1,432,1006,1864,2836,0,X among T,297
vs12,benlakhal,1,0,13Dec2010,1423,parallel,500,652,200,1,18,0.952662860366,1,X,12,a,0,413,9,4,476,1093,1679,2307,0,X among T,298
vs12,benlakhal,1,0,13Dec2010,1423,parallel,500,403,200,1,19,6.01266763514,1,X,4,z,1,398,9,1,393,1520,948,2535,0,X among T,299
vs12,benlakhal,1,0,13Dec2010,1423,parallel,500,403,200,1,20,1.42157861306,0,X,12,z,0,470,9,3,416,1134,1692,2463,0,X among T,300
vs12,benlakhal,1,0,13Dec2010,1423,parallel,500,404,200,1,21,2.23700452796,0,X,12,a,1,413,9,5,342,2551,1637,4230,0,X among T,301
vs12,benlakhal,1,0,13Dec2010,1423,parallel,500,691,200,1,22,4.02037599025,1,X,8,z,1,400,9,3,386,1563,936,2779,0,X among T,302
vs12,benlakhal,1,0,13Dec2010,1423,parallel,500,663,200,1,23,5.79398752741,1,X,2,z,1,385,9,1,426,1991,1348,2949,0,X among T,303
vs12,benlakhal,1,0,13Dec2010,1423,parallel,500,625,200,1,24,2.54216769103,1,X,4,z,1,398,9,2,380,1549,1036,3566,0,X among T,304
vs12,benlakhal,1,0,13Dec2010,1423,parallel,500,494,200,1,25,4.16035741465,1,X,2,z,1,384,9,1,353,1735,1049,2492,0,X among T,305
vs12,benlakhal,1,0,13Dec2010,1423,parallel,500,696,200,1,26,4.49474006685,0,X,2,z,0,399,9,2,407,1893,1392,2807,0,X among T,306
vs12,benlakhal,1,0,13Dec2010,1424,parallel,500,472,200,1,27,0.175430882142,0,X,12,a,1,399,9,4,375,1578,1007,2365,0,X among T,307
vs12,benlakhal,1,0,13Dec2010,1424,parallel,500,624,200,1,28,0.908293461217,0,X,4,a,1,442,9,3,420,2805,2137,3692,0,X among T,308
vs12,benlakhal,1,0,13Dec2010,1424,parallel,500,541,200,1,29,4.20753474786,1,X,12,a,0,342,9,5,426,1063,1778,3294,0,X among T,309
vs12,benlakhal,1,0,13Dec2010,1424,parallel,500,663,200,1,30,2.68678148964,1,X,2,z,1,413,9,1,381,1618,903,2475,0,X among T,310
vs12,benlakhal,1,0,13Dec2010,1424,parallel,500,669,200,1,31,0.923719348584,0,X,2,z,0,399,1,1,386,2450,1134,3351,0,X among T,311
vs12,benlakhal,1,0,13Dec2010,1424,parallel,500,546,200,1,32,2.4889851113,0,X,8,z,0,398,9,1,358,1006,1592,2564,0,X among T,312
vs12,benlakhal,1,0,13Dec2010,1424,parallel,500,646,200,1,33,3.84273795617,1,X,4,z,1,542,9,3,403,1535,1106,2436,0,X among T,313
vs12,benlakhal,1,0,13Dec2010,1424,parallel,500,426,200,1,34,3.05787525551,1,X,8,z,1,413,9,4,346,1306,835,2163,0,X among T,314
vs12,benlakhal,1,0,13Dec2010,1424,parallel,500,433,200,1,35,3.24047683637,1,X,4,z,1,427,9,3,366,1864,1407,2822,0,X among T,315
vs12,benlakhal,1,0,13Dec2010,1424,parallel,500,465,200,1,36,5.14712548062,0,X,8,a,1,585,9,6,443,2322,1579,3007,0,X among T,316
vs12,benlakhal,1,0,13Dec2010,1424,parallel,500,613,200,1,37,0.183290845288,0,X,4,z,0,500,9,3,343,1887,1364,2602,0,X among T,317
vs12,benlakhal,1,0,13Dec2010,1424,parallel,500,484,200,1,38,0.631774927425,0,X,8,z,0,543,9,7,380,1706,878,2822,0,X among T,318
vs12,benlakhal,1,0,13Dec2010,1424,parallel,500,464,200,1,39,1.59791609647,1,X,4,a,0,471,9,3,415,1605,1165,2592,0,X among T,319
vs12,benlakhal,1,0,13Dec2010,1424,parallel,500,593,200,1,40,5.87378774339,0,X,2,a,1,600,10,1,367,1535,878,2493,0,X among T,320
vs12,benlakhal,1,0,13Dec2010,1425,parallel,500,504,200,2,1,5.29424176646,1,X,12,a,0,785,2,2,360,1716,2216,3274,0,X among T,321
vs12,benlakhal,1,0,13Dec2010,1425,parallel,500,402,200,2,2,0.823574374318,0,X,4,z,0,398,8,1,370,1220,1906,2735,0,X among T,322
vs12,benlakhal,1,0,13Dec2010,1425,parallel,500,621,200,2,3,2.64930142866,1,X,2,z,1,337,9,1,405,1534,1077,2478,0,X among T,323
vs12,benlakhal,1,0,13Dec2010,1426,parallel,500,569,200,2,4,4.90659816476,1,X,4,z,1,528,8,3,281,2021,1564,2736,0,X among T,324
vs12,benlakhal,1,0,13Dec2010,1426,parallel,500,624,200,2,5,5.05580557966,0,X,12,a,1,456,8,5,333,1592,864,2378,0,X among T,325
vs12,benlakhal,1,0,13Dec2010,1426,parallel,500,574,200,2,6,4.78233628381,1,X,12,z,1,356,9,3,408,906,1593,2536,0,X among T,326
vs12,benlakhal,1,0,13Dec2010,1426,parallel,500,444,200,2,7,1.54289351571,0,X,12,a,1,427,9,6,362,1262,735,2121,0,X among T,327
vs12,benlakhal,1,0,13Dec2010,1426,parallel,500,636,200,2,8,3.6472973246,1,X,2,a,0,413,8,1,416,805,1663,2292,0,X among T,328
vs12,benlakhal,1,0,13Dec2010,1426,parallel,500,690,200,2,9,3.52331932136,1,X,4,z,1,213,9,3,412,1463,1063,2479,0,X among T,329
vs12,benlakhal,1,0,13Dec2010,1426,parallel,500,524,200,2,10,0.424566310772,1,X,4,z,1,357,9,3,422,1520,920,2206,0,X among T,330
vs12,benlakhal,1,0,13Dec2010,1426,parallel,500,508,200,2,11,2.01057926663,0,X,12,a,1,295,8,10,373,2279,935,3237,0,X among T,331
vs12,benlakhal,1,0,13Dec2010,1426,parallel,500,506,200,2,12,4.90957457355,0,X,8,a,1,413,10,5,340,1349,720,2221,0,X among T,332
vs12,benlakhal,1,0,13Dec2010,1426,parallel,500,471,200,2,13,0.188502211995,1,X,8,z,1,385,9,4,411,1163,649,2064,0,X among T,333
vs12,benlakhal,1,0,13Dec2010,1426,parallel,500,500,200,2,14,1.834851985,0,X,2,a,1,542,9,2,372,1478,806,2136,0,X among T,334
vs12,benlakhal,1,0,13Dec2010,1426,parallel,500,631,200,2,15,5.56346971758,0,X,2,a,1,438,9,1,367,1449,892,3408,0,X among T,335
vs12,benlakhal,1,0,13Dec2010,1426,parallel,500,447,200,2,16,5.27579739012,1,X,2,z,1,428,9,1,381,1606,2164,2975,0,X among T,336
vs12,benlakhal,1,0,13Dec2010,1426,parallel,500,579,200,2,17,0.582041012345,1,X,8,z,1,357,10,5,377,1421,678,2149,0,X among T,337
vs12,benlakhal,1,0,13Dec2010,1426,parallel,500,626,200,2,18,4.03475941144,1,X,12,a,0,485,9,10,386,1406,920,2177,0,X among T,338
vs12,benlakhal,1,0,13Dec2010,1427,parallel,500,570,200,2,19,5.48856006107,0,X,2,z,0,456,9,1,370,877,1762,2434,0,X among T,339
vs12,benlakhal,1,0,13Dec2010,1427,parallel,500,614,200,2,20,1.28672356975,1,X,2,z,1,413,9,1,371,1262,791,2121,0,X among T,340
vs12,benlakhal,1,0,13Dec2010,1427,parallel,500,630,200,2,21,4.97697377384,0,X,8,a,1,328,9,6,345,1078,1563,2306,0,X among T,341
vs12,benlakhal,1,0,13Dec2010,1427,parallel,500,516,200,2,22,5.83616187228,0,X,8,z,0,427,9,6,375,734,1335,1891,0,X among T,342
vs12,benlakhal,1,0,13Dec2010,1427,parallel,500,474,200,2,23,2.73995062647,0,X,8,a,1,572,9,6,356,720,1363,2120,0,X among T,343
vs12,benlakhal,1,0,13Dec2010,1427,parallel,500,535,200,2,24,1.48292538039,0,X,8,a,1,456,9,6,393,1307,749,2035,0,X among T,344
vs12,benlakhal,1,0,13Dec2010,1427,parallel,500,609,200,2,25,2.83711800548,1,X,12,a,0,453,9,8,332,892,1493,2091,0,X among T,345
vs12,benlakhal,1,0,13Dec2010,1427,parallel,500,689,200,2,26,1.21448261367,0,X,4,a,1,442,9,3,365,1650,1006,2408,0,X among T,346
vs12,benlakhal,1,0,13Dec2010,1427,parallel,500,454,200,2,27,2.24849634101,1,X,8,a,0,454,8,7,370,705,1120,1791,0,X among T,347
vs12,benlakhal,1,0,13Dec2010,1427,parallel,500,634,200,2,28,0.49787261225,0,X,12,a,1,499,8,12,385,707,1365,2136,0,X among T,348
vs12,benlakhal,1,0,13Dec2010,1427,parallel,500,643,200,2,29,4.89827674066,1,X,12,z,1,485,9,11,393,733,1434,2076,0,X among T,349
vs12,benlakhal,1,0,13Dec2010,1427,parallel,500,457,200,2,30,2.32048952643,0,X,4,a,1,442,9,3,376,877,1349,2106,0,X among T,350
vs12,benlakhal,1,0,13Dec2010,1427,parallel,500,509,200,2,31,3.08397660074,1,X,4,a,0,542,9,3,428,1128,777,1658,0,X among T,351
vs12,benlakhal,1,0,13Dec2010,1427,parallel,500,512,200,2,32,2.44122999886,1,X,8,z,1,500,9,7,373,2551,1378,3538,0,X among T,352
vs12,benlakhal,1,0,13Dec2010,1427,parallel,500,700,200,2,33,2.27953147509,0,X,2,z,0,400,9,1,357,1062,1619,2219,0,X among T,353
vs12,benlakhal,1,0,13Dec2010,1427,parallel,500,695,200,2,34,2.50522250924,1,X,8,a,0,398,9,7,420,1506,993,3179,0,X among T,354
vs12,benlakhal,1,0,13Dec2010,1428,parallel,500,683,200,2,35,1.30575336403,0,X,4,a,1,712,9,3,361,763,1278,5268,0,X among T,355
vs12,benlakhal,1,0,13Dec2010,1428,parallel,500,458,200,2,36,2.13827856627,0,X,12,a,1,614,9,10,343,1749,791,2535,0,X among T,356
vs12,benlakhal,1,0,13Dec2010,1428,parallel,500,700,200,2,37,1.2222033028,1,X,4,z,1,427,9,3,381,877,1621,2635,0,X among T,357
vs12,benlakhal,1,0,13Dec2010,1428,parallel,500,562,200,2,38,1.10301835206,0,X,2,a,1,451,9,1,360,1363,906,1977,0,X among T,358
vs12,benlakhal,1,0,13Dec2010,1428,parallel,500,634,200,2,39,0.0747982041165,0,X,4,a,1,499,9,3,380,1577,1034,5338,0,X among T,359
vs12,benlakhal,1,0,13Dec2010,1428,parallel,500,414,200,2,40,2.82596534922,1,X,2,a,0,443,9,1,337,1764,1135,3394,0,X among T,360
vs12,benlakhal,1,0,13Dec2010,1428,parallel,500,621,200,3,1,2.20939664244,0,X,2,z,0,3560,8,0,360,1431,1988,2460,0,X among T,361
vs12,benlakhal,1,0,13Dec2010,1428,parallel,500,518,200,3,2,3.60517696289,0,X,4,z,0,442,9,0,373,907,1450,2193,0,X among T,362
vs12,benlakhal,1,0,13Dec2010,1429,parallel,500,475,200,3,3,2.38100346401,0,X,12,a,1,413,8,2,345,962,1462,2048,0,X among T,363
vs12,benlakhal,1,0,13Dec2010,1429,parallel,500,441,200,3,4,3.17893061598,1,X,12,a,0,457,9,2,450,835,1435,2121,0,X among T,364
vs12,benlakhal,1,0,13Dec2010,1429,parallel,500,668,200,3,5,5.98174940323,1,X,12,z,1,428,9,2,427,749,1405,1976,0,X among T,365
vs12,benlakhal,1,0,13Dec2010,1429,parallel,500,542,200,3,6,1.2887368672,0,X,4,z,0,470,9,0,417,805,1291,1691,0,X among T,366
vs12,benlakhal,1,0,13Dec2010,1429,parallel,500,481,200,3,7,0.323092596909,1,X,2,z,1,442,9,1,418,577,1234,2690,0,X among T,367
vs12,benlakhal,1,0,13Dec2010,1429,parallel,500,521,200,3,8,4.06878816807,0,X,12,a,1,543,9,3,425,650,1207,1664,0,X among T,368
vs12,benlakhal,1,0,13Dec2010,1429,parallel,500,513,200,3,9,0.739684452511,1,X,8,z,1,299,9,2,506,907,1349,2393,0,X among T,369
vs12,benlakhal,1,0,13Dec2010,1429,parallel,500,596,200,3,10,2.99931341674,1,X,4,a,0,456,8,3,416,792,1421,2937,0,X among T,370
vs12,benlakhal,1,0,13Dec2010,1429,parallel,500,652,200,3,11,1.04292525965,0,X,2,a,1,484,9,2,408,1307,764,2134,0,X among T,371
vs12,benlakhal,1,0,13Dec2010,1429,parallel,500,562,200,3,12,0.119897673817,0,X,12,a,1,456,1,2,402,949,1449,2649,0,X among T,372
vs12,benlakhal,1,0,13Dec2010,1429,parallel,500,442,200,3,13,1.1411645019,0,X,8,a,1,471,8,8,320,1636,1136,2448,0,X among T,373
vs12,benlakhal,1,0,13Dec2010,1429,parallel,500,603,200,3,14,5.05459653332,1,X,4,a,0,527,9,3,375,649,1106,1834,0,X among T,374
vs12,benlakhal,1,0,13Dec2010,1429,parallel,500,636,200,3,15,5.02706385808,1,X,8,z,1,542,9,8,391,749,5005,2016,0,X among T,375
vs12,benlakhal,1,0,13Dec2010,1429,parallel,500,543,200,3,16,4.37190884853,1,X,2,z,1,557,9,1,402,1564,963,2335,0,X among T,376
vs12,benlakhal,1,0,13Dec2010,1430,parallel,500,613,200,3,17,5.1933523673,1,X,2,z,1,427,9,1,346,1878,1135,2993,0,X among T,377
vs12,benlakhal,1,0,13Dec2010,1430,parallel,500,462,200,3,18,5.32258207067,0,X,12,a,1,628,1,7,336,3335,1708,4965,0,X among T,378
vs12,benlakhal,1,0,13Dec2010,1430,parallel,500,690,200,3,19,1.5561740745,0,X,2,a,1,542,9,2,317,1692,1106,2536,0,X among T,379
vs12,benlakhal,1,0,13Dec2010,1430,parallel,500,513,200,3,20,5.11118864595,0,X,8,a,1,571,9,7,356,1292,735,2336,0,X among T,380
vs12,benlakhal,1,0,13Dec2010,1430,parallel,500,480,200,3,21,3.41442174433,1,X,4,z,1,628,9,3,373,905,2493,4320,0,X among T,381
vs12,benlakhal,1,0,13Dec2010,1430,parallel,500,523,200,3,22,0.16793726803,0,X,12,a,1,471,9,9,353,2565,1322,3737,0,X among T,382
vs12,benlakhal,1,0,13Dec2010,1430,parallel,500,689,200,3,23,1.65458993789,0,X,2,z,0,465,9,1,395,1348,791,2006,0,X among T,383
vs12,benlakhal,1,0,13Dec2010,1430,parallel,500,412,200,3,24,3.11994568137,1,X,12,z,1,585,9,9,368,1692,1092,2521,0,X among T,384
vs12,benlakhal,1,0,13Dec2010,1430,parallel,500,489,200,3,25,0.30288154686,1,X,12,z,1,421,9,10,396,1192,706,2021,0,X among T,385
vs12,benlakhal,1,0,13Dec2010,1430,parallel,500,519,200,3,26,4.63398127933,1,X,4,z,1,528,9,2,367,1421,921,3251,0,X among T,386
vs12,benlakhal,1,0,13Dec2010,1430,parallel,500,419,200,3,27,4.57129888532,0,X,2,a,1,471,9,2,367,1449,921,6198,0,X among T,387
vs12,benlakhal,1,0,13Dec2010,1430,parallel,500,423,200,3,28,4.45270487059,0,X,4,z,0,526,9,3,346,1221,821,2150,0,X among T,388
vs12,benlakhal,1,0,13Dec2010,1430,parallel,500,528,200,3,29,5.36290681295,1,X,2,z,1,484,9,1,390,1778,906,2793,0,X among T,389
vs12,benlakhal,1,0,13Dec2010,1431,parallel,500,667,200,3,30,4.56782649954,1,X,8,z,1,557,9,6,335,1706,1106,2407,0,X among T,390
vs12,benlakhal,1,0,13Dec2010,1431,parallel,500,533,200,3,31,2.80584467175,0,X,4,z,0,470,9,3,385,1391,719,2292,0,X among T,391
vs12,benlakhal,1,0,13Dec2010,1431,parallel,500,622,200,3,32,4.27337812288,1,X,2,a,0,443,9,1,381,835,1363,2766,0,X among T,392
vs12,benlakhal,1,0,13Dec2010,1431,parallel,500,502,200,3,33,3.6575015704,0,X,8,a,1,485,9,7,386,1393,735,2278,0,X among T,393
vs12,benlakhal,1,0,13Dec2010,1431,parallel,500,564,200,3,34,5.45305742612,1,X,4,z,1,456,9,3,345,1020,1621,2536,0,X among T,394
vs12,benlakhal,1,0,13Dec2010,1431,parallel,500,597,200,3,35,6.12734993918,0,X,8,a,1,471,9,6,370,2336,692,3263,0,X among T,395
vs12,benlakhal,1,0,13Dec2010,1431,parallel,500,633,200,3,36,3.05514127455,1,X,8,a,0,485,9,7,385,935,1421,2707,0,X among T,396
vs12,benlakhal,1,0,13Dec2010,1431,parallel,500,700,200,3,37,4.42352281075,0,X,8,a,1,641,9,6,355,1303,775,3864,0,X among T,397
vs12,benlakhal,1,0,13Dec2010,1431,parallel,500,430,200,3,38,1.80897805264,1,X,8,z,1,714,9,7,466,1378,706,2206,0,X among T,398
vs12,benlakhal,1,0,13Dec2010,1431,parallel,500,504,200,3,39,0.337687187207,0,X,4,a,1,556,9,4,361,862,1506,2478,0,X among T,399
vs12,benlakhal,1,0,13Dec2010,1431,parallel,500,655,200,3,40,4.92088392497,1,X,12,z,1,643,9,11,423,749,1350,2006,0,X among T,400
vs12,benlakhal,1,0,13Dec2010,1432,parallel,500,662,200,4,1,5.30984764371,0,X,12,a,1,485,9,9,343,1903,1160,2846,0,X among T,401
vs12,benlakhal,1,0,13Dec2010,1432,parallel,500,678,200,4,2,2.66414616854,0,X,12,a,1,500,9,10,370,1377,749,2435,0,X among T,402
vs12,benlakhal,1,0,13Dec2010,1432,parallel,500,470,200,4,3,5.38911839687,1,X,8,z,1,599,2,7,386,2122,750,3094,0,X among T,403
vs12,benlakhal,1,0,13Dec2010,1432,parallel,500,430,200,4,4,4.83379994419,0,X,8,a,1,398,9,5,370,1620,920,2607,0,X among T,404
vs12,benlakhal,1,0,13Dec2010,1432,parallel,500,545,200,4,5,2.97354511909,0,X,2,z,0,457,10,1,360,1364,920,2236,0,X among T,405
vs12,benlakhal,1,0,13Dec2010,1432,parallel,500,468,200,4,6,3.88037467249,1,X,2,a,0,442,9,1,380,1134,734,1934,0,X among T,406
vs12,benlakhal,1,0,13Dec2010,1432,parallel,500,446,200,4,7,3.41498976599,1,X,12,a,0,465,9,11,372,1863,1378,2692,0,X among T,407
vs12,benlakhal,1,0,13Dec2010,1432,parallel,500,601,200,4,8,2.96314991819,0,X,2,z,0,542,9,1,390,1405,848,2306,0,X among T,408
vs12,benlakhal,1,0,13Dec2010,1432,parallel,500,522,200,4,9,1.5487986689,1,X,4,z,1,712,9,3,340,1365,907,2651,0,X among T,409
vs12,benlakhal,1,0,13Dec2010,1433,parallel,500,465,200,4,10,4.66449473207,1,X,8,z,1,413,9,6,378,1462,805,2478,0,X among T,410
vs12,benlakhal,1,0,13Dec2010,1433,parallel,500,478,200,4,11,3.6971182748,1,X,4,z,1,514,1,2,381,2809,2208,3709,0,X among T,411
vs12,benlakhal,1,0,13Dec2010,1433,parallel,500,448,200,4,12,2.76957266687,0,X,4,a,1,384,9,3,333,1816,1249,2530,0,X among T,412
vs12,benlakhal,1,0,13Dec2010,1433,parallel,500,608,200,4,13,1.12964327092,0,X,8,z,0,514,8,6,325,1092,663,2163,0,X among T,413
vs12,benlakhal,1,0,13Dec2010,1433,parallel,500,461,200,4,14,1.32137847198,0,X,2,a,1,713,9,1,356,1501,963,3160,0,X among T,414
vs12,benlakhal,1,0,13Dec2010,1433,parallel,500,430,200,4,15,1.64648332951,0,X,4,z,0,499,8,3,366,2365,1650,3251,0,X among T,415
vs12,benlakhal,1,0,13Dec2010,1433,parallel,500,632,200,4,16,5.65624278436,0,X,12,a,1,466,8,11,368,1264,721,2293,0,X among T,416
vs12,benlakhal,1,0,13Dec2010,1433,parallel,500,574,200,4,17,5.10947478028,1,X,2,z,1,399,9,1,330,1306,777,2164,0,X among T,417
vs12,benlakhal,1,0,13Dec2010,1433,parallel,500,478,200,4,18,0.2109119976,1,X,4,z,1,427,9,3,398,1430,730,2288,0,X among T,418
vs12,benlakhal,1,0,13Dec2010,1433,parallel,500,600,200,4,19,4.48625459401,0,X,4,a,1,557,9,3,372,1335,691,2121,0,X among T,419
vs12,benlakhal,1,0,13Dec2010,1433,parallel,500,412,200,4,20,5.81175923841,1,X,12,z,1,542,9,10,376,1347,647,2262,0,X among T,420
vs12,benlakhal,1,0,13Dec2010,1433,parallel,500,412,200,4,21,4.04661215597,1,X,12,a,0,499,9,9,387,1205,691,1948,0,X among T,421
vs12,benlakhal,1,0,13Dec2010,1433,parallel,500,485,200,4,22,3.47939817115,0,X,4,a,1,485,9,3,363,1158,591,1772,0,X among T,422
vs12,benlakhal,1,0,13Dec2010,1433,parallel,500,682,200,4,23,4.72664498563,0,X,12,a,1,585,9,10,353,1320,549,2607,0,X among T,423
vs12,benlakhal,1,0,13Dec2010,1434,parallel,500,635,200,4,24,4.78293697675,1,X,12,z,1,372,9,2,375,735,1976,2504,0,X among T,424
vs12,benlakhal,1,0,13Dec2010,1434,parallel,500,658,200,4,25,2.53737902793,0,X,8,a,1,456,5,3,390,1578,820,5680,0,X among T,425
vs12,benlakhal,1,0,13Dec2010,1434,parallel,500,611,200,4,26,1.71476800301,1,X,2,z,1,528,9,1,383,1578,963,2407,0,X among T,426
vs12,benlakhal,1,0,13Dec2010,1434,parallel,500,693,200,4,27,0.568624983272,1,X,2,z,1,400,9,1,353,1289,849,2032,0,X among T,427
vs12,benlakhal,1,0,13Dec2010,1434,parallel,500,491,200,4,28,4.65769344227,1,X,4,z,1,413,9,3,405,1306,748,2378,0,X among T,428
vs12,benlakhal,1,0,13Dec2010,1434,parallel,500,529,200,4,29,3.87774400436,0,X,8,a,1,456,9,6,381,1148,634,1874,0,X among T,429
vs12,benlakhal,1,0,13Dec2010,1434,parallel,500,516,200,4,30,0.178519297822,0,X,12,a,1,556,1,4,368,2021,1222,2679,0,X among T,430
vs12,benlakhal,1,0,13Dec2010,1434,parallel,500,524,200,4,31,4.86238586139,0,X,2,a,1,585,1,1,323,2546,920,3475,0,X among T,431
vs12,benlakhal,1,0,13Dec2010,1434,parallel,500,474,200,4,32,3.3350630281,1,X,2,z,1,642,9,1,337,1635,1092,2421,0,X among T,432
vs12,benlakhal,1,0,13Dec2010,1434,parallel,500,573,200,4,33,6.23237322407,1,X,8,z,1,484,9,7,362,1245,660,2147,0,X among T,433
vs12,benlakhal,1,0,13Dec2010,1434,parallel,500,424,200,4,34,1.93641599818,0,X,4,a,1,642,9,3,347,1577,978,5151,0,X among T,434
vs12,benlakhal,1,0,13Dec2010,1434,parallel,500,562,200,4,35,3.53072562303,1,X,8,a,0,442,1,7,386,2278,892,2821,0,X among T,435
vs12,benlakhal,1,0,13Dec2010,1434,parallel,500,610,200,4,36,0.696441405907,0,X,8,z,0,528,1,6,387,1634,880,2806,0,X among T,436
vs12,benlakhal,1,0,13Dec2010,1434,parallel,500,401,200,4,37,1.09386578581,1,X,8,z,1,413,9,6,407,1105,663,2148,0,X among T,437
vs12,benlakhal,1,0,13Dec2010,1435,parallel,500,415,200,4,38,1.15700402753,1,X,4,z,1,557,8,3,426,1087,591,2002,0,X among T,438
vs12,benlakhal,1,0,13Dec2010,1435,parallel,500,457,200,4,39,4.90382650861,0,X,2,a,1,512,9,1,295,1520,920,2993,0,X among T,439
vs12,benlakhal,1,0,13Dec2010,1435,parallel,500,489,200,4,40,3.21777215069,1,X,12,z,1,585,9,10,362,1348,762,2391,0,X among T,440
vs12,benlakhal,1,0,13Dec2010,1435,parallel,500,617,200,5,1,4.91568014688,0,X,12,a,1,641,1,8,331,1776,804,2648,0,X among T,441
vs12,benlakhal,1,0,13Dec2010,1435,parallel,500,580,200,5,2,5.75408172569,0,X,8,a,1,527,8,6,280,1292,678,1921,0,X among T,442
vs12,benlakhal,1,0,13Dec2010,1435,parallel,500,419,200,5,3,2.61953272214,1,X,8,z,1,556,8,6,335,1101,616,1916,0,X among T,443
vs12,benlakhal,1,0,13Dec2010,1435,parallel,500,561,200,5,4,2.81153322148,1,X,8,z,1,529,8,7,340,1449,835,2221,0,X among T,444
vs12,benlakhal,1,0,13Dec2010,1435,parallel,500,586,200,5,5,2.91374871647,0,X,12,a,1,643,9,9,353,1019,535,1962,0,X among T,445
vs12,benlakhal,1,0,13Dec2010,1436,parallel,500,422,200,5,6,3.85682747328,1,X,2,z,1,641,9,1,357,1334,863,2049,0,X among T,446
vs12,benlakhal,1,0,13Dec2010,1436,parallel,500,614,200,5,7,0.86410138731,1,X,8,z,1,385,9,6,312,1747,1135,3235,0,X among T,447
vs12,benlakhal,1,0,13Dec2010,1436,parallel,500,510,200,5,8,3.71139658685,0,X,12,a,1,542,9,9,363,1248,649,2078,0,X among T,448
vs12,benlakhal,1,0,13Dec2010,1436,parallel,500,590,200,5,9,2.63197014006,0,X,2,a,1,614,9,1,323,1230,730,1902,0,X among T,449
vs12,benlakhal,1,0,13Dec2010,1436,parallel,500,524,200,5,10,0.215781586129,1,X,12,z,1,485,9,10,332,1249,749,2622,0,X among T,450
vs12,benlakhal,1,0,13Dec2010,1436,parallel,500,444,200,5,11,2.01432399468,1,X,2,z,1,572,9,1,365,1490,706,6525,0,X among T,451
vs12,benlakhal,1,0,13Dec2010,1436,parallel,500,543,200,5,12,4.57181220307,1,X,2,z,1,471,9,2,381,1403,932,2204,0,X among T,452
vs12,benlakhal,1,0,13Dec2010,1436,parallel,500,424,200,5,13,3.53194263448,0,X,2,a,1,499,9,1,335,1335,777,2121,0,X among T,453
vs12,benlakhal,1,0,13Dec2010,1436,parallel,500,501,200,5,14,1.13841607847,0,X,4,a,1,528,9,3,336,1302,692,2102,0,X among T,454
vs12,benlakhal,1,0,13Dec2010,1436,parallel,500,588,200,5,15,2.86968326661,1,X,8,z,1,657,9,7,397,1792,1092,2679,0,X among T,455
vs12,benlakhal,1,0,13Dec2010,1436,parallel,500,446,200,5,16,4.19437063863,0,X,4,a,1,555,9,4,381,1246,605,1918,0,X among T,456
vs12,benlakhal,1,0,13Dec2010,1436,parallel,500,567,200,5,17,6.2281412691,1,X,8,z,1,456,8,7,332,1034,577,1893,0,X among T,457
vs12,benlakhal,1,0,13Dec2010,1436,parallel,500,453,200,5,18,4.81419143285,0,X,2,z,0,442,1,1,350,1663,748,2662,0,X among T,458
vs12,benlakhal,1,0,13Dec2010,1436,parallel,500,427,200,5,19,0.255908329707,0,X,2,a,1,599,8,1,332,1264,763,1978,0,X among T,459
vs12,benlakhal,1,0,13Dec2010,1436,parallel,500,470,200,5,20,1.41221459969,0,X,8,a,1,542,8,7,355,1005,562,1801,0,X among T,460
vs12,benlakhal,1,0,13Dec2010,1437,parallel,500,592,200,5,21,0.645952271212,1,X,12,z,1,427,9,11,375,1034,606,1891,0,X among T,461
vs12,benlakhal,1,0,13Dec2010,1437,parallel,500,515,200,5,22,0.438839465384,1,X,4,z,1,442,9,3,391,920,492,1606,0,X among T,462
vs12,benlakhal,1,0,13Dec2010,1437,parallel,500,468,200,5,23,4.24120725749,1,X,2,z,1,624,9,1,376,962,520,1677,0,X among T,463
vs12,benlakhal,1,0,13Dec2010,1437,parallel,500,557,200,5,24,0.558432290139,0,X,2,a,1,556,9,1,352,1135,592,2050,0,X among T,464
vs12,benlakhal,1,0,13Dec2010,1437,parallel,500,596,200,5,25,2.35547554188,0,X,12,a,1,599,9,11,311,1061,604,1790,0,X among T,465
vs12,benlakhal,1,0,13Dec2010,1437,parallel,500,562,200,5,26,2.13824655077,0,X,4,a,1,542,9,3,361,1249,777,2106,0,X among T,466
vs12,benlakhal,1,0,13Dec2010,1437,parallel,500,452,200,5,27,5.54152102965,0,X,4,a,1,528,8,3,362,962,534,1889,0,X among T,467
vs12,benlakhal,1,0,13Dec2010,1437,parallel,500,586,200,5,28,5.44210282156,1,X,4,z,1,527,9,3,373,1650,607,2480,0,X among T,468
vs12,benlakhal,1,0,13Dec2010,1437,parallel,500,584,200,5,29,3.77478238487,1,X,4,a,0,441,2,3,357,1502,577,2231,0,X among T,469
vs12,benlakhal,1,0,13Dec2010,1437,parallel,500,412,200,5,30,3.72653125763,0,X,8,a,1,500,9,7,380,1264,635,2192,0,X among T,470
vs12,benlakhal,1,0,13Dec2010,1437,parallel,500,467,200,5,31,5.09447679037,1,X,2,z,1,456,9,1,391,2232,776,3391,0,X among T,471
vs12,benlakhal,1,0,13Dec2010,1437,parallel,500,602,200,5,32,3.50389188887,1,X,4,z,1,613,9,3,347,2150,606,2893,0,X among T,472
vs12,benlakhal,1,0,13Dec2010,1437,parallel,500,485,200,5,33,3.36631519615,0,X,8,a,1,555,8,7,361,1063,605,2407,0,X among T,473
vs12,benlakhal,1,0,13Dec2010,1437,parallel,500,434,200,5,34,5.56940953837,0,X,8,a,1,542,9,7,383,1062,476,1906,0,X among T,474
vs12,benlakhal,1,0,13Dec2010,1437,parallel,500,589,200,5,35,5.82705290647,1,X,12,a,0,557,9,11,370,1486,815,2272,0,X among T,475
vs12,benlakhal,1,0,13Dec2010,1437,parallel,500,530,200,5,36,1.25096507027,1,X,12,z,1,557,8,10,353,1121,564,2050,0,X among T,476
vs12,benlakhal,1,0,13Dec2010,1438,parallel,500,640,200,5,37,1.99848915838,0,X,12,a,1,486,7,9,361,903,419,1962,0,X among T,477
vs12,benlakhal,1,0,13Dec2010,1438,parallel,500,429,200,5,38,3.13935702007,1,X,4,z,1,585,9,3,333,1133,519,2693,0,X among T,478
vs12,benlakhal,1,0,13Dec2010,1438,parallel,500,622,200,5,39,2.81150014645,1,X,12,z,1,470,9,11,377,1204,575,1961,0,X among T,479
vs12,benlakhal,1,0,13Dec2010,1438,parallel,500,425,200,5,40,2.81514980704,0,X,4,z,0,514,8,3,396,1291,533,2049,0,X among T,480
vs12,benlakhal,2,,20Dec2010,1326,pTMix,500,535,200,1,1,3.07087425299,1,X,12,z,1,2011,,,,,,,1,X among T,481
vs12,benlakhal,2,,20Dec2010,1326,pTMix,500,483,200,1,2,5.95792763021,0,L,12,a,1,2016,,,,,,,1,L among T,482
vs12,benlakhal,2,,20Dec2010,1326,pTMix,500,684,200,1,3,4.85208219756,0,X,2,a,1,2016,,,,,,,1,X among T,483
vs12,benlakhal,2,,20Dec2010,1326,pTMix,500,490,200,1,4,3.93361189923,1,X,4,z,1,2014,,,,,,,1,X among T,484
vs12,benlakhal,2,,20Dec2010,1326,pTMix,500,413,200,1,5,5.46428848822,1,X,12,z,1,2015,,,,,,,1,X among T,485
vs12,benlakhal,2,,20Dec2010,1326,pTMix,500,507,200,1,6,0.87468562628,1,X,8,z,1,2014,,,,,,,1,X among T,486
vs12,benlakhal,2,,20Dec2010,1326,pTMix,500,564,200,1,7,5.02273667928,0,X,12,a,1,2016,,,,,,,1,X among T,487
vs12,benlakhal,2,,20Dec2010,1326,pTMix,500,578,200,1,8,4.36904404762,0,L,8,a,1,2016,,,,,,,1,L among T,488
vs12,benlakhal,2,,20Dec2010,1326,pTMix,500,567,200,1,9,2.64374729027,1,X,4,z,1,2011,,,,,,,1,X among T,489
vs12,benlakhal,2,,20Dec2010,1326,pTMix,500,689,200,1,10,5.78446716613,1,L,2,a,0,2016,,,,,,,1,L among T,490
vs12,benlakhal,2,,20Dec2010,1326,pTMix,500,643,200,1,11,0.529287205125,0,L,4,a,1,2025,,,,,,,1,L among T,491
vs12,benlakhal,2,,20Dec2010,1326,pTMix,500,535,200,1,12,1.57570826085,0,L,8,a,1,2015,,,,,,,1,L among T,492
vs12,benlakhal,2,,20Dec2010,1326,pTMix,500,622,200,1,13,0.0545268640501,1,L,4,z,1,2017,,,,,,,1,L among T,493
vs12,benlakhal,2,,20Dec2010,1327,pTMix,500,577,200,1,14,3.67825019646,1,L,8,z,1,2024,,,,,,,1,L among T,494
vs12,benlakhal,2,,20Dec2010,1327,pTMix,500,627,200,1,15,5.46691423499,1,L,12,z,1,2017,,,,,,,1,L among T,495
vs12,benlakhal,2,,20Dec2010,1327,pTMix,500,673,200,1,16,3.81837590603,1,X,8,z,1,2014,,,,,,,1,X among T,496
vs12,benlakhal,2,,20Dec2010,1327,pTMix,500,595,200,1,17,5.86927896059,0,X,4,a,1,2017,,,,,,,1,X among T,497
vs12,benlakhal,2,,20Dec2010,1327,pTMix,500,548,200,1,18,5.19270728186,0,X,8,a,1,2015,,,,,,,1,X among T,498
vs12,benlakhal,2,,20Dec2010,1327,pTMix,500,523,200,1,19,3.31324376776,1,X,2,z,1,2013,,,,,,,1,X among T,499
vs12,benlakhal,2,,20Dec2010,1327,pTMix,500,487,200,1,20,2.36144039442,1,L,4,z,1,2016,,,,,,,1,L among T,500
vs12,benlakhal,2,,20Dec2010,1327,pTMix,500,440,200,1,21,5.10254458291,0,X,2,a,1,2016,,,,,,,1,X among T,501
vs12,benlakhal,2,,20Dec2010,1327,pTMix,500,620,200,1,22,3.6299275998,0,L,12,a,1,2015,,,,,,,1,L among T,502
vs12,benlakhal,2,,20Dec2010,1327,pTMix,500,513,200,1,23,1.59329011092,0,X,8,a,1,2015,,,,,,,1,X among T,503
vs12,benlakhal,2,,20Dec2010,1327,pTMix,500,655,200,1,24,2.73158851965,1,L,8,z,1,2025,,,,,,,1,L among T,504
vs12,benlakhal,2,,20Dec2010,1327,pTMix,500,678,200,1,25,6.14353956262,0,X,4,a,1,2015,,,,,,,1,X among T,505
vs12,benlakhal,2,,20Dec2010,1327,pTMix,500,454,200,1,26,4.38147560103,0,X,12,a,1,2016,,,,,,,1,X among T,506
vs12,benlakhal,2,,20Dec2010,1327,pTMix,500,514,200,1,27,1.98824354119,1,L,2,z,1,2015,,,,,,,1,L among T,507
vs12,benlakhal,2,,20Dec2010,1327,pTMix,500,499,200,1,28,3.57665474976,1,X,2,z,1,2016,,,,,,,1,X among T,508
vs12,benlakhal,2,,20Dec2010,1327,pTMix,500,614,200,1,29,3.60688845414,0,L,4,a,1,2014,,,,,,,1,L among T,509
vs12,benlakhal,2,,20Dec2010,1327,pTMix,500,537,200,1,30,0.777288675065,0,L,2,a,1,2016,,,,,,,1,L among T,510
vs12,benlakhal,2,,20Dec2010,1327,pTMix,500,505,200,1,31,3.58518010479,1,L,12,z,1,2015,,,,,,,1,L among T,511
vs12,benlakhal,2,,20Dec2010,1327,pTMix,500,655,200,1,32,1.81523286625,0,L,2,a,1,2016,,,,,,,1,L among T,512
vs12,benlakhal,2,,20Dec2010,1328,tMix,500,679,200,1,1,6.13107865881,1,X,4,z,1,686,9,1.944,381,8469,13744,16032,1,X among T,513
vs12,benlakhal,2,,20Dec2010,1328,tMix,500,500,200,1,2,1.88330391443,1,X,12,z,1,557,9,4.284,502,1917,4807,6693,1,X among T,514
vs12,benlakhal,2,,20Dec2010,1328,tMix,500,481,200,1,3,5.46004078672,1,X,2,z,1,413,7,0.426,433,6657,4140,8156,1,X among T,515
vs12,benlakhal,2,,20Dec2010,1328,tMix,500,594,200,1,4,5.74179645048,1,L,12,a,0,499,9,3.588,543,2939,4496,5196,1,L among T,516
vs12,benlakhal,2,,20Dec2010,1328,tMix,500,549,200,1,5,0.504800105301,0,L,8,z,0,556,1,2.848,411,2380,4124,5367,1,L among T,517
vs12,benlakhal,2,,20Dec2010,1329,tMix,500,512,200,1,6,4.51921804009,0,X,4,z,0,613,9,1.652,440,1321,3338,4277,1,X among T,518
vs12,benlakhal,2,,20Dec2010,1329,tMix,500,548,200,1,7,3.02585030643,0,L,2,a,1,570,9,0.74,433,2866,4725,5782,1,L among T,519
vs12,benlakhal,2,,20Dec2010,1329,tMix,500,468,200,1,8,2.35875301224,0,L,12,z,0,499,9,3.588,387,1150,3810,5979,1,L among T,520
vs12,benlakhal,2,,20Dec2010,1329,tMix,500,497,200,1,9,5.5857647947,1,L,4,z,1,471,10,1.084,411,4909,2938,6182,1,L among T,521
vs12,benlakhal,2,,20Dec2010,1329,tMix,500,669,200,1,10,4.01265221552,1,L,2,a,0,485,10,0.57,425,3034,2036,4092,1,L among T,522
vs12,benlakhal,2,,20Dec2010,1329,tMix,500,473,200,1,11,0.0804625538987,1,L,4,z,1,398,9,0.792,431,3495,2551,4578,1,L among T,523
vs12,benlakhal,2,,20Dec2010,1329,tMix,500,551,200,1,12,1.47171608938,1,X,12,z,1,643,9,5.316,396,4225,2523,5423,1,X among T,524
vs12,benlakhal,2,,20Dec2010,1329,tMix,500,470,200,1,13,0.920689663654,1,L,12,z,1,413,9,2.556,417,3925,1522,4977,1,L among T,525
vs12,benlakhal,2,,20Dec2010,1330,tMix,500,526,200,1,14,3.39430414642,1,L,8,z,1,485,9,2.28,340,3539,1837,5151,1,L among T,526
vs12,benlakhal,2,,20Dec2010,1330,tMix,500,487,200,1,15,4.88204047865,1,X,8,z,1,385,10,1.48,442,2380,3910,5551,1,X among T,527
vs12,benlakhal,2,,20Dec2010,1330,tMix,500,622,200,1,16,1.41003486303,0,X,8,z,0,513,2,2.504,410,2365,4909,5966,1,X among T,528
vs12,benlakhal,2,,20Dec2010,1330,tMix,500,561,200,1,17,0.986285644761,1,L,2,z,1,570,10,0.74,430,4051,2379,5352,1,L among T,529
vs12,benlakhal,2,,20Dec2010,1330,tMix,500,524,200,1,18,3.93971808635,1,X,8,z,1,499,9,2.392,371,3181,1750,4536,1,X among T,530
vs12,benlakhal,2,,20Dec2010,1330,tMix,500,486,200,1,19,1.15729050503,0,X,4,z,0,442,1,0.968,395,3637,2136,5065,1,X among T,531
vs12,benlakhal,2,,20Dec2010,1330,tMix,500,508,200,1,20,3.29313226474,1,X,4,a,0,499,10,1.196,456,2794,1879,3694,1,X among T,532
vs12,benlakhal,2,,20Dec2010,1330,tMix,500,400,200,1,21,1.43137138309,0,X,12,z,0,600,9,4.8,378,3209,1966,4467,1,X among T,533
vs12,benlakhal,2,,20Dec2010,1331,tMix,500,499,200,1,22,2.76337318638,0,L,4,z,0,652,4,1.808,416,5412,1965,8639,1,L among T,534
vs12,benlakhal,2,,20Dec2010,1331,tMix,500,628,200,1,23,1.19657100921,0,X,2,a,1,786,4,1.172,602,7968,2008,10428,1,X among T,535
vs12,benlakhal,2,,20Dec2010,1331,tMix,500,589,200,1,24,0.68542373815,0,X,8,z,0,570,0,2.96,425,3766,2350,5024,1,X among T,536
vs12,benlakhal,2,,20Dec2010,1331,tMix,500,573,200,1,25,3.09638262602,1,X,2,z,1,671,10,0.942,603,2207,1264,3422,1,X among T,537
vs12,benlakhal,2,,20Dec2010,1331,tMix,500,535,200,1,26,4.85340408232,0,L,12,a,1,725,5,6.3,375,7086,2753,7868,1,L among T,538
vs12,benlakhal,2,,20Dec2010,1332,tMix,500,431,200,1,27,2.91950408256,1,L,8,z,1,642,4,3.536,461,3024,25401,27545,1,L among T,539
vs12,benlakhal,2,,20Dec2010,1332,tMix,500,485,200,1,28,1.98251980313,0,X,2,a,1,657,9,0.914,440,2794,1894,3780,1,X among T,540
vs12,benlakhal,2,,20Dec2010,1332,tMix,500,440,200,1,29,0.254630737009,0,L,8,z,0,722,9,4.176,411,3652,2580,4609,1,L among T,541
vs12,benlakhal,2,,20Dec2010,1332,tMix,500,652,200,1,30,0.556634592825,0,X,12,a,1,610,1,4.92,507,4196,1980,5541,1,X among T,542
vs12,benlakhal,2,,20Dec2010,1332,tMix,500,625,200,1,31,6.04501439366,0,L,2,a,1,528,10,0.656,522,2050,1249,3037,1,L among T,543
vs12,benlakhal,2,,20Dec2010,1332,tMix,500,480,200,1,32,4.7793546662,0,L,4,z,0,1458,0,5.032,416,2377,3779,4750,1,L among T,544
vs12,benlakhal,2,,20Dec2010,1333,mixed,500,683,200,1,1,0.560264716636,1,L,8,a,0,643,0,4,562,3922,2420,5494,0,L among T,545
vs12,benlakhal,2,,20Dec2010,1333,mixed,500,418,200,1,2,6.27017493553,1,L,4,z,1,484,9,0,471,3950,2867,5366,0,L among T,546
vs12,benlakhal,2,,20Dec2010,1333,mixed,500,626,200,1,3,4.4041815626,1,X,2,z,1,613,9,2,491,2021,1392,3080,0,X among T,547
vs12,benlakhal,2,,20Dec2010,1333,mixed,500,532,200,1,4,2.38004750613,0,X,12,z,0,527,9,4,447,2780,1866,3837,0,X among T,548
vs12,benlakhal,2,,20Dec2010,1333,mixed,500,677,200,1,5,0.89002391091,1,X,8,z,1,486,9,7,431,2362,1264,3549,0,X among T,549
vs12,benlakhal,2,,20Dec2010,1333,mixed,500,585,200,1,6,3.88660981773,0,L,4,z,0,685,1,1,511,6293,3921,4850,0,L among T,550
vs12,benlakhal,2,,20Dec2010,1334,mixed,500,583,200,1,7,6.15592014396,1,L,12,a,0,785,9,5,446,18124,1565,19251,0,L among T,551
vs12,benlakhal,2,,20Dec2010,1334,mixed,500,624,200,1,8,2.39434225123,1,L,2,a,0,743,0,1,473,3395,2309,4052,0,L among T,552
vs12,benlakhal,2,,20Dec2010,1334,mixed,500,655,200,1,9,2.71071625758,1,L,12,z,1,514,3,2,436,3607,1663,4308,0,L among T,553
vs12,benlakhal,2,,20Dec2010,1334,mixed,500,610,200,1,10,2.96197884202,0,X,8,z,0,657,2,1,438,2987,1222,3931,0,X among T,554
vs12,benlakhal,2,,20Dec2010,1334,mixed,500,507,200,1,11,2.14683717208,0,L,2,a,1,600,9,1,427,1993,1264,2708,0,L among T,555
vs12,benlakhal,2,,20Dec2010,1334,mixed,500,407,200,1,12,2.27519621737,1,X,4,z,1,668,9,3,515,2379,1250,3438,0,X among T,556
vs12,benlakhal,2,,20Dec2010,1334,mixed,500,456,200,1,13,0.512833588334,0,X,4,a,1,757,1,4,458,4049,2633,4864,0,X among T,557
vs12,benlakhal,2,,20Dec2010,1334,mixed,500,440,200,1,14,2.6316677985,0,X,2,a,1,556,9,0,491,3481,2179,4420,0,X among T,558
vs12,benlakhal,2,,20Dec2010,1334,mixed,500,537,200,1,15,1.55022870928,0,L,8,z,0,600,9,1,507,3339,5012,5682,0,L among T,559
vs12,benlakhal,2,,20Dec2010,1334,mixed,500,472,200,1,16,3.87543071114,0,L,12,z,0,742,9,4,372,3166,1779,4195,0,L among T,560
vs12,benlakhal,2,,20Dec2010,1335,mixed,500,479,200,1,17,2.21615052322,0,X,2,a,1,607,9,1,398,2608,3495,4997,0,X among T,561
vs12,benlakhal,2,,20Dec2010,1335,mixed,500,627,200,1,18,1.22342165325,0,L,12,a,1,714,8,5,402,2862,1962,3748,0,L among T,562
vs12,benlakhal,2,,20Dec2010,1335,mixed,500,574,200,1,19,1.50341540492,1,X,4,z,1,628,9,4,477,5710,4609,10803,0,X among T,563
vs12,benlakhal,2,,20Dec2010,1335,mixed,500,575,200,1,20,0.944677165329,0,L,4,z,0,671,9,3,481,2037,5384,10687,0,L among T,564
vs12,benlakhal,2,,20Dec2010,1335,mixed,500,477,200,1,21,3.43710698709,0,X,12,z,0,499,9,4,456,2906,4163,5293,0,X among T,565
vs12,benlakhal,2,,20Dec2010,1335,mixed,500,456,200,1,22,4.01634272279,1,X,2,z,1,613,10,1,457,1434,2335,3147,0,X among T,566
vs12,benlakhal,2,,20Dec2010,1335,mixed,500,419,200,1,23,5.10487543944,1,X,12,z,1,471,9,3,491,1050,1851,3137,0,X among T,567
vs12,benlakhal,2,,20Dec2010,1335,mixed,500,690,200,1,24,4.81946924626,0,X,4,a,1,585,9,2,442,1360,2647,3748,0,X among T,568
vs12,benlakhal,2,,20Dec2010,1335,mixed,500,572,200,1,25,0.95010196667,0,X,12,z,0,499,9,3,505,1837,2780,3575,0,X among T,569
vs12,benlakhal,2,,20Dec2010,1336,mixed,500,642,200,1,26,5.43137857051,0,L,12,z,0,557,1,2,600,3067,5084,6883,0,L among T,570
vs12,benlakhal,2,,20Dec2010,1336,mixed,500,471,200,1,27,3.56788440936,1,L,4,z,1,699,10,2,475,3409,1879,5322,0,L among T,571
vs12,benlakhal,2,,20Dec2010,1336,mixed,500,403,200,1,28,4.06003671634,0,X,2,a,1,799,9,2,551,1879,3137,4180,0,X among T,572
vs12,benlakhal,2,,20Dec2010,1336,mixed,500,686,200,1,29,4.19381208786,0,L,8,z,0,624,1,2,366,3524,4668,10589,0,L among T,573
vs12,benlakhal,2,,20Dec2010,1336,mixed,500,458,200,1,30,3.25250292015,0,X,8,z,0,542,9,4,486,4393,3281,5280,0,X among T,574
vs12,benlakhal,2,,20Dec2010,1336,mixed,500,609,200,1,31,3.41018239782,0,L,2,a,1,729,9,2,576,1864,977,2908,0,L among T,575
vs12,benlakhal,2,,20Dec2010,1336,mixed,500,471,200,1,32,1.29592843938,1,X,2,z,1,667,9,1,500,2107,1306,3021,0,X among T,576
vs12,benlakhal,2,,20Dec2010,1336,mixed,500,558,200,1,33,4.72974469546,0,L,8,z,0,857,9,4,518,2361,1593,3461,0,L among T,577
vs12,benlakhal,2,,20Dec2010,1336,mixed,500,501,200,1,34,3.575349387,1,X,12,z,1,613,9,0,476,2995,1995,3910,0,X among T,578
vs12,benlakhal,2,,20Dec2010,1337,mixed,500,571,200,1,35,2.1310800415,1,X,8,z,1,506,9,1,396,2551,1436,3351,0,X among T,579
vs12,benlakhal,2,,20Dec2010,1337,mixed,500,524,200,1,36,1.18801956363,1,L,8,z,1,628,9,2,502,2250,1192,3405,0,L among T,580
vs12,benlakhal,2,,20Dec2010,1337,mixed,500,403,200,1,37,3.23236835668,1,X,8,z,1,514,9,2,447,3223,1450,4539,0,X among T,581
vs12,benlakhal,2,,20Dec2010,1337,mixed,500,630,200,1,38,4.41078672178,0,X,4,a,1,686,9,2,443,1993,2895,3595,0,X among T,582
vs12,benlakhal,2,,20Dec2010,1337,mixed,500,409,200,1,39,5.69828851764,1,X,4,z,1,513,9,3,501,1535,977,3234,0,X among T,583
vs12,benlakhal,2,,20Dec2010,1337,mixed,500,529,200,1,40,1.19313710482,1,L,12,z,1,785,10,6,491,5637,4651,6724,0,L among T,584
vs12,benlakhal,2,,20Dec2010,1337,mixed,500,698,200,1,41,2.83708565295,1,L,2,z,1,656,9,1,500,2364,1234,3649,0,L among T,585
vs12,benlakhal,2,,20Dec2010,1337,mixed,500,492,200,1,42,0.655865951537,1,L,4,z,1,442,9,2,636,5198,3968,6582,0,L among T,586
vs12,benlakhal,2,,20Dec2010,1337,mixed,500,597,200,1,43,5.05631556517,0,X,8,z,0,528,9,1,462,2738,1407,3852,0,X among T,587
vs12,benlakhal,2,,20Dec2010,1337,mixed,500,552,200,1,44,2.31286984993,1,L,2,z,1,514,10,1,540,2390,1346,4064,0,L among T,588
vs12,benlakhal,2,,20Dec2010,1338,mixed,500,635,200,1,45,4.68787430711,0,L,4,z,0,900,1,1,515,4006,1950,5408,0,L among T,589
vs12,benlakhal,2,,20Dec2010,1338,mixed,500,537,200,1,46,2.98593000581,1,X,12,z,1,1215,9,2,470,3392,6095,6852,0,X among T,590
vs12,benlakhal,2,,20Dec2010,1338,mixed,500,626,200,1,47,5.71749972808,0,L,2,a,1,642,1,1,500,5880,4135,7697,0,L among T,591
vs12,benlakhal,2,,20Dec2010,1338,mixed,500,490,200,1,48,3.15735229668,1,L,8,z,1,669,9,1,461,4267,2838,7639,0,L among T,592
vs12,benlakhal,2,,20Dec2010,1340,mixed,500,465,200,2,1,2.42886906637,0,X,2,a,1,743,9,1,517,2574,1502,3503,0,X among T,593
vs12,benlakhal,2,,20Dec2010,1340,mixed,500,582,200,2,2,4.01077924667,1,L,8,z,1,857,9,2,518,3522,2309,5409,0,L among T,594
vs12,benlakhal,2,,20Dec2010,1340,mixed,500,446,200,2,3,4.14527443708,0,X,2,a,1,671,9,1,422,2207,1464,2993,0,X among T,595
vs12,benlakhal,2,,20Dec2010,1340,mixed,500,640,200,2,4,1.37408202244,1,X,8,z,1,585,9,2,530,2265,1407,3095,0,X among T,596
vs12,benlakhal,2,,20Dec2010,1340,mixed,500,678,200,2,5,3.37976168072,1,X,12,z,1,600,9,1,503,2205,1291,3234,0,X among T,597
vs12,benlakhal,2,,20Dec2010,1341,mixed,500,544,200,2,6,2.43904363534,0,L,12,z,0,928,2,0,378,1851,4265,5666,0,L among T,598
vs12,benlakhal,2,,20Dec2010,1341,mixed,500,448,200,2,7,1.35739799189,0,L,12,z,0,656,9,5,460,2021,1164,2907,0,L among T,599
vs12,benlakhal,2,,20Dec2010,1341,mixed,500,448,200,2,8,2.20818443451,1,X,4,z,1,610,9,4,547,1335,6628,8424,0,X among T,600
vs12,benlakhal,2,,20Dec2010,1341,mixed,500,529,200,2,9,5.75393396676,1,L,2,z,1,585,10,2,658,2708,2008,3480,0,L among T,601
vs12,benlakhal,2,,20Dec2010,1341,mixed,500,592,200,2,10,1.88772278889,0,X,12,z,0,713,9,5,522,1945,1360,2946,0,X among T,602
vs12,benlakhal,2,,20Dec2010,1341,mixed,500,475,200,2,11,1.68794598023,0,L,4,a,1,785,9,3,511,1836,1035,2964,0,L among T,603
vs12,benlakhal,2,,20Dec2010,1341,mixed,500,624,200,2,12,2.11216119689,0,X,2,a,1,643,9,2,531,2422,1636,3494,0,X among T,604
vs12,benlakhal,2,,20Dec2010,1341,mixed,500,555,200,2,13,4.4756690336,1,X,2,z,1,615,9,1,621,2220,1376,3349,0,X among T,605
vs12,benlakhal,2,,20Dec2010,1341,mixed,500,563,200,2,14,0.0186333554602,0,L,12,z,0,728,10,2,523,2866,1794,3647,0,L among T,606
vs12,benlakhal,2,,20Dec2010,1341,mixed,500,560,200,2,15,4.23337158583,1,L,12,z,1,585,4,3,496,3338,1523,4711,0,L among T,607
vs12,benlakhal,2,,20Dec2010,1342,mixed,500,529,200,2,16,3.14285692082,1,X,12,z,1,570,9,0,460,3095,1865,3909,0,X among T,608
vs12,benlakhal,2,,20Dec2010,1342,mixed,500,594,200,2,17,3.05106200781,0,L,4,a,1,628,1,2,441,3019,2377,3792,0,L among T,609
vs12,benlakhal,2,,20Dec2010,1342,mixed,500,415,200,2,18,5.63675212437,0,X,8,a,1,714,3,2,462,2008,2608,3881,0,X among T,610
vs12,benlakhal,2,,20Dec2010,1342,mixed,500,413,200,2,19,3.77510776655,1,L,4,z,1,514,9,1,452,2922,1364,5411,0,L among T,611
vs12,benlakhal,2,,20Dec2010,1342,mixed,500,688,200,2,20,2.58162266666,1,L,4,z,1,798,10,2,430,2336,1221,3322,0,L among T,612
vs12,benlakhal,2,,20Dec2010,1342,mixed,500,644,200,2,21,5.61096850068,1,L,8,z,1,499,9,4,492,2372,1493,3115,0,L among T,613
vs12,benlakhal,2,,20Dec2010,1342,mixed,500,462,200,2,22,4.525478986,0,X,4,z,0,499,9,1,496,2392,1392,3780,0,X among T,614
vs12,benlakhal,2,,20Dec2010,1342,mixed,500,617,200,2,23,5.51164014255,1,X,4,z,1,510,10,2,505,2264,1349,3222,0,X among T,615
vs12,benlakhal,2,,20Dec2010,1342,mixed,500,594,200,2,24,5.52629558733,1,L,2,z,1,499,9,2,477,2651,1693,6535,0,L among T,616
vs12,benlakhal,2,,20Dec2010,1342,mixed,500,498,200,2,25,4.34226209113,1,L,12,z,1,471,9,2,508,4809,3924,6054,0,L among T,617
vs12,benlakhal,2,,20Dec2010,1343,mixed,500,510,200,2,26,3.13091691204,1,X,8,z,1,514,9,1,471,2422,1293,4248,0,X among T,618
vs12,benlakhal,2,,20Dec2010,1343,mixed,500,530,200,2,27,4.36528152616,1,X,4,z,1,557,10,2,445,2164,1292,2950,0,X among T,619
vs12,benlakhal,2,,20Dec2010,1343,mixed,500,616,200,2,28,2.59697717456,0,L,2,z,0,582,9,2,505,2452,1365,3352,0,L among T,620
vs12,benlakhal,2,,20Dec2010,1343,mixed,500,539,200,2,29,1.69570386219,1,L,4,z,1,628,9,2,503,3721,2819,5264,0,L among T,621
vs12,benlakhal,2,,20Dec2010,1343,mixed,500,607,200,2,30,0.52600905184,0,L,8,z,0,485,10,3,495,2895,1665,4580,0,L among T,622
vs12,benlakhal,2,,20Dec2010,1343,mixed,500,672,200,2,31,3.41512439147,0,L,2,a,1,742,9,1,497,2065,1336,3366,0,L among T,623
vs12,benlakhal,2,,20Dec2010,1343,mixed,500,424,200,2,32,1.60196351458,1,X,2,z,1,570,9,1,427,1993,1321,4252,0,X among T,624
vs12,benlakhal,2,,20Dec2010,1343,mixed,500,463,200,2,33,3.53751272198,0,L,4,a,1,699,1,1,491,1946,3218,4062,0,L among T,625
vs12,benlakhal,2,,20Dec2010,1343,mixed,500,410,200,2,34,4.84879645853,0,X,8,z,0,727,1,2,501,2379,1808,2922,0,X among T,626
vs12,benlakhal,2,,20Dec2010,1343,mixed,500,479,200,2,35,4.85092566717,0,L,8,z,0,599,4,2,465,3324,1836,4252,0,L among T,627
vs12,benlakhal,2,,20Dec2010,1343,mixed,500,651,200,2,36,1.17477019532,0,X,8,z,0,513,4,3,456,2547,3247,4333,0,X among T,628
vs12,benlakhal,2,,20Dec2010,1344,mixed,500,684,200,2,37,4.61031833648,1,X,2,z,1,585,10,1,418,9416,1235,16518,0,X among T,629
vs12,benlakhal,2,,20Dec2010,1344,mixed,500,631,200,2,38,2.37806338728,1,L,2,z,1,527,10,1,435,2175,1503,3448,0,L among T,630
vs12,benlakhal,2,,20Dec2010,1344,mixed,500,471,200,2,39,3.05917881473,0,X,12,z,0,600,9,3,508,1892,1136,3207,0,X among T,631
vs12,benlakhal,2,,20Dec2010,1344,mixed,500,574,200,2,40,2.26433343697,0,X,12,z,0,499,8,3,431,1749,1035,2664,0,X among T,632
vs12,benlakhal,2,,20Dec2010,1344,mixed,500,518,200,2,41,3.76453954162,0,X,4,z,0,556,9,1,521,2231,1407,5807,0,X among T,633
vs12,benlakhal,2,,20Dec2010,1344,mixed,500,649,200,2,42,4.9374192867,1,L,8,z,1,513,9,3,515,5424,4451,6553,0,L among T,634
vs12,benlakhal,2,,20Dec2010,1344,mixed,500,624,200,2,43,5.85245268923,0,X,4,z,0,486,9,2,505,1192,2030,2846,0,X among T,635
vs12,benlakhal,2,,20Dec2010,1345,mixed,500,604,200,2,44,3.0474682745,0,L,8,z,0,484,9,3,496,1665,8627,9656,0,L among T,636
vs12,benlakhal,2,,20Dec2010,1345,mixed,500,506,200,2,45,2.9435048459,0,L,2,z,0,485,9,0,445,2320,1550,3993,0,L among T,637
vs12,benlakhal,2,,20Dec2010,1345,mixed,500,482,200,2,46,4.93104412174,1,L,12,z,1,585,0,2,477,6239,7683,8354,0,L among T,638
vs12,benlakhal,2,,20Dec2010,1345,mixed,500,584,200,2,47,0.837628512221,1,X,12,z,1,470,10,1,450,2476,1536,3377,0,X among T,639
vs12,benlakhal,2,,20Dec2010,1345,mixed,500,669,200,2,48,5.87575505689,1,X,8,z,1,471,9,1,418,1821,992,2722,0,X among T,640
vs12,benlakhal,2,,20Dec2010,1346,mixed,500,449,200,3,1,4.21028453381,0,X,2,z,0,613,9,2,508,2476,1460,3462,0,X among T,641
vs12,benlakhal,2,,20Dec2010,1346,mixed,500,612,200,3,2,4.25501559255,1,L,8,z,1,499,2,2,471,2636,1607,3422,0,L among T,642
vs12,benlakhal,2,,20Dec2010,1346,mixed,500,653,200,3,3,1.55685839136,0,X,2,z,0,600,9,1,480,1335,2493,3266,0,X among T,643
vs12,benlakhal,2,,20Dec2010,1346,mixed,500,662,200,3,4,3.06844471089,1,L,2,z,1,600,9,2,495,1934,1322,2978,0,L among T,644
vs12,benlakhal,2,,20Dec2010,1346,mixed,500,623,200,3,5,4.85438810278,1,X,8,z,1,499,9,2,448,906,2021,2736,0,X among T,645
vs12,benlakhal,2,,20Dec2010,1346,mixed,500,424,200,3,6,3.81429041289,1,X,4,z,1,628,9,1,506,945,2161,3776,0,X among T,646
vs12,benlakhal,2,,20Dec2010,1346,mixed,500,520,200,3,7,0.838201048748,0,X,8,z,0,656,9,2,470,2648,1421,4150,0,X among T,647
vs12,benlakhal,2,,20Dec2010,1346,mixed,500,558,200,3,8,1.81419151166,1,L,8,z,1,585,9,3,516,1364,2465,3608,0,L among T,648
vs12,benlakhal,2,,20Dec2010,1346,mixed,500,418,200,3,9,1.01050751941,1,L,8,z,1,552,9,3,486,892,1692,2693,0,L among T,649
vs12,benlakhal,2,,20Dec2010,1346,mixed,500,568,200,3,10,5.54959821937,1,X,12,z,1,485,9,1,401,2665,1893,3719,0,X among T,650
vs12,benlakhal,2,,20Dec2010,1347,mixed,500,633,200,3,11,3.79951056525,0,L,4,a,1,756,1,1,443,3366,1292,5165,0,L among T,651
vs12,benlakhal,2,,20Dec2010,1347,mixed,500,695,200,3,12,4.69212760042,1,X,12,z,1,485,9,1,408,1336,2508,3566,0,X among T,652
vs12,benlakhal,2,,20Dec2010,1347,mixed,500,480,200,3,13,3.97769414334,0,X,4,z,0,628,1,1,407,2688,1745,3632,0,X among T,653
vs12,benlakhal,2,,20Dec2010,1347,mixed,500,695,200,3,14,1.96586360811,1,X,2,z,1,513,10,1,552,1806,1177,2879,0,X among T,654
vs12,benlakhal,2,,20Dec2010,1347,mixed,500,406,200,3,15,5.19866734768,1,L,2,z,1,499,10,1,640,3581,2809,4638,0,L among T,655
vs12,benlakhal,2,,20Dec2010,1347,mixed,500,547,200,3,16,0.743929744643,0,L,12,z,0,670,9,1,486,2535,1248,3579,0,L among T,656
vs12,benlakhal,2,,20Dec2010,1347,mixed,500,651,200,3,17,4.19964393823,1,L,12,z,1,828,9,2,703,3362,2366,4291,0,L among T,657
vs12,benlakhal,2,,20Dec2010,1347,mixed,500,472,200,3,18,4.07422034453,0,L,8,z,0,484,9,2,523,2179,1307,3323,0,L among T,658
vs12,benlakhal,2,,20Dec2010,1347,mixed,500,578,200,3,19,1.79577021369,1,L,4,z,1,652,8,2,498,2936,1392,4724,0,L among T,659
vs12,benlakhal,2,,20Dec2010,1347,mixed,500,526,200,3,20,5.83528076714,0,X,4,z,0,514,9,2,493,2005,2735,5238,0,X among T,660
vs12,benlakhal,2,,20Dec2010,1348,mixed,500,559,200,3,21,0.435130571451,0,X,8,z,0,513,9,2,461,1206,3979,4908,0,X among T,661
vs12,benlakhal,2,,20Dec2010,1348,mixed,500,618,200,3,22,1.80444624914,0,X,8,z,0,642,1,1,482,3037,2337,3991,0,X among T,662
vs12,benlakhal,2,,20Dec2010,1348,mixed,500,619,200,3,23,3.90911492351,1,L,4,z,1,743,10,1,516,2781,1522,3795,0,L among T,663
vs12,benlakhal,2,,20Dec2010,1348,mixed,500,600,200,3,24,1.78493986329,0,L,2,a,1,667,9,2,530,2407,1621,3522,0,L among T,664
vs12,benlakhal,2,,20Dec2010,1348,mixed,500,676,200,3,25,5.17266423941,1,L,4,z,1,628,9,2,415,2377,1506,6182,0,L among T,665
vs12,benlakhal,2,,20Dec2010,1348,mixed,500,689,200,3,26,5.04292652038,0,L,4,z,0,585,9,1,462,3792,1804,4607,0,L among T,666
vs12,benlakhal,2,,20Dec2010,1348,mixed,500,448,200,3,27,3.43413599083,1,L,2,z,1,614,10,1,475,2364,1722,3636,0,L among T,667
vs12,benlakhal,2,,20Dec2010,1348,mixed,500,507,200,3,28,2.1873120445,1,X,12,z,1,556,10,1,468,2937,1694,4281,0,X among T,668
vs12,benlakhal,2,,20Dec2010,1348,mixed,500,644,200,3,29,4.71417866378,1,X,8,z,1,495,10,2,447,1364,4983,5740,0,X among T,669
vs12,benlakhal,2,,20Dec2010,1348,mixed,500,504,200,3,30,3.6637990995,0,X,2,a,1,556,9,1,472,1847,1275,3335,0,X among T,670
vs12,benlakhal,2,,20Dec2010,1349,mixed,500,525,200,3,31,0.642088671907,0,L,8,a,1,713,1,1,738,3218,2651,4362,0,L among T,671
vs12,benlakhal,2,,20Dec2010,1349,mixed,500,436,200,3,32,0.981703990617,0,L,8,a,1,671,7,2,608,3624,1737,7611,0,L among T,672
vs12,benlakhal,2,,20Dec2010,1349,mixed,500,549,200,3,33,1.15899098454,1,X,4,z,1,514,9,1,510,2164,1092,3093,0,X among T,673
vs12,benlakhal,2,,20Dec2010,1349,mixed,500,619,200,3,34,0.823872317318,1,L,12,z,1,571,9,1,471,2150,1336,3294,0,L among T,674
vs12,benlakhal,2,,20Dec2010,1349,mixed,500,554,200,3,35,2.78325222816,1,X,2,z,1,600,9,1,470,2590,1789,3219,0,X among T,675
vs12,benlakhal,2,,20Dec2010,1349,mixed,500,605,200,3,36,2.77417614919,0,X,4,z,0,728,9,2,531,2193,1250,2908,0,X among T,676
vs12,benlakhal,2,,20Dec2010,1349,mixed,500,596,200,3,37,1.86187624809,1,X,8,z,1,541,10,3,513,2365,1436,3423,0,X among T,677
vs12,benlakhal,2,,20Dec2010,1349,mixed,500,636,200,3,38,4.19987272258,0,L,2,a,1,599,9,2,481,2518,1851,3319,0,L among T,678
vs12,benlakhal,2,,20Dec2010,1349,mixed,500,407,200,3,39,0.967333620862,0,X,12,z,0,728,9,1,520,2179,1179,3079,0,X among T,679
vs12,benlakhal,2,,20Dec2010,1349,mixed,500,574,200,3,40,1.89606644297,1,X,4,z,1,542,10,2,477,2291,1033,3478,0,X among T,680
vs12,benlakhal,2,,20Dec2010,1349,mixed,500,468,200,3,41,3.92806043166,1,L,12,z,1,555,9,2,440,2378,1506,3347,0,L among T,681
vs12,benlakhal,2,,20Dec2010,1350,mixed,500,660,200,3,42,0.90552272352,0,X,12,z,0,599,9,2,513,3165,2266,4166,0,X among T,682
vs12,benlakhal,2,,20Dec2010,1350,mixed,500,467,200,3,43,5.86388634621,0,L,4,a,1,768,9,2,492,2780,1908,4396,0,L among T,683
vs12,benlakhal,2,,20Dec2010,1350,mixed,500,530,200,3,44,0.723551600005,0,L,12,z,0,927,9,3,503,1416,2403,3188,0,L among T,684
vs12,benlakhal,2,,20Dec2010,1350,mixed,500,452,200,3,45,4.2332026957,1,X,2,z,1,700,9,2,460,2194,1307,3137,0,X among T,685
vs12,benlakhal,2,,20Dec2010,1350,mixed,500,621,200,3,46,0.237943867881,0,L,12,z,0,671,9,3,437,2308,1437,6342,0,L among T,686
vs12,benlakhal,2,,20Dec2010,1350,mixed,500,664,200,3,47,1.95540629118,0,X,12,z,0,613,9,3,518,3782,5900,6812,0,X among T,687
vs12,benlakhal,2,,20Dec2010,1350,mixed,500,442,200,3,48,3.74342745586,0,L,2,a,1,942,9,2,517,3610,2694,4596,0,L among T,688
vs12,benlakhal,2,,20Dec2010,1354,mixed,500,553,200,4,1,5.38487055963,0,L,8,z,0,714,10,2,428,2680,1966,3952,0,L among T,689
vs12,benlakhal,2,,20Dec2010,1354,mixed,500,481,200,4,2,5.93566142656,0,X,12,z,0,528,0,1,597,1966,2622,3952,0,X among T,690
vs12,benlakhal,2,,20Dec2010,1354,mixed,500,419,200,4,3,3.52428123937,0,L,2,a,1,684,9,2,645,1932,1102,2975,0,L among T,691
vs12,benlakhal,2,,20Dec2010,1354,mixed,500,599,200,4,4,2.34733583868,0,L,12,a,1,785,1,1,401,1820,1207,2507,0,L among T,692
vs12,benlakhal,2,,20Dec2010,1355,mixed,500,457,200,4,5,2.76243606594,0,X,4,a,1,613,1,1,361,1821,1178,2536,0,X among T,693
vs12,benlakhal,2,,20Dec2010,1355,mixed,500,433,200,4,6,1.98787734862,0,X,12,z,0,828,2,2,466,2824,3834,4919,0,X among T,694
vs12,benlakhal,2,,20Dec2010,1355,mixed,500,694,200,4,7,0.125424546007,1,L,2,z,1,585,9,1,485,1621,1048,2635,0,L among T,695
vs12,benlakhal,2,,20Dec2010,1355,mixed,500,547,200,4,8,5.03257595486,1,L,8,z,1,912,10,2,497,2694,1865,3995,0,L among T,696
vs12,benlakhal,2,,20Dec2010,1355,mixed,500,676,200,4,9,3.33923195642,1,X,2,z,1,814,10,1,796,1988,1378,2746,0,X among T,697
vs12,benlakhal,2,,20Dec2010,1355,mixed,500,665,200,4,10,1.61312933406,1,X,2,z,1,571,9,2,523,2279,1464,3394,0,X among T,698
vs12,benlakhal,2,,20Dec2010,1355,mixed,500,513,200,4,11,0.258852324554,1,X,8,z,1,526,9,4,515,1708,3353,4238,0,X among T,699
vs12,benlakhal,2,,20Dec2010,1355,mixed,500,504,200,4,12,3.68597767854,1,L,2,z,1,613,9,1,560,2116,1263,4247,0,L among T,700
vs12,benlakhal,2,,20Dec2010,1355,mixed,500,638,200,4,13,3.61270669102,0,L,8,a,1,771,9,4,608,1436,5396,6282,0,L among T,701
vs12,benlakhal,2,,20Dec2010,1355,mixed,500,502,200,4,14,2.65491101645,0,X,8,a,1,742,9,4,502,1550,2408,3504,0,X among T,702
vs12,benlakhal,2,,20Dec2010,1356,mixed,500,682,200,4,15,2.94961744233,0,L,4,a,1,727,9,2,477,1892,2878,3622,0,L among T,703
vs12,benlakhal,2,,20Dec2010,1356,mixed,500,464,200,4,16,2.70422840456,0,X,12,a,1,614,1,3,500,1705,1047,2590,0,X among T,704
vs12,benlakhal,2,,20Dec2010,1356,mixed,500,614,200,4,17,1.18119920888,1,X,2,z,1,728,9,2,625,1735,991,2807,0,X among T,705
vs12,benlakhal,2,,20Dec2010,1356,mixed,500,688,200,4,18,1.15730592515,1,X,12,z,1,441,8,1,512,3008,1995,3751,0,X among T,706
vs12,benlakhal,2,,20Dec2010,1356,mixed,500,440,200,4,19,1.14695809422,0,X,8,z,0,815,4,1,661,2661,1546,3519,0,X among T,707
vs12,benlakhal,2,,20Dec2010,1356,mixed,500,696,200,4,20,5.44820975675,1,L,12,z,1,613,10,1,557,2551,1365,3524,0,L among T,708
vs12,benlakhal,2,,20Dec2010,1356,mixed,500,615,200,4,21,5.82080501271,1,L,12,z,1,585,10,1,483,5426,2522,10027,0,L among T,709
vs12,benlakhal,2,,20Dec2010,1356,mixed,500,447,200,4,22,4.6938827938,1,L,2,a,0,600,9,2,515,2493,1707,3619,0,L among T,710
vs12,benlakhal,2,,20Dec2010,1356,mixed,500,549,200,4,23,4.6995022284,1,X,4,z,1,514,9,1,498,3381,2666,4353,0,X among T,711
vs12,benlakhal,2,,20Dec2010,1357,mixed,500,646,200,4,24,1.80989291718,1,L,4,z,1,656,9,2,523,10444,9414,12832,0,L among T,712
vs12,benlakhal,2,,20Dec2010,1357,mixed,500,582,200,4,25,6.21130766318,0,X,4,z,0,585,9,0,487,2723,1178,4296,0,X among T,713
vs12,benlakhal,2,,20Dec2010,1357,mixed,500,422,200,4,26,3.66245908652,0,L,12,z,0,613,9,2,466,1007,2062,5022,0,L among T,714
vs12,benlakhal,2,,20Dec2010,1357,mixed,500,514,200,4,27,4.67902697143,0,L,4,a,1,942,9,3,498,2635,1349,3878,0,L among T,715
vs12,benlakhal,2,,20Dec2010,1357,mixed,500,440,200,4,28,6.17506935964,1,X,12,z,1,542,9,2,543,2165,1279,3065,0,X among T,716
vs12,benlakhal,2,,20Dec2010,1357,mixed,500,492,200,4,29,3.88920118199,0,L,2,a,1,714,9,1,410,2147,1475,3234,0,L among T,717
vs12,benlakhal,2,,20Dec2010,1357,mixed,500,603,200,4,30,4.27715291353,0,X,8,a,1,799,1,1,681,2136,1479,2966,0,X among T,718
vs12,benlakhal,2,,20Dec2010,1357,mixed,500,673,200,4,31,4.59177328611,1,L,4,z,1,628,10,1,555,3037,2236,3838,0,L among T,719
vs12,benlakhal,2,,20Dec2010,1357,mixed,500,540,200,4,32,0.813994284404,1,X,12,z,1,514,9,1,517,2088,1131,3018,0,X among T,720
vs12,benlakhal,2,,20Dec2010,1357,mixed,500,478,200,4,33,5.92660481201,1,L,8,z,1,514,9,1,680,1906,1006,2864,0,L among T,721
vs12,benlakhal,2,,20Dec2010,1357,mixed,500,445,200,4,34,1.25855680771,1,L,12,z,1,628,1,2,555,1664,2651,3480,0,L among T,722
vs12,benlakhal,2,,20Dec2010,1358,mixed,500,583,200,4,35,0.799292301083,1,L,8,z,1,843,1,0,561,2332,1450,3376,0,L among T,723
vs12,benlakhal,2,,20Dec2010,1358,mixed,500,449,200,4,36,1.41508328306,0,X,2,a,1,686,9,1,602,1922,1250,2794,0,X among T,724
vs12,benlakhal,2,,20Dec2010,1358,mixed,500,571,200,4,37,6.00468432691,0,X,2,a,1,695,2,0,693,4196,3410,5226,0,X among T,725
vs12,benlakhal,2,,20Dec2010,1358,mixed,500,599,200,4,38,3.30321190046,0,L,12,z,0,686,9,2,605,2635,1577,4909,0,L among T,726
vs12,benlakhal,2,,20Dec2010,1358,mixed,500,645,200,4,39,1.82611471437,1,X,8,z,1,700,9,3,657,1989,6138,8641,0,X among T,727
vs12,benlakhal,2,,20Dec2010,1358,mixed,500,420,200,4,40,2.53814183666,1,L,4,a,0,686,1,0,531,1835,1136,3137,0,L among T,728
vs12,benlakhal,2,,20Dec2010,1358,mixed,500,519,200,4,41,3.96043552131,0,L,4,a,1,743,10,3,582,2432,1393,3804,0,L among T,729
vs12,benlakhal,2,,20Dec2010,1358,mixed,500,500,200,4,42,4.44548662023,0,X,2,a,1,743,0,1,545,1421,4124,5309,0,X among T,730
vs12,benlakhal,2,,20Dec2010,1358,mixed,500,652,200,4,43,2.06473099165,0,X,4,a,1,671,1,2,603,1422,2593,4310,0,X among T,731
vs12,benlakhal,2,,20Dec2010,1358,mixed,500,629,200,4,44,6.23164481234,1,X,4,z,1,470,10,2,490,2450,1263,3922,0,X among T,732
vs12,benlakhal,2,,20Dec2010,1359,mixed,500,491,200,4,45,2.48671470107,0,L,2,a,1,729,10,2,551,3064,1462,4837,0,L among T,733
vs12,benlakhal,2,,20Dec2010,1359,mixed,500,479,200,4,46,4.48759369897,1,X,8,z,1,570,9,2,501,2673,1679,5849,0,X among T,734
vs12,benlakhal,2,,20Dec2010,1359,mixed,500,466,200,4,47,3.30803346456,1,X,4,z,1,571,9,1,481,1635,763,2479,0,X among T,735
vs12,benlakhal,2,,20Dec2010,1359,mixed,500,612,200,4,48,2.14921076119,0,L,8,a,1,685,4,0,567,2336,1250,2994,0,L among T,736
vs12,benlakhal,2,,20Dec2010,1401,mixed,500,578,200,5,1,6.2092864995,0,L,8,a,1,614,9,1,463,2633,1392,3333,0,L among T,737
vs12,benlakhal,2,,20Dec2010,1401,mixed,500,598,200,5,2,5.37723967469,0,L,12,a,1,570,1,2,647,2893,2294,4352,0,L among T,738
vs12,benlakhal,2,,20Dec2010,1401,mixed,500,602,200,5,3,3.2123115308,1,L,2,a,0,785,1,1,477,2250,1463,3092,0,L among T,739
vs12,benlakhal,2,,20Dec2010,1401,mixed,500,668,200,5,4,3.35952899594,0,L,8,z,0,514,3,2,420,2089,791,2731,0,L among T,740
vs12,benlakhal,2,,20Dec2010,1401,mixed,500,541,200,5,5,0.520923549577,1,X,12,z,1,571,9,5,547,2293,1049,3237,0,X among T,741
vs12,benlakhal,2,,20Dec2010,1401,mixed,500,621,200,5,6,1.56819688804,0,X,8,a,1,725,1,2,555,1135,1779,2893,0,X among T,742
vs12,benlakhal,2,,20Dec2010,1401,mixed,500,609,200,5,7,4.81533778182,0,X,8,a,1,785,1,2,653,1422,2051,3832,0,X among T,743
vs12,benlakhal,2,,20Dec2010,1402,mixed,500,400,200,5,8,0.159959368617,1,L,8,z,1,914,9,1,535,2136,1364,3980,0,L among T,744
vs12,benlakhal,2,,20Dec2010,1402,mixed,500,506,200,5,9,3.96580259629,1,L,12,z,1,585,9,2,535,4097,2981,5454,0,L among T,745
vs12,benlakhal,2,,20Dec2010,1402,mixed,500,540,200,5,10,5.33241584156,1,X,2,z,1,519,10,2,552,2422,1306,3508,0,X among T,746
vs12,benlakhal,2,,20Dec2010,1402,mixed,500,417,200,5,11,5.34138921432,0,L,8,z,0,642,9,2,511,2180,4035,4636,0,L among T,747
vs12,benlakhal,2,,20Dec2010,1402,mixed,500,629,200,5,12,5.48756677719,0,L,4,a,1,814,4,1,536,2822,1636,3809,0,L among T,748
vs12,benlakhal,2,,20Dec2010,1402,mixed,500,593,200,5,13,0.600239080356,0,L,2,a,1,757,2,1,532,1621,863,2464,0,L among T,749
vs12,benlakhal,2,,20Dec2010,1402,mixed,500,437,200,5,14,1.36642160801,0,X,12,a,1,899,1,3,575,1349,1919,2533,0,X among T,750
vs12,benlakhal,2,,20Dec2010,1402,mixed,500,634,200,5,15,1.47237340856,1,L,8,z,1,613,9,1,712,2536,1721,3694,0,L among T,751
vs12,benlakhal,2,,20Dec2010,1402,mixed,500,525,200,5,16,2.43465994772,1,L,4,z,1,524,9,1,638,2250,1235,3637,0,L among T,752
vs12,benlakhal,2,,20Dec2010,1402,mixed,500,597,200,5,17,0.451201864774,1,X,8,z,1,485,9,1,498,3092,1494,4021,0,X among T,753
vs12,benlakhal,2,,20Dec2010,1402,mixed,500,516,200,5,18,4.00989053484,1,L,12,z,1,572,9,2,657,2680,1536,3737,0,L among T,754
vs12,benlakhal,2,,20Dec2010,1403,mixed,500,429,200,5,19,5.51034724371,0,L,4,z,0,600,10,1,668,2308,1264,3309,0,L among T,755
vs12,benlakhal,2,,20Dec2010,1403,mixed,500,567,200,5,20,0.97498192487,1,X,2,z,1,513,9,1,603,1821,1121,2744,0,X among T,756
vs12,benlakhal,2,,20Dec2010,1403,mixed,500,513,200,5,21,0.975197386249,1,X,4,z,1,499,10,2,608,1606,848,2549,0,X among T,757
vs12,benlakhal,2,,20Dec2010,1403,mixed,500,432,200,5,22,1.64915790188,0,X,12,a,1,628,9,3,593,2020,1021,2949,0,X among T,758
vs12,benlakhal,2,,20Dec2010,1403,mixed,500,463,200,5,23,4.35786609608,1,L,2,a,0,670,9,1,756,2479,1778,4438,0,L among T,759
vs12,benlakhal,2,,20Dec2010,1403,mixed,500,486,200,5,24,6.0422305385,1,X,8,z,1,542,10,1,575,3109,1621,5440,0,X among T,760
vs12,benlakhal,2,,20Dec2010,1403,mixed,500,522,200,5,25,1.43321340876,0,X,12,z,0,756,8,1,662,2622,1708,4167,0,X among T,761
vs12,benlakhal,2,,20Dec2010,1403,mixed,500,575,200,5,26,1.40470841667,1,X,4,z,1,512,9,1,602,1802,977,3260,0,X among T,762
vs12,benlakhal,2,,20Dec2010,1403,mixed,500,445,200,5,27,0.259286777652,0,X,4,a,1,700,9,3,645,3423,1907,4479,0,X among T,763
vs12,benlakhal,2,,20Dec2010,1403,mixed,500,506,200,5,28,2.39788470293,0,L,2,a,1,670,10,1,618,1577,977,2935,0,L among T,764
vs12,benlakhal,2,,20Dec2010,1403,mixed,500,489,200,5,29,0.228016315956,0,L,12,a,1,742,9,2,560,6582,7796,8553,0,L among T,765
vs12,benlakhal,2,,20Dec2010,1404,mixed,500,405,200,5,30,2.11610452706,0,L,2,a,1,585,9,2,533,1536,1006,3338,0,L among T,766
vs12,benlakhal,2,,20Dec2010,1404,mixed,500,475,200,5,31,1.63164304579,1,X,4,z,1,499,9,1,610,2262,1178,3062,0,X among T,767
vs12,benlakhal,2,,20Dec2010,1404,mixed,500,689,200,5,32,3.8776474898,1,L,8,a,0,684,2,2,722,2551,3466,4395,0,L among T,768
vs12,benlakhal,2,,20Dec2010,1404,mixed,500,700,200,5,33,0.856678194024,0,X,2,a,1,727,5,0,557,2566,1135,3794,0,X among T,769
vs12,benlakhal,2,,20Dec2010,1404,mixed,500,694,200,5,34,2.95517902037,0,X,2,a,1,571,9,2,606,1875,1175,2676,0,X among T,770
vs12,benlakhal,2,,20Dec2010,1404,mixed,500,471,200,5,35,3.95271495911,0,L,12,a,1,671,1,3,597,1436,2165,3251,0,L among T,771
vs12,benlakhal,2,,20Dec2010,1404,mixed,500,534,200,5,36,1.56598788964,1,X,12,z,1,699,9,1,565,2293,1408,4768,0,X among T,772
vs12,benlakhal,2,,20Dec2010,1404,mixed,500,551,200,5,37,3.52828048436,0,L,4,z,0,1026,10,2,555,2336,1450,3394,0,L among T,773
vs12,benlakhal,2,,20Dec2010,1404,mixed,500,551,200,5,38,3.73281657722,0,X,8,z,0,614,9,7,503,1721,1165,3106,0,X among T,774
vs12,benlakhal,2,,20Dec2010,1404,mixed,500,435,200,5,39,0.274283419362,1,L,4,z,1,671,9,1,628,2093,991,3022,0,L among T,775
vs12,benlakhal,2,,20Dec2010,1404,mixed,500,423,200,5,40,5.45109771437,1,L,2,z,1,600,9,1,722,2288,1244,3175,0,L among T,776
vs12,benlakhal,2,,20Dec2010,1405,mixed,500,494,200,5,41,4.98964407102,0,X,4,z,0,786,9,2,486,1507,3051,4535,0,X among T,777
vs12,benlakhal,2,,20Dec2010,1405,mixed,500,493,200,5,42,5.47032899095,1,X,8,z,1,642,9,1,607,2337,1150,4711,0,X among T,778
vs12,benlakhal,2,,20Dec2010,1405,mixed,500,564,200,5,43,5.91954896363,0,X,2,a,1,700,0,1,588,1406,2436,3637,0,X among T,779
vs12,benlakhal,2,,20Dec2010,1405,mixed,500,660,200,5,44,0.270202239902,1,X,12,z,1,513,9,3,608,2475,1646,4105,0,X among T,780
vs12,benlakhal,2,,20Dec2010,1405,mixed,500,505,200,5,45,5.41158465607,1,X,2,z,1,485,9,1,623,1792,1049,4351,0,X among T,781
vs12,benlakhal,2,,20Dec2010,1405,mixed,500,665,200,5,46,4.30204152886,0,X,4,z,0,757,4,3,686,2823,1365,3996,0,X among T,782
vs12,benlakhal,2,,20Dec2010,1405,mixed,500,416,200,5,47,1.6272495323,1,L,4,z,1,628,9,1,498,1779,864,2908,0,L among T,783
vs12,benlakhal,2,,20Dec2010,1405,mixed,500,664,200,5,48,2.02635032356,1,L,12,z,1,514,7,1,636,1864,1050,3335,0,L among T,784
vs12,benlakhal,2,,20Dec2010,1406,mixed,500,599,200,6,1,1.47528830013,0,L,12,z,0,799,9,1,531,4135,2166,5465,0,L among T,785
vs12,benlakhal,2,,20Dec2010,1406,mixed,500,523,200,6,2,3.00091332069,0,X,2,z,0,542,9,1,532,2007,1435,3894,0,X among T,786
vs12,benlakhal,2,,20Dec2010,1406,mixed,500,618,200,6,3,4.06720210018,0,X,4,z,0,528,2,1,531,2279,1091,3065,0,X among T,787
vs12,benlakhal,2,,20Dec2010,1406,mixed,500,478,200,6,4,3.19753077881,1,L,2,a,0,686,1,1,575,5752,6510,7597,0,L among T,788
vs12,benlakhal,2,,20Dec2010,1406,mixed,500,595,200,6,5,6.2463205991,0,X,8,z,0,456,9,2,577,1577,2878,3593,0,X among T,789
vs12,benlakhal,2,,20Dec2010,1406,mixed,500,620,200,6,6,0.332184979214,1,X,12,z,1,499,9,3,535,1621,950,2637,0,X among T,790
vs12,benlakhal,2,,20Dec2010,1407,mixed,500,613,200,6,7,2.05992659176,1,X,2,z,1,485,9,1,668,1936,978,2779,0,X among T,791
vs12,benlakhal,2,,20Dec2010,1407,mixed,500,546,200,6,8,0.599845904899,1,L,2,z,1,499,9,1,618,3276,2165,4449,0,L among T,792
vs12,benlakhal,2,,20Dec2010,1407,mixed,500,449,200,6,9,4.55803743875,1,X,12,z,1,485,9,1,535,2966,1751,4339,0,X among T,793
vs12,benlakhal,2,,20Dec2010,1407,mixed,500,569,200,6,10,1.72625537569,0,L,4,z,0,528,8,2,508,1835,848,2650,0,L among T,794
vs12,benlakhal,2,,20Dec2010,1407,mixed,500,663,200,6,11,0.211910370342,0,X,4,z,0,471,7,1,678,4320,1593,2833,0,X among T,795
vs12,benlakhal,2,,20Dec2010,1407,mixed,500,586,200,6,12,4.97058679073,1,X,2,z,1,456,9,1,706,2220,848,2950,0,X among T,796
vs12,benlakhal,2,,20Dec2010,1407,mixed,500,565,200,6,13,5.32390872723,1,X,8,z,1,528,9,1,612,3380,2123,5111,0,X among T,797
vs12,benlakhal,2,,20Dec2010,1407,mixed,500,662,200,6,14,2.27176830854,1,X,8,z,1,500,9,2,595,2188,1245,3747,0,X among T,798
vs12,benlakhal,2,,20Dec2010,1407,mixed,500,552,200,6,15,3.68189415169,0,L,2,a,1,600,9,1,616,2079,1320,3406,0,L among T,799
vs12,benlakhal,2,,20Dec2010,1407,mixed,500,509,200,6,16,5.49693448087,1,L,8,z,1,685,9,1,565,2579,1635,4051,0,L among T,800
vs12,benlakhal,2,,20Dec2010,1407,mixed,500,452,200,6,17,4.76788837108,1,L,4,z,1,652,10,2,605,1978,1135,2922,0,L among T,801
vs12,benlakhal,2,,20Dec2010,1408,mixed,500,691,200,6,18,4.05132862784,0,L,8,a,1,943,9,3,553,2405,1465,5466,0,L among T,802
vs12,benlakhal,2,,20Dec2010,1408,mixed,500,572,200,6,19,2.70790939102,0,L,4,a,1,742,9,2,582,3334,5522,6294,0,L among T,803
vs12,benlakhal,2,,20Dec2010,1408,mixed,500,480,200,6,20,1.01170956054,1,X,8,z,1,529,9,3,548,1520,850,2407,0,X among T,804
vs12,benlakhal,2,,20Dec2010,1408,mixed,500,693,200,6,21,3.81041995118,1,X,4,z,1,542,9,1,717,1607,677,2593,0,X among T,805
vs12,benlakhal,2,,20Dec2010,1408,mixed,500,630,200,6,22,5.00802834713,1,L,12,z,1,585,9,2,535,1721,950,2531,0,L among T,806
vs12,benlakhal,2,,20Dec2010,1408,mixed,500,512,200,6,23,1.9977959116,1,L,8,z,1,499,9,2,685,1621,935,2637,0,L among T,807
vs12,benlakhal,2,,20Dec2010,1408,mixed,500,456,200,6,24,2.18210390178,0,X,12,z,0,571,9,4,687,2420,1493,5925,0,X among T,808
vs12,benlakhal,2,,20Dec2010,1408,mixed,500,626,200,6,25,2.80215708044,1,L,12,z,1,1616,9,3,500,1489,2848,3505,0,L among T,809
vs12,benlakhal,2,,20Dec2010,1408,mixed,500,631,200,6,26,0.364805477088,0,X,2,a,1,757,9,1,608,1563,934,2377,0,X among T,810
