manip subject session order mm tm trialType iti fixDur stimDur nBlock nTrial alpha present targType nItems resp acc rt confidence estNItems estTime confidenceRT estNItemsRT estTimeRT
vs12 benlakhal 1 0 13Dec2010 1334 pTSer 500 567 200 1 1 4.86365302378 False L 2 a 1 2457 None None None None None None
vs12 benlakhal 1 0 13Dec2010 1334 pTSer 500 436 200 1 2 0.808050005676 True L 2 z 1 2015 None None None None None None
vs12 benlakhal 1 0 13Dec2010 1334 pTSer 500 471 200 1 3 2.38860157385 False L 8 a 1 2298 None None None None None None
vs12 benlakhal 1 0 13Dec2010 1334 pTSer 500 433 200 1 4 3.87825569093 False L 4 z 0 2016 None None None None None None
vs12 benlakhal 1 0 13Dec2010 1334 pTSer 500 514 200 1 5 5.21536026626 True L 8 a 0 2016 None None None None None None
vs12 benlakhal 1 0 13Dec2010 1334 pTSer 500 452 200 1 6 5.09714125324 True L 12 z 1 2014 None None None None None None
vs12 benlakhal 1 0 13Dec2010 1334 pTSer 500 435 200 1 7 3.55623355969 True L 4 a 0 2016 None None None None None None
vs12 benlakhal 1 0 13Dec2010 1334 pTSer 500 683 200 1 8 6.19351872581 False L 2 a 1 2025 None None None None None None
vs12 benlakhal 1 0 13Dec2010 1335 pTSer 500 564 200 1 9 0.948491963261 False L 4 z 0 2016 None None None None None None
vs12 benlakhal 1 0 13Dec2010 1335 pTSer 500 455 200 1 10 5.93943312887 False L 12 z 0 16444 None None None None None None
vs12 benlakhal 1 0 13Dec2010 1335 pTSer 500 455 200 1 11 2.06634235005 False L 12 z 0 15102 None None None None None None
vs12 benlakhal 1 0 13Dec2010 1335 pTSer 500 619 200 1 12 5.21896921197 True L 12 a 0 2041 None None None None None None
vs12 benlakhal 1 0 13Dec2010 1335 pTSer 500 698 200 1 13 0.520599399383 False L 8 a 1 2016 None None None None None None
vs12 benlakhal 1 0 13Dec2010 1335 pTSer 500 599 200 1 14 3.18294531536 True L 2 z 1 2016 None None None None None None
vs12 benlakhal 1 0 13Dec2010 1335 pTSer 500 623 200 1 15 2.56973337639 True L 4 z 1 2016 None None None None None None
vs12 benlakhal 1 0 13Dec2010 1335 pTSer 500 488 200 1 16 5.47388636223 True L 8 z 1 2015 None None None None None None
vs12 benlakhal 1 0 13Dec2010 1335 pTSer 500 418 200 1 1 0.499428886997 False L 2 a 1 2015 None None None None None None
vs12 benlakhal 1 0 13Dec2010 1335 pTSer 500 493 200 1 2 3.23829115934 True L 2 z 1 2016 None None None None None None
vs12 benlakhal 1 0 13Dec2010 1336 pTSer 500 553 200 1 3 0.144209704521 False L 8 a 1 2015 None None None None None None
vs12 benlakhal 1 0 13Dec2010 1336 pTSer 500 573 200 1 4 0.214613215147 False L 4 a 1 2016 None None None None None None
vs12 benlakhal 1 0 13Dec2010 1336 pTSer 500 563 200 1 5 1.45747573534 True L 8 z 1 2012 None None None None None None
vs12 benlakhal 1 0 13Dec2010 1336 pTSer 500 442 200 1 6 0.781927047021 True L 12 z 1 2016 None None None None None None
vs12 benlakhal 1 0 13Dec2010 1336 pTSer 500 434 200 1 7 3.04164402334 True L 4 z 1 2016 None None None None None None
vs12 benlakhal 1 0 13Dec2010 1336 pTSer 500 511 200 1 8 5.64067595175 False L 2 a 1 2016 None None None None None None
vs12 benlakhal 1 0 13Dec2010 1336 pTSer 500 472 200 1 9 6.06260406307 False L 4 a 1 2015 None None None None None None
vs12 benlakhal 1 0 13Dec2010 1336 pTSer 500 685 200 1 10 2.35866647467 False L 12 z 0 2013 None None None None None None
vs12 benlakhal 1 0 13Dec2010 1336 pTSer 500 457 200 1 11 6.13738618617 False L 12 a 1 2016 None None None None None None
vs12 benlakhal 1 0 13Dec2010 1336 pTSer 500 676 200 1 12 0.801278173465 True L 12 z 1 2015 None None None None None None
vs12 benlakhal 1 0 13Dec2010 1336 pTSer 500 480 200 1 13 0.858602569295 False L 8 a 1 2016 None None None None None None
vs12 benlakhal 1 0 13Dec2010 1336 pTSer 500 518 200 1 14 1.7531986071 True L 2 z 1 2015 None None None None None None
vs12 benlakhal 1 0 13Dec2010 1336 pTSer 500 426 200 1 15 3.91815632747 True L 4 z 1 2014 None None None None None None
vs12 benlakhal 1 0 13Dec2010 1336 pTSer 500 684 200 1 16 4.4872324851 True L 8 z 1 2015 None None None None None None
vs12 benlakhal 1 0 13Dec2010 1341 tSerial 500 512 200 1 1 5.55568778934 True L 12 a 0 3146 0 35.352 711 7584 13762 18109
vs12 benlakhal 1 0 13Dec2010 1342 tSerial 500 605 200 1 2 3.05267747619 False L 2 z 0 12385 1 24.37 623 13226 14313 15571
vs12 benlakhal 1 0 13Dec2010 1342 tSerial 500 654 200 1 3 2.34988452792 False L 4 a 1 557 0 1.428 866 7052 12302 19996
vs12 benlakhal 1 0 13Dec2010 1343 tSerial 500 446 200 1 4 3.63386938644 False L 12 a 1 469 3 3.228 902 8213 5486 9843
vs12 benlakhal 1 0 13Dec2010 1343 tSerial 500 483 200 1 5 4.49498503396 False L 8 a 1 213 0 0.104 870 6511 7999 8856
vs12 benlakhal 1 0 13Dec2010 1343 tSerial 500 470 200 1 6 3.87195419172 False L 8 a 1 379 4 1.432 686 3910 2552 5411
vs12 benlakhal 1 0 13Dec2010 1343 tSerial 500 468 200 1 7 3.43464773918 True L 8 a 0 726 1 4.208 542 3009 4138 5182
vs12 benlakhal 1 0 13Dec2010 1343 tSerial 500 647 200 1 8 6.16538116983 True L 2 a 0 442 9 0.484 387 12521 4526 14180
vs12 benlakhal 1 0 13Dec2010 1344 tSerial 500 541 200 1 9 5.30407199336 True L 2 z 1 499 9 0.598 358 4211 8685 9800
vs12 benlakhal 1 0 13Dec2010 1344 tSerial 500 591 200 1 10 5.32628098158 False L 12 z 0 413 1 2.556 461 7112 5926 8656
vs12 benlakhal 1 0 13Dec2010 1344 tSerial 500 494 200 1 11 0.799560513079 True L 4 z 1 399 3 0.796 350 9858 4940 13792
vs12 benlakhal 1 0 13Dec2010 1344 tSerial 500 547 200 1 12 3.75324362498 True L 12 z 1 384 2 2.208 425 6296 4053 7267
vs12 benlakhal 1 0 13Dec2010 1344 tSerial 500 544 200 1 13 3.40609279745 True L 4 z 1 399 1 0.796 362 3659 2379 6248
vs12 benlakhal 1 0 13Dec2010 1345 tSerial 500 485 200 1 14 2.09116630973 False L 4 z 0 342 6 0.568 391 2906 2079 10770
vs12 benlakhal 1 0 13Dec2010 1345 tSerial 500 514 200 1 15 2.10090616002 False L 2 z 0 499 10 0.598 336 4167 2651 5766
vs12 benlakhal 1 0 13Dec2010 1345 tSerial 500 457 200 1 16 4.06623988281 True L 8 z 1 385 2 3 462 5707 4367 1894
vs12 benlakhal 1 0 13Dec2010 1347 serial 500 532 200 1 1 5.23681737139 True L 4 a 0 586 0 2 355 7283 5498 8356
vs12 benlakhal 1 0 13Dec2010 1347 serial 500 695 200 1 2 2.77723560233 True L 8 z 1 414 5 3 398 5837 17151 18480
vs12 benlakhal 1 0 13Dec2010 1348 serial 500 636 200 1 3 1.8341953758 False L 4 z 0 370 4 2 457 2351 3595 5168
vs12 benlakhal 1 0 13Dec2010 1348 serial 500 624 200 1 4 2.7585234677 True L 4 z 1 356 1 1 401 3121 1948 4808
vs12 benlakhal 1 0 13Dec2010 1348 serial 500 562 200 1 5 4.70023507993 False L 12 z 0 428 1 2 348 3533 2347 4506
vs12 benlakhal 1 0 13Dec2010 1348 serial 500 616 200 1 6 3.30682679267 True L 8 z 1 471 8 0 328 4824 3610 8085
vs12 benlakhal 1 0 13Dec2010 1348 serial 500 626 200 1 7 6.04289246395 True L 2 z 1 500 9 1 326 6077 4389 7421
vs12 benlakhal 1 0 13Dec2010 1348 serial 500 424 200 1 8 5.91267989858 True L 12 z 1 442 9 2 355 5510 3651 6997
vs12 benlakhal 1 0 13Dec2010 1348 serial 500 483 200 1 9 4.35011486176 True L 12 z 1 399 8 1 317 2876 1203 3920
vs12 benlakhal 1 0 13Dec2010 1348 serial 500 624 200 1 10 2.81972428576 False L 4 z 0 442 2 1 367 3348 2193 4550
vs12 benlakhal 1 0 13Dec2010 1349 serial 500 678 200 1 11 5.99592761596 True L 12 z 1 484 9 1 361 4449 2996 8597
vs12 benlakhal 1 0 13Dec2010 1349 serial 500 692 200 1 12 3.13208552634 True L 2 z 1 428 9 2 405 5367 2107 6568
vs12 benlakhal 1 0 13Dec2010 1349 serial 500 532 200 1 13 5.36999476085 False L 12 z 0 371 5 2 341 12230 3821 14934
vs12 benlakhal 1 0 13Dec2010 1349 serial 500 430 200 1 14 5.91973887199 True L 4 a 0 399 9 1 377 3749 2777 4892
vs12 benlakhal 1 0 13Dec2010 1349 serial 500 472 200 1 15 4.4147575576 False L 8 z 0 400 1 3 372 3877 2692 5136
vs12 benlakhal 1 0 13Dec2010 1349 serial 500 664 200 1 16 3.5618530458 False L 8 z 0 413 8 2 346 5737 2651 7239
vs12 benlakhal 1 0 13Dec2010 1350 serial 500 465 200 1 17 4.21952705691 False L 4 z 0 427 9 2 392 7353 9226 10397
vs12 benlakhal 1 0 13Dec2010 1350 serial 500 677 200 1 18 5.91124063944 False L 4 z 0 757 9 1 370 2238 3009 4368
vs12 benlakhal 1 0 13Dec2010 1350 serial 500 523 200 1 19 4.15353510643 False L 12 z 0 653 2 2 415 3910 2866 4897
vs12 benlakhal 1 0 13Dec2010 1350 serial 500 619 200 1 20 2.58609620657 True L 4 z 1 514 9 1 393 4952 3079 7255
vs12 benlakhal 1 0 13Dec2010 1350 serial 500 498 200 1 21 4.76227426407 False L 12 z 0 426 9 4 356 6056 1794 7214
vs12 benlakhal 1 0 13Dec2010 1350 serial 500 546 200 1 22 0.189360803718 False L 8 z 0 657 9 2 390 4954 2609 5941
vs12 benlakhal 1 0 13Dec2010 1350 serial 500 624 200 1 23 3.99763076111 True L 4 z 1 384 8 2 416 2536 1363 5368
vs12 benlakhal 1 0 13Dec2010 1350 serial 500 568 200 1 24 4.96021372233 False L 2 z 0 522 9 2 317 2951 1950 4081
vs12 benlakhal 1 0 13Dec2010 1351 serial 500 629 200 1 25 5.18793501376 True L 8 z 1 486 8 3 418 3120 1336 4378
vs12 benlakhal 1 0 13Dec2010 1351 serial 500 661 200 1 26 2.70502705656 True L 2 z 1 513 9 1 357 3008 1736 4165
vs12 benlakhal 1 0 13Dec2010 1351 serial 500 496 200 1 27 3.21514456694 True L 12 z 1 357 9 4 385 9227 4355 6825
vs12 benlakhal 1 0 13Dec2010 1351 serial 500 599 200 1 28 5.1691338611 False L 8 z 0 456 9 3 387 2836 1507 4250
vs12 benlakhal 1 0 13Dec2010 1351 serial 500 401 200 1 29 0.968129033952 False L 2 z 0 499 6 1 317 4196 3152 17824
vs12 benlakhal 1 0 13Dec2010 1351 serial 500 585 200 1 30 1.29336114531 True L 8 z 1 357 9 2 423 2730 1816 3860
vs12 benlakhal 1 0 13Dec2010 1351 serial 500 405 200 1 31 3.15504378392 False L 12 z 0 499 8 4 348 2536 1478 4092
vs12 benlakhal 1 0 13Dec2010 1352 serial 500 457 200 1 32 3.28340371717 True L 12 z 1 414 9 5 336 5900 7784 8840
vs12 benlakhal 1 0 13Dec2010 1352 serial 500 642 200 1 33 3.69829660975 True L 2 z 1 428 9 2 282 2779 1964 3678
vs12 benlakhal 1 0 13Dec2010 1352 serial 500 556 200 1 34 4.95456687555 False L 2 z 0 527 4 2 356 3252 2352 4553
vs12 benlakhal 1 0 13Dec2010 1352 serial 500 597 200 1 35 3.79668300043 False L 2 z 0 483 1 1 293 14424 2894 15634
vs12 benlakhal 1 0 13Dec2010 1352 serial 500 425 200 1 36 0.0875537068033 True L 2 a 0 400 4 2 341 4482 1864 5811
vs12 benlakhal 1 0 13Dec2010 1352 serial 500 630 200 1 37 5.9718759676 False L 2 z 0 399 7 1 326 8885 13562 15033
vs12 benlakhal 1 0 13Dec2010 1353 serial 500 613 200 1 38 0.926892548695 False L 4 a 1 442 0 1 291 15794 12620 16881
vs12 benlakhal 1 0 13Dec2010 1353 serial 500 572 200 1 39 0.842314015299 False L 8 z 0 399 1 4 336 3705 2709 4420
vs12 benlakhal 1 0 13Dec2010 1353 serial 500 602 200 1 40 0.0581979570884 True L 8 z 1 413 9 2 367 5897 2452 6926
vs12 benlakhal 1 0 13Dec2010 1354 serial 500 541 200 2 1 4.51134361542 True L 8 a 0 442 0 2 333 4135 3134 5351
vs12 benlakhal 1 0 13Dec2010 1354 serial 500 677 200 2 2 3.62891126336 False L 4 z 0 428 1 2 360 5606 4633 6663
vs12 benlakhal 1 0 13Dec2010 1354 serial 500 561 200 2 3 1.86136500289 False L 2 z 0 484 8 1 333 6926 6398 8242
vs12 benlakhal 1 0 13Dec2010 1354 serial 500 659 200 2 4 0.795441265671 False L 8 z 0 456 4 3 321 3637 2508 5368
vs12 benlakhal 1 0 13Dec2010 1355 serial 500 671 200 2 5 1.53576518936 False L 4 z 0 529 2 2 332 6557 5599 7897
vs12 benlakhal 1 0 13Dec2010 1355 serial 500 649 200 2 6 5.02149032943 True L 4 a 0 456 1 2 326 12432 6367 14460
vs12 benlakhal 1 0 13Dec2010 1355 serial 500 632 200 2 7 1.53043366786 True L 2 z 1 428 9 1 363 3224 2051 17409
vs12 benlakhal 1 0 13Dec2010 1355 serial 500 440 200 2 8 1.84336056695 True L 2 z 1 399 9 1 348 2506 1679 4222
vs12 benlakhal 1 0 13Dec2010 1355 serial 500 537 200 2 9 5.14698036475 False L 2 z 0 427 9 2 342 2722 2036 5981
vs12 benlakhal 1 0 13Dec2010 1355 serial 500 501 200 2 10 0.245860528616 True L 4 a 0 427 9 3 402 2994 2193 5379
vs12 benlakhal 1 0 13Dec2010 1356 serial 500 600 200 2 11 5.22177750768 False L 12 z 0 484 8 2 365 3980 2795 5049
vs12 benlakhal 1 0 13Dec2010 1356 serial 500 547 200 2 12 3.59376364976 True L 4 z 1 456 9 2 393 3638 2352 7910
vs12 benlakhal 1 0 13Dec2010 1356 serial 500 474 200 2 13 3.21235336718 False L 4 z 0 456 9 2 396 5110 4211 6153
vs12 benlakhal 1 0 13Dec2010 1356 serial 500 562 200 2 14 2.04098386828 True L 2 z 1 499 9 2 377 3194 2565 5977
vs12 benlakhal 1 0 13Dec2010 1356 serial 500 587 200 2 15 4.55575817093 True L 8 z 1 413 9 3 412 2794 1937 3853
vs12 benlakhal 1 0 13Dec2010 1356 serial 500 477 200 2 16 2.50720784665 False L 12 a 1 454 9 3 398 3137 2180 4066
vs12 benlakhal 1 0 13Dec2010 1356 serial 500 437 200 2 17 3.66959769996 True L 4 z 1 428 9 3 383 2728 2013 3714
vs12 benlakhal 1 0 13Dec2010 1356 serial 500 506 200 2 18 5.7961246801 False L 12 z 0 384 9 3 333 2350 1336 3480
vs12 benlakhal 1 0 13Dec2010 1356 serial 500 609 200 2 19 5.17424681075 False L 2 z 0 496 9 1 393 2764 1821 4037
vs12 benlakhal 1 0 13Dec2010 1357 serial 500 611 200 2 20 4.64822115907 True L 12 z 1 413 7 3 376 3146 1816 5506
vs12 benlakhal 1 0 13Dec2010 1357 serial 500 589 200 2 21 0.428302436389 False L 4 z 0 399 8 3 363 4078 2634 5537
vs12 benlakhal 1 0 13Dec2010 1357 serial 500 694 200 2 22 5.73736764687 False L 4 z 0 485 4 1 322 3593 5467 7326
vs12 benlakhal 1 0 13Dec2010 1357 serial 500 403 200 2 23 5.18039534762 False L 8 z 0 499 8 3 386 5839 4595 7426
vs12 benlakhal 1 0 13Dec2010 1357 serial 500 621 200 2 24 3.69114194585 True L 8 a 0 356 1 3 357 4706 2561 7051
vs12 benlakhal 1 0 13Dec2010 1357 serial 500 653 200 2 25 1.5586558458 False L 2 z 0 428 1 2 312 11556 2464 8697
vs12 benlakhal 1 0 13Dec2010 1357 serial 500 488 200 2 26 3.93563749769 False L 8 z 0 443 8 3 356 5525 3094 9230
vs12 benlakhal 1 0 13Dec2010 1358 serial 500 662 200 2 27 5.83841349746 False L 2 a 1 540 9 2 355 3050 1921 4037
vs12 benlakhal 1 0 13Dec2010 1358 serial 500 465 200 2 28 4.85499260252 True L 12 a 0 457 9 3 318 6023 1832 9112
vs12 benlakhal 1 0 13Dec2010 1358 serial 500 595 200 2 29 2.64573027329 True L 2 a 0 742 4 1 286 11600 9197 12601
vs12 benlakhal 1 0 13Dec2010 1358 serial 500 664 200 2 30 3.76910208979 False L 12 z 0 496 7 2 336 3451 1707 9013
vs12 benlakhal 1 0 13Dec2010 1359 serial 500 577 200 2 31 2.75704622114 True L 2 z 1 771 1 1 338 18824 4881 19754
vs12 benlakhal 1 0 13Dec2010 1359 serial 500 426 200 2 32 1.77038894711 True L 12 z 1 399 1 3 327 6027 1436 7426
vs12 benlakhal 1 0 13Dec2010 1359 serial 500 578 200 2 33 2.65555869068 True L 8 z 1 370 7 1 317 3381 1336 4481
vs12 benlakhal 1 0 13Dec2010 1359 serial 500 525 200 2 34 0.558224660058 False L 8 z 0 426 8 2 406 3051 1865 4581
vs12 benlakhal 1 0 13Dec2010 1359 serial 500 550 200 2 35 4.29319497325 True L 12 z 1 385 8 0 333 3818 3005 5206
vs12 benlakhal 1 0 13Dec2010 1359 serial 500 495 200 2 36 1.05501573838 False L 8 z 0 513 9 2 361 5266 1979 9172
vs12 benlakhal 1 0 13Dec2010 1359 serial 500 690 200 2 37 5.1739146702 False L 12 z 0 540 8 1 342 1922 1050 2980
vs12 benlakhal 1 0 13Dec2010 1359 serial 500 507 200 2 38 3.25491871537 True L 8 z 1 399 8 1 345 2350 1578 3389
vs12 benlakhal 1 0 13Dec2010 1359 serial 500 599 200 2 39 2.07643413246 True L 12 z 1 571 5 3 308 2923 2052 4067
vs12 benlakhal 1 0 13Dec2010 1400 serial 500 533 200 2 40 1.41374952648 True L 4 z 1 370 8 1 435 2478 1663 3965
vs12 benlakhal 1 0 13Dec2010 1400 serial 500 469 200 3 1 2.26764104107 False L 2 a 1 457 9 1 315 6082 4738 7240
vs12 benlakhal 1 0 13Dec2010 1401 serial 500 492 200 3 2 3.01254303427 True L 2 a 0 427 2 1 325 3033 1563 4678
vs12 benlakhal 1 0 13Dec2010 1401 serial 500 446 200 3 3 2.2443125574 False L 12 a 1 341 9 1 381 2751 1966 3565
vs12 benlakhal 1 0 13Dec2010 1401 serial 500 506 200 3 4 2.32832927575 False L 12 a 1 542 9 1 348 6026 5184 6999
vs12 benlakhal 1 0 13Dec2010 1401 serial 500 577 200 3 5 6.23501572321 True L 2 z 1 427 10 1 331 2379 1678 5325
vs12 benlakhal 1 0 13Dec2010 1401 serial 500 689 200 3 6 0.933848902598 True L 12 z 1 527 9 2 332 8328 6987 15458
vs12 benlakhal 1 0 13Dec2010 1401 serial 500 658 200 3 7 1.32436225296 False L 8 z 0 443 8 2 376 3366 1808 6983
vs12 benlakhal 1 0 13Dec2010 1401 serial 500 657 200 3 8 5.98906987705 False L 4 z 0 342 6 2 338 2550 1264 6882
vs12 benlakhal 1 0 13Dec2010 1402 serial 500 531 200 3 9 1.65962092058 False L 8 z 0 342 8 1 397 2079 1021 3237
vs12 benlakhal 1 0 13Dec2010 1402 serial 500 532 200 3 10 3.28332112026 False L 2 z 0 425 9 1 308 16393 15339 18382
vs12 benlakhal 1 0 13Dec2010 1402 serial 500 557 200 3 11 0.470556529026 True L 8 z 1 671 9 5 418 1593 4361 10211
vs12 benlakhal 1 0 13Dec2010 1402 serial 500 575 200 3 12 1.02471866989 False L 12 z 0 1129 4 1 351 7470 8542 9957
vs12 benlakhal 1 0 13Dec2010 1403 serial 500 584 200 3 13 2.06575300255 True L 8 z 1 355 1 2 376 13429 1565 9915
vs12 benlakhal 1 0 13Dec2010 1403 serial 500 604 200 3 14 2.60298012044 True L 8 z 1 499 9 2 355 2880 1794 5794
vs12 benlakhal 1 0 13Dec2010 1403 serial 500 532 200 3 15 2.93701985059 True L 12 z 1 413 8 3 375 2579 1550 11060
vs12 benlakhal 1 0 13Dec2010 1403 serial 500 447 200 3 16 1.23092642118 True L 2 z 1 413 9 2 368 2151 1365 3080
vs12 benlakhal 1 0 13Dec2010 1403 serial 500 416 200 3 17 3.92076702481 True L 12 z 1 399 9 3 385 2136 1007 5049
vs12 benlakhal 1 0 13Dec2010 1403 serial 500 410 200 3 18 4.63959042237 False L 8 z 0 700 8 2 345 2393 1221 7424
vs12 benlakhal 1 0 13Dec2010 1403 serial 500 658 200 3 19 5.39451579447 False L 2 z 0 4557 9 0 308 2565 5783 7082
vs12 benlakhal 1 0 13Dec2010 1404 serial 500 501 200 3 20 2.94093248441 True L 4 z 1 342 9 1 408 4797 2952 5951
vs12 benlakhal 1 0 13Dec2010 1404 serial 500 614 200 3 21 5.77971772482 True L 8 z 1 513 9 3 333 2036 1149 3007
vs12 benlakhal 1 0 13Dec2010 1404 serial 500 597 200 3 22 5.4992974031 False L 4 z 0 413 8 1 381 2420 1662 3692
vs12 benlakhal 1 0 13Dec2010 1404 serial 500 491 200 3 23 0.413402399253 False L 4 z 0 442 2 1 375 21236 10773 20209
vs12 benlakhal 1 0 13Dec2010 1404 serial 500 552 200 3 24 5.13016275738 False L 2 z 0 428 9 2 393 2207 1436 5923
vs12 benlakhal 1 0 13Dec2010 1404 serial 500 692 200 3 25 1.95052663584 False L 4 z 0 370 9 2 396 2165 1207 3437
vs12 benlakhal 1 0 13Dec2010 1405 serial 500 478 200 3 26 1.47520620241 True L 4 z 1 480 0 1 376 15492 5170 10303
vs12 benlakhal 1 0 13Dec2010 1405 serial 500 561 200 3 27 5.21781691504 True L 12 a 0 385 9 3 426 2036 1336 2880
vs12 benlakhal 1 0 13Dec2010 1405 serial 500 462 200 3 28 4.73479568985 False L 8 z 0 213 8 1 420 3905 2305 3262
vs12 benlakhal 1 0 13Dec2010 1405 serial 500 566 200 3 29 2.99533652607 False L 2 z 0 427 6 1 351 9057 7055 10273
vs12 benlakhal 1 0 13Dec2010 1405 serial 500 660 200 3 30 0.687619877352 False L 4 z 0 514 9 2 386 28958 26012 31504
vs12 benlakhal 1 0 13Dec2010 1406 serial 500 652 200 3 31 2.92608566109 True L 4 z 1 299 8 1 332 2808 1793 3866
vs12 benlakhal 1 0 13Dec2010 1406 serial 500 496 200 3 32 4.62088822002 True L 4 z 1 399 9 1 393 1789 920 2675
vs12 benlakhal 1 0 13Dec2010 1406 serial 500 496 200 3 33 0.980103012543 False L 8 z 0 428 9 1 316 2580 1351 3552
vs12 benlakhal 1 0 13Dec2010 1406 serial 500 700 200 3 34 5.51751738138 True L 4 z 1 325 9 0 312 2981 2180 3938
vs12 benlakhal 1 0 13Dec2010 1406 serial 500 669 200 3 35 0.168756594042 True L 2 z 1 342 9 0 308 3836 2536 5967
vs12 benlakhal 1 0 13Dec2010 1406 serial 500 537 200 3 36 1.17169338566 True L 8 z 1 427 9 1 308 1778 7797 8612
vs12 benlakhal 1 0 13Dec2010 1406 serial 500 545 200 3 37 5.21065017364 True L 12 z 1 385 9 2 313 4147 2147 3033
vs12 benlakhal 1 0 13Dec2010 1406 serial 500 673 200 3 38 3.55537102799 False L 12 z 0 771 9 1 342 9636 7670 8484
vs12 benlakhal 1 0 13Dec2010 1407 serial 500 422 200 3 39 4.6105233604 False L 12 z 0 528 9 2 365 11247 10189 12519
vs12 benlakhal 1 0 13Dec2010 1407 serial 500 476 200 3 40 5.09168881946 True L 2 z 1 456 9 1 367 1545 817 2331
vs12 benlakhal 1 0 13Dec2010 1408 serial 500 672 200 4 1 3.35745495347 False L 12 z 0 370 9 2 340 2562 1347 3819
vs12 benlakhal 1 0 13Dec2010 1408 serial 500 514 200 4 2 1.49304732071 False L 4 z 0 485 1 0 295 2336 1393 3263
vs12 benlakhal 1 0 13Dec2010 1408 serial 500 536 200 4 3 4.39096070928 True L 4 z 1 370 0 1 307 3250 1851 2537
vs12 benlakhal 1 0 13Dec2010 1408 serial 500 453 200 4 4 2.86521212852 True L 12 z 1 484 2 0 262 3676 2034 2748
vs12 benlakhal 1 0 13Dec2010 1408 serial 500 697 200 4 5 5.59688676808 True L 2 z 1 399 10 0 323 3409 1551 4346
vs12 benlakhal 1 0 13Dec2010 1408 serial 500 533 200 4 6 1.66025548157 False L 4 z 0 385 9 1 341 1922 1264 3166
vs12 benlakhal 1 0 13Dec2010 1408 serial 500 648 200 4 7 5.55543572625 False L 2 a 1 370 8 0 316 4937 4179 5651
vs12 benlakhal 1 0 13Dec2010 1409 serial 500 578 200 4 8 5.81107423357 True L 8 a 0 327 9 1 372 2527 3414 5158
vs12 benlakhal 1 0 13Dec2010 1409 serial 500 602 200 4 9 5.42982559843 True L 4 z 1 456 8 0 332 1978 1292 5151
vs12 benlakhal 1 0 13Dec2010 1409 serial 500 487 200 4 10 1.60623278983 False L 8 z 0 342 9 0 405 1979 907 3395
vs12 benlakhal 1 0 13Dec2010 1409 serial 500 461 200 4 11 3.82864855616 False L 8 z 0 399 8 1 323 1692 920 2978
vs12 benlakhal 1 0 13Dec2010 1409 serial 500 527 200 4 12 4.33465552374 False L 2 z 0 1715 9 1 367 1931 3046 4835
vs12 benlakhal 1 0 13Dec2010 1409 serial 500 688 200 4 13 1.04471156527 True L 8 z 1 3401 9 1 352 4223 3379 2438
vs12 benlakhal 1 0 13Dec2010 1409 serial 500 401 200 4 14 4.25005322448 True L 12 z 1 643 4 1 325 2063 1450 2892
vs12 benlakhal 1 0 13Dec2010 1409 serial 500 569 200 4 15 6.175577278 True L 2 z 1 413 10 1 335 2336 1148 4395
vs12 benlakhal 1 0 13Dec2010 1409 serial 500 433 200 4 16 6.28068493356 True L 4 z 1 298 9 1 343 2264 1349 3107
vs12 benlakhal 1 0 13Dec2010 1409 serial 500 612 200 4 17 2.27469822015 True L 12 z 1 342 9 1 342 2179 1422 3779
vs12 benlakhal 1 0 13Dec2010 1409 serial 500 523 200 4 18 0.397901761415 False L 12 z 0 341 8 1 366 1635 906 2336
vs12 benlakhal 1 0 13Dec2010 1410 serial 500 554 200 4 19 6.00058657706 True L 2 z 1 485 10 1 280 2877 1504 4350
vs12 benlakhal 1 0 13Dec2010 1410 serial 500 438 200 4 20 4.27193788853 True L 12 z 1 370 8 2 372 2779 1764 4347
vs12 benlakhal 1 0 13Dec2010 1410 serial 500 632 200 4 21 4.34478421637 False L 4 z 0 299 9 1 410 1850 1063 2822
vs12 benlakhal 1 0 13Dec2010 1410 serial 500 564 200 4 22 1.85599488757 False L 2 z 0 15601 9 0 356 2577 1436 3679
vs12 benlakhal 1 0 13Dec2010 1410 serial 500 674 200 4 23 4.09862444631 False L 8 z 0 356 9 1 375 1491 834 2492
vs12 benlakhal 1 0 13Dec2010 1410 serial 500 493 200 4 24 3.7069375466 False L 2 z 0 428 0 0 322 2388 1630 3174
vs12 benlakhal 1 0 13Dec2010 1410 serial 500 689 200 4 25 1.68658960838 False L 12 z 0 427 8 1 258 4475 2280 3090
vs12 benlakhal 1 0 13Dec2010 1410 serial 500 480 200 4 26 5.86742830057 False L 12 a 1 399 2 0 328 3537 1464 5579
vs12 benlakhal 1 0 13Dec2010 1411 serial 500 544 200 4 27 5.79854174794 True L 4 z 1 427 9 0 332 2393 1735 4066
vs12 benlakhal 1 0 13Dec2010 1411 serial 500 572 200 4 28 5.74049638808 False L 2 z 0 442 9 0 253 3018 1474 4592
vs12 benlakhal 1 0 13Dec2010 1411 serial 500 526 200 4 29 4.0471929794 True L 8 z 1 456 8 1 277 3778 3092 4722
vs12 benlakhal 1 0 13Dec2010 1411 serial 500 592 200 4 30 2.12796403539 False L 12 a 1 414 9 1 320 6081 4067 5196
vs12 benlakhal 1 0 13Dec2010 1411 serial 500 404 200 4 31 3.33903290319 True L 8 z 1 528 8 1 345 2207 1593 2979
vs12 benlakhal 1 0 13Dec2010 1411 serial 500 646 200 4 32 0.615620192865 False L 8 z 0 456 9 1 342 1649 934 2606
vs12 benlakhal 1 0 13Dec2010 1411 serial 500 634 200 4 33 6.25820545969 False L 4 z 0 385 9 1 293 2051 907 4137
vs12 benlakhal 1 0 13Dec2010 1411 serial 500 543 200 4 34 5.79051891012 False L 8 z 0 484 8 1 350 17292 14877 16079
vs12 benlakhal 1 0 13Dec2010 1411 serial 500 667 200 4 35 5.17590837793 True L 4 z 1 356 9 0 358 3048 1491 2077
vs12 benlakhal 1 0 13Dec2010 1412 serial 500 409 200 4 36 5.07002767183 False L 4 z 0 414 9 0 301 2734 734 1935
vs12 benlakhal 1 0 13Dec2010 1412 serial 500 596 200 4 37 4.01725891198 True L 8 z 1 328 8 0 315 2288 989 1646
vs12 benlakhal 1 0 13Dec2010 1412 serial 500 473 200 4 38 6.0048455221 True L 2 a 0 528 9 1 332 1778 1121 2579
vs12 benlakhal 1 0 13Dec2010 1412 serial 500 658 200 4 39 5.6808008826 True L 12 z 1 370 9 1 345 3505 2662 4949
vs12 benlakhal 1 0 13Dec2010 1412 serial 500 569 200 4 40 2.68151631327 True L 2 z 1 385 9 0 380 4264 3349 5637
vs12 benlakhal 1 0 13Dec2010 1413 serial 500 685 200 5 1 5.35597435423 True L 4 z 1 370 9 1 338 2679 1707 3580
vs12 benlakhal 1 0 13Dec2010 1413 serial 500 517 200 5 2 1.92922546448 True L 2 z 1 399 10 2 328 2890 2146 4020
vs12 benlakhal 1 0 13Dec2010 1413 serial 500 629 200 5 3 4.74088791443 True L 12 z 1 328 8 2 362 2079 1164 2864
vs12 benlakhal 1 0 13Dec2010 1413 serial 500 669 200 5 4 4.0784142888 False L 4 z 0 399 9 1 373 2680 1407 4352
vs12 benlakhal 1 0 13Dec2010 1413 serial 500 625 200 5 5 6.00392063163 True L 4 z 1 385 9 1 362 1901 1049 2787
vs12 benlakhal 1 0 13Dec2010 1414 serial 500 583 200 5 6 2.24863344434 True L 12 z 1 385 9 0 307 1992 1235 3021
vs12 benlakhal 1 0 13Dec2010 1414 serial 500 573 200 5 7 3.65363955373 True L 12 z 1 385 9 1 350 1787 1074 2732
vs12 benlakhal 1 0 13Dec2010 1414 serial 500 538 200 5 8 3.67669093983 True L 8 z 1 385 9 1 322 2136 1322 3137
vs12 benlakhal 1 0 13Dec2010 1414 serial 500 459 200 5 9 2.80826570446 False L 4 z 0 384 10 0 312 2207 1278 3308
vs12 benlakhal 1 0 13Dec2010 1414 serial 500 400 200 5 10 5.04647646689 True L 2 z 1 500 9 1 356 1520 963 2619
vs12 benlakhal 1 0 13Dec2010 1414 serial 500 460 200 5 11 2.37028846311 True L 2 z 1 341 9 1 317 2049 1449 2964
vs12 benlakhal 1 0 13Dec2010 1414 serial 500 475 200 5 12 1.11300818571 False L 12 z 0 327 9 2 347 2346 1508 3461
vs12 benlakhal 1 0 13Dec2010 1414 serial 500 697 200 5 13 1.61151183418 True L 2 z 1 428 9 2 376 3538 1750 5295
vs12 benlakhal 1 0 13Dec2010 1414 serial 500 427 200 5 14 0.839618672452 True L 4 z 1 357 10 2 352 5355 4497 7942
vs12 benlakhal 1 0 13Dec2010 1414 serial 500 584 200 5 15 4.278960594 True L 4 z 1 357 9 1 356 2294 1336 3223
vs12 benlakhal 1 0 13Dec2010 1414 serial 500 550 200 5 16 4.00792266802 False L 8 z 0 399 9 1 393 1635 848 4495
vs12 benlakhal 1 0 13Dec2010 1415 serial 500 595 200 5 17 6.1627186921 False L 4 z 0 1999 9 1 300 1321 2107 2950
vs12 benlakhal 1 0 13Dec2010 1415 serial 500 614 200 5 18 5.65502402525 False L 12 z 0 341 9 1 315 1550 835 2923
vs12 benlakhal 1 0 13Dec2010 1415 serial 500 436 200 5 19 5.93858528626 False L 2 z 0 442 9 0 335 4440 3567 5755
vs12 benlakhal 1 0 13Dec2010 1415 serial 500 603 200 5 20 5.86893147274 True L 12 z 1 370 9 1 295 1449 792 2449
vs12 benlakhal 1 0 13Dec2010 1415 serial 500 519 200 5 21 1.15154481338 False L 2 z 0 428 9 1 291 2007 1292 2908
vs12 benlakhal 1 0 13Dec2010 1415 serial 500 501 200 5 22 3.19486951309 True L 8 z 1 457 9 1 367 1621 1035 2993
vs12 benlakhal 1 0 13Dec2010 1415 serial 500 434 200 5 23 5.3565221853 False L 12 a 1 570 9 1 346 1735 977 2503
vs12 benlakhal 1 0 13Dec2010 1415 serial 500 418 200 5 24 1.62319079738 True L 8 z 1 643 8 2 376 1492 777 11557
vs12 benlakhal 1 0 13Dec2010 1415 serial 500 688 200 5 25 5.41338474096 True L 12 z 1 585 9 1 407 2134 1520 3192
vs12 benlakhal 1 0 13Dec2010 1415 serial 500 669 200 5 26 1.30587343196 False L 2 z 0 442 9 1 363 3009 1464 4189
vs12 benlakhal 1 0 13Dec2010 1415 serial 500 532 200 5 27 4.07422758522 False L 8 z 0 385 8 1 351 1650 978 2535
vs12 benlakhal 1 0 13Dec2010 1416 serial 500 535 200 5 28 1.86703781763 True L 4 z 1 356 9 1 370 1589 891 2403
vs12 benlakhal 1 0 13Dec2010 1416 serial 500 457 200 5 29 1.76791959378 True L 8 z 1 398 9 1 405 2349 1607 3436
vs12 benlakhal 1 0 13Dec2010 1416 serial 500 480 200 5 30 1.15926583174 False L 8 z 0 385 9 2 421 1288 2245 3103
vs12 benlakhal 1 0 13Dec2010 1416 serial 500 609 200 5 31 3.34309081674 False L 8 z 0 413 9 1 325 1766 2551 3280
vs12 benlakhal 1 0 13Dec2010 1416 serial 500 588 200 5 32 4.59293358033 False L 2 a 1 484 9 1 388 2265 850 3209
vs12 benlakhal 1 0 13Dec2010 1416 serial 500 500 200 5 33 1.79645307196 False L 12 a 1 342 8 3 401 1436 792 2275
vs12 benlakhal 1 0 13Dec2010 1416 serial 500 586 200 5 34 3.47990564786 False L 2 z 0 628 9 0 452 892 1764 2694
vs12 benlakhal 1 0 13Dec2010 1416 serial 500 650 200 5 35 4.82847224963 False L 4 z 0 341 9 1 428 1106 2031 2846
vs12 benlakhal 1 0 13Dec2010 1416 serial 500 645 200 5 36 2.53854375182 False L 12 a 1 313 8 2 357 1450 736 2165
vs12 benlakhal 1 0 13Dec2010 1416 serial 500 628 200 5 37 4.78454866347 True L 8 z 1 471 9 3 482 1214 577 2558
vs12 benlakhal 1 0 13Dec2010 1416 serial 500 431 200 5 38 2.95444198446 True L 2 z 1 614 9 1 323 1621 3093 4166
vs12 benlakhal 1 0 13Dec2010 1416 serial 500 500 200 5 39 0.42323715264 False L 4 z 0 399 8 1 355 3438 2322 4667
vs12 benlakhal 1 0 13Dec2010 1416 serial 500 537 200 5 40 1.8782986684 False L 8 z 0 399 2 1 320 3258 2486 4187
vs12 benlakhal 1 0 13Dec2010 1418 pTPar 500 652 200 1 1 6.03410696798 False X 4 z 0 2016 None None None None None None
vs12 benlakhal 1 0 13Dec2010 1418 pTPar 500 418 200 1 2 3.66921621616 True X 8 z 1 2016 None None None None None None
vs12 benlakhal 1 0 13Dec2010 1419 pTPar 500 679 200 1 3 5.87778491547 True X 4 z 1 2014 None None None None None None
vs12 benlakhal 1 0 13Dec2010 1419 pTPar 500 615 200 1 4 0.426980229529 True X 4 z 1 2016 None None None None None None
vs12 benlakhal 1 0 13Dec2010 1419 pTPar 500 624 200 1 5 5.71762158267 False X 2 a 1 2016 None None None None None None
vs12 benlakhal 1 0 13Dec2010 1419 pTPar 500 614 200 1 6 5.43253203505 False X 8 a 1 2015 None None None None None None
vs12 benlakhal 1 0 13Dec2010 1419 pTPar 500 666 200 1 7 4.25495242462 True X 2 z 1 2015 None None None None None None
vs12 benlakhal 1 0 13Dec2010 1419 pTPar 500 421 200 1 8 0.519656752703 True X 12 z 1 2013 None None None None None None
vs12 benlakhal 1 0 13Dec2010 1419 pTPar 500 500 200 1 9 5.73576930334 True X 2 z 1 2016 None None None None None None
vs12 benlakhal 1 0 13Dec2010 1419 pTPar 500 700 200 1 10 6.10343733537 False X 4 a 1 2016 None None None None None None
vs12 benlakhal 1 0 13Dec2010 1419 pTPar 500 652 200 1 11 4.67772480615 True X 8 z 1 2016 None None None None None None
vs12 benlakhal 1 0 13Dec2010 1419 pTPar 500 480 200 1 12 1.9119785874 False X 12 a 1 2016 None None None None None None
vs12 benlakhal 1 0 13Dec2010 1419 pTPar 500 455 200 1 13 5.64385902932 False X 2 a 1 2025 None None None None None None
vs12 benlakhal 1 0 13Dec2010 1419 pTPar 500 495 200 1 14 1.20586710835 False X 12 a 1 2015 None None None None None None
vs12 benlakhal 1 0 13Dec2010 1419 pTPar 500 610 200 1 15 4.04260208259 True X 12 z 1 2016 None None None None None None
vs12 benlakhal 1 0 13Dec2010 1419 pTPar 500 505 200 1 16 1.71007154439 False X 8 a 1 2016 None None None None None None
vs12 benlakhal 1 0 13Dec2010 1420 tPar 500 400 200 1 1 3.72436078114 True X 8 a 0 740 0 4.32 336 13248 14563 15633
vs12 benlakhal 1 0 13Dec2010 1420 tPar 500 623 200 1 2 0.100468014991 False X 4 z 0 443 5 0.972 335 8800 7956 9844
vs12 benlakhal 1 0 13Dec2010 1420 tPar 500 504 200 1 3 2.27996153477 True X 2 a 0 385 5 0.37 347 3208 2463 3994
vs12 benlakhal 1 0 13Dec2010 1420 tPar 500 462 200 1 4 3.80631719279 False X 2 a 1 442 9 0.484 358 2372 1149 3231
vs12 benlakhal 1 0 13Dec2010 1420 tPar 500 441 200 1 5 0.0211757322434 True X 12 z 1 428 8 2.736 352 3022 2165 3966
vs12 benlakhal 1 0 13Dec2010 1420 tPar 500 595 200 1 6 5.85091897373 True X 4 z 1 342 9 0.568 367 2594 1665 3437
vs12 benlakhal 1 0 13Dec2010 1420 tPar 500 610 200 1 7 5.16897285111 True X 8 a 0 412 8 1.696 378 1764 1221 2564
vs12 benlakhal 1 0 13Dec2010 1420 tPar 500 640 200 1 8 4.92309951138 False X 8 z 0 441 9 1.928 272 1092 1693 2274
vs12 benlakhal 1 0 13Dec2010 1420 tPar 500 670 200 1 9 2.67412662709 False X 4 a 1 442 0 0.968 357 1336 2079 2593
vs12 benlakhal 1 0 13Dec2010 1421 tPar 500 499 200 1 10 4.73816889144 False X 8 z 0 427 0 1.816 362 1806 3364 4136
vs12 benlakhal 1 0 13Dec2010 1421 tPar 500 681 200 1 11 2.39430976522 True X 12 a 0 442 9 2.904 307 8112 6912 9080
vs12 benlakhal 1 0 13Dec2010 1421 tPar 500 572 200 1 12 1.34239122549 False X 12 a 1 529 9 3.948 372 1508 3280 4167
vs12 benlakhal 1 0 13Dec2010 1421 tPar 500 512 200 1 13 6.0181126353 False X 12 a 1 428 9 2.736 346 2710 3353 4067
vs12 benlakhal 1 0 13Dec2010 1421 tPar 500 438 200 1 14 5.29164433493 True X 2 z 1 437 9 0.474 391 1621 3008 3852
vs12 benlakhal 1 0 13Dec2010 1421 tPar 500 619 200 1 15 6.28079251418 True X 4 z 1 299 9 0.396 371 2931 1859 3832
vs12 benlakhal 1 0 13Dec2010 1421 tPar 500 685 200 1 16 1.00056647778 False X 2 a 1 442 9 0.484 380 1836 1178 2748
vs12 benlakhal 1 0 13Dec2010 1422 parallel 500 457 200 1 1 5.63223849594 False X 4 a 1 513 9 3 366 2403 1736 3290
vs12 benlakhal 1 0 13Dec2010 1422 parallel 500 643 200 1 2 0.557908755101 False X 4 a 1 486 9 3 360 1649 1020 2836
vs12 benlakhal 1 0 13Dec2010 1422 parallel 500 617 200 1 3 0.783687219796 False X 2 a 1 470 9 1 391 1973 1287 2745
vs12 benlakhal 1 0 13Dec2010 1422 parallel 500 421 200 1 4 2.52489990532 True X 12 a 0 400 1 2 320 2465 1165 3337
vs12 benlakhal 1 0 13Dec2010 1422 parallel 500 604 200 1 5 4.60835696108 True X 8 z 1 398 9 3 310 2278 1206 3980
vs12 benlakhal 1 0 13Dec2010 1422 parallel 500 412 200 1 6 2.60409645088 True X 2 z 1 414 9 1 355 1933 1120 2690
vs12 benlakhal 1 0 13Dec2010 1422 parallel 500 517 200 1 7 0.0679388721726 False X 12 a 1 500 8 2 376 2851 1279 3480
vs12 benlakhal 1 0 13Dec2010 1422 parallel 500 570 200 1 8 2.53717124897 False X 12 z 0 270 9 1 370 2505 1433 3621
vs12 benlakhal 1 0 13Dec2010 1422 parallel 500 539 200 1 9 2.45365308172 True X 8 z 1 400 9 3 380 2064 1407 3031
vs12 benlakhal 1 0 13Dec2010 1422 parallel 500 644 200 1 10 1.60785075453 True X 2 z 1 470 9 1 377 1634 1063 2764
vs12 benlakhal 1 0 13Dec2010 1422 parallel 500 681 200 1 11 1.9980259914 True X 12 a 0 471 9 4 343 1179 3451 4280
vs12 benlakhal 1 0 13Dec2010 1422 parallel 500 675 200 1 12 5.82248712478 False X 8 z 0 342 9 2 405 1121 1736 2722
vs12 benlakhal 1 0 13Dec2010 1422 parallel 500 557 200 1 13 0.961923148704 True X 8 z 1 443 9 3 405 2179 1464 3008
vs12 benlakhal 1 0 13Dec2010 1423 parallel 500 522 200 1 14 5.05446507384 False X 2 z 0 485 9 1 403 2036 1463 2760
vs12 benlakhal 1 0 13Dec2010 1423 parallel 500 694 200 1 15 4.81234630006 True X 12 z 1 384 9 3 455 2007 1193 4110
vs12 benlakhal 1 0 13Dec2010 1423 parallel 500 494 200 1 16 3.83740312778 False X 8 z 0 400 9 2 331 1132 2619 3205
vs12 benlakhal 1 0 13Dec2010 1423 parallel 500 415 200 1 17 6.19040998781 False X 4 z 0 471 8 1 432 1006 1864 2836
vs12 benlakhal 1 0 13Dec2010 1423 parallel 500 652 200 1 18 0.952662860366 True X 12 a 0 413 9 4 476 1093 1679 2307
vs12 benlakhal 1 0 13Dec2010 1423 parallel 500 403 200 1 19 6.01266763514 True X 4 z 1 398 9 1 393 1520 948 2535
vs12 benlakhal 1 0 13Dec2010 1423 parallel 500 403 200 1 20 1.42157861306 False X 12 z 0 470 9 3 416 1134 1692 2463
vs12 benlakhal 1 0 13Dec2010 1423 parallel 500 404 200 1 21 2.23700452796 False X 12 a 1 413 9 5 342 2551 1637 4230
vs12 benlakhal 1 0 13Dec2010 1423 parallel 500 691 200 1 22 4.02037599025 True X 8 z 1 400 9 3 386 1563 936 2779
vs12 benlakhal 1 0 13Dec2010 1423 parallel 500 663 200 1 23 5.79398752741 True X 2 z 1 385 9 1 426 1991 1348 2949
vs12 benlakhal 1 0 13Dec2010 1423 parallel 500 625 200 1 24 2.54216769103 True X 4 z 1 398 9 2 380 1549 1036 3566
vs12 benlakhal 1 0 13Dec2010 1423 parallel 500 494 200 1 25 4.16035741465 True X 2 z 1 384 9 1 353 1735 1049 2492
vs12 benlakhal 1 0 13Dec2010 1423 parallel 500 696 200 1 26 4.49474006685 False X 2 z 0 399 9 2 407 1893 1392 2807
vs12 benlakhal 1 0 13Dec2010 1424 parallel 500 472 200 1 27 0.175430882142 False X 12 a 1 399 9 4 375 1578 1007 2365
vs12 benlakhal 1 0 13Dec2010 1424 parallel 500 624 200 1 28 0.908293461217 False X 4 a 1 442 9 3 420 2805 2137 3692
vs12 benlakhal 1 0 13Dec2010 1424 parallel 500 541 200 1 29 4.20753474786 True X 12 a 0 342 9 5 426 1063 1778 3294
vs12 benlakhal 1 0 13Dec2010 1424 parallel 500 663 200 1 30 2.68678148964 True X 2 z 1 413 9 1 381 1618 903 2475
vs12 benlakhal 1 0 13Dec2010 1424 parallel 500 669 200 1 31 0.923719348584 False X 2 z 0 399 1 1 386 2450 1134 3351
vs12 benlakhal 1 0 13Dec2010 1424 parallel 500 546 200 1 32 2.4889851113 False X 8 z 0 398 9 1 358 1006 1592 2564
vs12 benlakhal 1 0 13Dec2010 1424 parallel 500 646 200 1 33 3.84273795617 True X 4 z 1 542 9 3 403 1535 1106 2436
vs12 benlakhal 1 0 13Dec2010 1424 parallel 500 426 200 1 34 3.05787525551 True X 8 z 1 413 9 4 346 1306 835 2163
vs12 benlakhal 1 0 13Dec2010 1424 parallel 500 433 200 1 35 3.24047683637 True X 4 z 1 427 9 3 366 1864 1407 2822
vs12 benlakhal 1 0 13Dec2010 1424 parallel 500 465 200 1 36 5.14712548062 False X 8 a 1 585 9 6 443 2322 1579 3007
vs12 benlakhal 1 0 13Dec2010 1424 parallel 500 613 200 1 37 0.183290845288 False X 4 z 0 500 9 3 343 1887 1364 2602
vs12 benlakhal 1 0 13Dec2010 1424 parallel 500 484 200 1 38 0.631774927425 False X 8 z 0 543 9 7 380 1706 878 2822
vs12 benlakhal 1 0 13Dec2010 1424 parallel 500 464 200 1 39 1.59791609647 True X 4 a 0 471 9 3 415 1605 1165 2592
vs12 benlakhal 1 0 13Dec2010 1424 parallel 500 593 200 1 40 5.87378774339 False X 2 a 1 600 10 1 367 1535 878 2493
vs12 benlakhal 1 0 13Dec2010 1425 parallel 500 504 200 2 1 5.29424176646 True X 12 a 0 785 2 2 360 1716 2216 3274
vs12 benlakhal 1 0 13Dec2010 1425 parallel 500 402 200 2 2 0.823574374318 False X 4 z 0 398 8 1 370 1220 1906 2735
vs12 benlakhal 1 0 13Dec2010 1425 parallel 500 621 200 2 3 2.64930142866 True X 2 z 1 337 9 1 405 1534 1077 2478
vs12 benlakhal 1 0 13Dec2010 1426 parallel 500 569 200 2 4 4.90659816476 True X 4 z 1 528 8 3 281 2021 1564 2736
vs12 benlakhal 1 0 13Dec2010 1426 parallel 500 624 200 2 5 5.05580557966 False X 12 a 1 456 8 5 333 1592 864 2378
vs12 benlakhal 1 0 13Dec2010 1426 parallel 500 574 200 2 6 4.78233628381 True X 12 z 1 356 9 3 408 906 1593 2536
vs12 benlakhal 1 0 13Dec2010 1426 parallel 500 444 200 2 7 1.54289351571 False X 12 a 1 427 9 6 362 1262 735 2121
vs12 benlakhal 1 0 13Dec2010 1426 parallel 500 636 200 2 8 3.6472973246 True X 2 a 0 413 8 1 416 805 1663 2292
vs12 benlakhal 1 0 13Dec2010 1426 parallel 500 690 200 2 9 3.52331932136 True X 4 z 1 213 9 3 412 1463 1063 2479
vs12 benlakhal 1 0 13Dec2010 1426 parallel 500 524 200 2 10 0.424566310772 True X 4 z 1 357 9 3 422 1520 920 2206
vs12 benlakhal 1 0 13Dec2010 1426 parallel 500 508 200 2 11 2.01057926663 False X 12 a 1 295 8 10 373 2279 935 3237
vs12 benlakhal 1 0 13Dec2010 1426 parallel 500 506 200 2 12 4.90957457355 False X 8 a 1 413 10 5 340 1349 720 2221
vs12 benlakhal 1 0 13Dec2010 1426 parallel 500 471 200 2 13 0.188502211995 True X 8 z 1 385 9 4 411 1163 649 2064
vs12 benlakhal 1 0 13Dec2010 1426 parallel 500 500 200 2 14 1.834851985 False X 2 a 1 542 9 2 372 1478 806 2136
vs12 benlakhal 1 0 13Dec2010 1426 parallel 500 631 200 2 15 5.56346971758 False X 2 a 1 438 9 1 367 1449 892 3408
vs12 benlakhal 1 0 13Dec2010 1426 parallel 500 447 200 2 16 5.27579739012 True X 2 z 1 428 9 1 381 1606 2164 2975
vs12 benlakhal 1 0 13Dec2010 1426 parallel 500 579 200 2 17 0.582041012345 True X 8 z 1 357 10 5 377 1421 678 2149
vs12 benlakhal 1 0 13Dec2010 1426 parallel 500 626 200 2 18 4.03475941144 True X 12 a 0 485 9 10 386 1406 920 2177
vs12 benlakhal 1 0 13Dec2010 1427 parallel 500 570 200 2 19 5.48856006107 False X 2 z 0 456 9 1 370 877 1762 2434
vs12 benlakhal 1 0 13Dec2010 1427 parallel 500 614 200 2 20 1.28672356975 True X 2 z 1 413 9 1 371 1262 791 2121
vs12 benlakhal 1 0 13Dec2010 1427 parallel 500 630 200 2 21 4.97697377384 False X 8 a 1 328 9 6 345 1078 1563 2306
vs12 benlakhal 1 0 13Dec2010 1427 parallel 500 516 200 2 22 5.83616187228 False X 8 z 0 427 9 6 375 734 1335 1891
vs12 benlakhal 1 0 13Dec2010 1427 parallel 500 474 200 2 23 2.73995062647 False X 8 a 1 572 9 6 356 720 1363 2120
vs12 benlakhal 1 0 13Dec2010 1427 parallel 500 535 200 2 24 1.48292538039 False X 8 a 1 456 9 6 393 1307 749 2035
vs12 benlakhal 1 0 13Dec2010 1427 parallel 500 609 200 2 25 2.83711800548 True X 12 a 0 453 9 8 332 892 1493 2091
vs12 benlakhal 1 0 13Dec2010 1427 parallel 500 689 200 2 26 1.21448261367 False X 4 a 1 442 9 3 365 1650 1006 2408
vs12 benlakhal 1 0 13Dec2010 1427 parallel 500 454 200 2 27 2.24849634101 True X 8 a 0 454 8 7 370 705 1120 1791
vs12 benlakhal 1 0 13Dec2010 1427 parallel 500 634 200 2 28 0.49787261225 False X 12 a 1 499 8 12 385 707 1365 2136
vs12 benlakhal 1 0 13Dec2010 1427 parallel 500 643 200 2 29 4.89827674066 True X 12 z 1 485 9 11 393 733 1434 2076
vs12 benlakhal 1 0 13Dec2010 1427 parallel 500 457 200 2 30 2.32048952643 False X 4 a 1 442 9 3 376 877 1349 2106
vs12 benlakhal 1 0 13Dec2010 1427 parallel 500 509 200 2 31 3.08397660074 True X 4 a 0 542 9 3 428 1128 777 1658
vs12 benlakhal 1 0 13Dec2010 1427 parallel 500 512 200 2 32 2.44122999886 True X 8 z 1 500 9 7 373 2551 1378 3538
vs12 benlakhal 1 0 13Dec2010 1427 parallel 500 700 200 2 33 2.27953147509 False X 2 z 0 400 9 1 357 1062 1619 2219
vs12 benlakhal 1 0 13Dec2010 1427 parallel 500 695 200 2 34 2.50522250924 True X 8 a 0 398 9 7 420 1506 993 3179
vs12 benlakhal 1 0 13Dec2010 1428 parallel 500 683 200 2 35 1.30575336403 False X 4 a 1 712 9 3 361 763 1278 5268
vs12 benlakhal 1 0 13Dec2010 1428 parallel 500 458 200 2 36 2.13827856627 False X 12 a 1 614 9 10 343 1749 791 2535
vs12 benlakhal 1 0 13Dec2010 1428 parallel 500 700 200 2 37 1.2222033028 True X 4 z 1 427 9 3 381 877 1621 2635
vs12 benlakhal 1 0 13Dec2010 1428 parallel 500 562 200 2 38 1.10301835206 False X 2 a 1 451 9 1 360 1363 906 1977
vs12 benlakhal 1 0 13Dec2010 1428 parallel 500 634 200 2 39 0.0747982041165 False X 4 a 1 499 9 3 380 1577 1034 5338
vs12 benlakhal 1 0 13Dec2010 1428 parallel 500 414 200 2 40 2.82596534922 True X 2 a 0 443 9 1 337 1764 1135 3394
vs12 benlakhal 1 0 13Dec2010 1428 parallel 500 621 200 3 1 2.20939664244 False X 2 z 0 3560 8 0 360 1431 1988 2460
vs12 benlakhal 1 0 13Dec2010 1428 parallel 500 518 200 3 2 3.60517696289 False X 4 z 0 442 9 0 373 907 1450 2193
vs12 benlakhal 1 0 13Dec2010 1429 parallel 500 475 200 3 3 2.38100346401 False X 12 a 1 413 8 2 345 962 1462 2048
vs12 benlakhal 1 0 13Dec2010 1429 parallel 500 441 200 3 4 3.17893061598 True X 12 a 0 457 9 2 450 835 1435 2121
vs12 benlakhal 1 0 13Dec2010 1429 parallel 500 668 200 3 5 5.98174940323 True X 12 z 1 428 9 2 427 749 1405 1976
vs12 benlakhal 1 0 13Dec2010 1429 parallel 500 542 200 3 6 1.2887368672 False X 4 z 0 470 9 0 417 805 1291 1691
vs12 benlakhal 1 0 13Dec2010 1429 parallel 500 481 200 3 7 0.323092596909 True X 2 z 1 442 9 1 418 577 1234 2690
vs12 benlakhal 1 0 13Dec2010 1429 parallel 500 521 200 3 8 4.06878816807 False X 12 a 1 543 9 3 425 650 1207 1664
vs12 benlakhal 1 0 13Dec2010 1429 parallel 500 513 200 3 9 0.739684452511 True X 8 z 1 299 9 2 506 907 1349 2393
vs12 benlakhal 1 0 13Dec2010 1429 parallel 500 596 200 3 10 2.99931341674 True X 4 a 0 456 8 3 416 792 1421 2937
vs12 benlakhal 1 0 13Dec2010 1429 parallel 500 652 200 3 11 1.04292525965 False X 2 a 1 484 9 2 408 1307 764 2134
vs12 benlakhal 1 0 13Dec2010 1429 parallel 500 562 200 3 12 0.119897673817 False X 12 a 1 456 1 2 402 949 1449 2649
vs12 benlakhal 1 0 13Dec2010 1429 parallel 500 442 200 3 13 1.1411645019 False X 8 a 1 471 8 8 320 1636 1136 2448
vs12 benlakhal 1 0 13Dec2010 1429 parallel 500 603 200 3 14 5.05459653332 True X 4 a 0 527 9 3 375 649 1106 1834
vs12 benlakhal 1 0 13Dec2010 1429 parallel 500 636 200 3 15 5.02706385808 True X 8 z 1 542 9 8 391 749 5005 2016
vs12 benlakhal 1 0 13Dec2010 1429 parallel 500 543 200 3 16 4.37190884853 True X 2 z 1 557 9 1 402 1564 963 2335
vs12 benlakhal 1 0 13Dec2010 1430 parallel 500 613 200 3 17 5.1933523673 True X 2 z 1 427 9 1 346 1878 1135 2993
vs12 benlakhal 1 0 13Dec2010 1430 parallel 500 462 200 3 18 5.32258207067 False X 12 a 1 628 1 7 336 3335 1708 4965
vs12 benlakhal 1 0 13Dec2010 1430 parallel 500 690 200 3 19 1.5561740745 False X 2 a 1 542 9 2 317 1692 1106 2536
vs12 benlakhal 1 0 13Dec2010 1430 parallel 500 513 200 3 20 5.11118864595 False X 8 a 1 571 9 7 356 1292 735 2336
vs12 benlakhal 1 0 13Dec2010 1430 parallel 500 480 200 3 21 3.41442174433 True X 4 z 1 628 9 3 373 905 2493 4320
vs12 benlakhal 1 0 13Dec2010 1430 parallel 500 523 200 3 22 0.16793726803 False X 12 a 1 471 9 9 353 2565 1322 3737
vs12 benlakhal 1 0 13Dec2010 1430 parallel 500 689 200 3 23 1.65458993789 False X 2 z 0 465 9 1 395 1348 791 2006
vs12 benlakhal 1 0 13Dec2010 1430 parallel 500 412 200 3 24 3.11994568137 True X 12 z 1 585 9 9 368 1692 1092 2521
vs12 benlakhal 1 0 13Dec2010 1430 parallel 500 489 200 3 25 0.30288154686 True X 12 z 1 421 9 10 396 1192 706 2021
vs12 benlakhal 1 0 13Dec2010 1430 parallel 500 519 200 3 26 4.63398127933 True X 4 z 1 528 9 2 367 1421 921 3251
vs12 benlakhal 1 0 13Dec2010 1430 parallel 500 419 200 3 27 4.57129888532 False X 2 a 1 471 9 2 367 1449 921 6198
vs12 benlakhal 1 0 13Dec2010 1430 parallel 500 423 200 3 28 4.45270487059 False X 4 z 0 526 9 3 346 1221 821 2150
vs12 benlakhal 1 0 13Dec2010 1430 parallel 500 528 200 3 29 5.36290681295 True X 2 z 1 484 9 1 390 1778 906 2793
vs12 benlakhal 1 0 13Dec2010 1431 parallel 500 667 200 3 30 4.56782649954 True X 8 z 1 557 9 6 335 1706 1106 2407
vs12 benlakhal 1 0 13Dec2010 1431 parallel 500 533 200 3 31 2.80584467175 False X 4 z 0 470 9 3 385 1391 719 2292
vs12 benlakhal 1 0 13Dec2010 1431 parallel 500 622 200 3 32 4.27337812288 True X 2 a 0 443 9 1 381 835 1363 2766
vs12 benlakhal 1 0 13Dec2010 1431 parallel 500 502 200 3 33 3.6575015704 False X 8 a 1 485 9 7 386 1393 735 2278
vs12 benlakhal 1 0 13Dec2010 1431 parallel 500 564 200 3 34 5.45305742612 True X 4 z 1 456 9 3 345 1020 1621 2536
vs12 benlakhal 1 0 13Dec2010 1431 parallel 500 597 200 3 35 6.12734993918 False X 8 a 1 471 9 6 370 2336 692 3263
vs12 benlakhal 1 0 13Dec2010 1431 parallel 500 633 200 3 36 3.05514127455 True X 8 a 0 485 9 7 385 935 1421 2707
vs12 benlakhal 1 0 13Dec2010 1431 parallel 500 700 200 3 37 4.42352281075 False X 8 a 1 641 9 6 355 1303 775 3864
vs12 benlakhal 1 0 13Dec2010 1431 parallel 500 430 200 3 38 1.80897805264 True X 8 z 1 714 9 7 466 1378 706 2206
vs12 benlakhal 1 0 13Dec2010 1431 parallel 500 504 200 3 39 0.337687187207 False X 4 a 1 556 9 4 361 862 1506 2478
vs12 benlakhal 1 0 13Dec2010 1431 parallel 500 655 200 3 40 4.92088392497 True X 12 z 1 643 9 11 423 749 1350 2006
vs12 benlakhal 1 0 13Dec2010 1432 parallel 500 662 200 4 1 5.30984764371 False X 12 a 1 485 9 9 343 1903 1160 2846
vs12 benlakhal 1 0 13Dec2010 1432 parallel 500 678 200 4 2 2.66414616854 False X 12 a 1 500 9 10 370 1377 749 2435
vs12 benlakhal 1 0 13Dec2010 1432 parallel 500 470 200 4 3 5.38911839687 True X 8 z 1 599 2 7 386 2122 750 3094
vs12 benlakhal 1 0 13Dec2010 1432 parallel 500 430 200 4 4 4.83379994419 False X 8 a 1 398 9 5 370 1620 920 2607
vs12 benlakhal 1 0 13Dec2010 1432 parallel 500 545 200 4 5 2.97354511909 False X 2 z 0 457 10 1 360 1364 920 2236
vs12 benlakhal 1 0 13Dec2010 1432 parallel 500 468 200 4 6 3.88037467249 True X 2 a 0 442 9 1 380 1134 734 1934
vs12 benlakhal 1 0 13Dec2010 1432 parallel 500 446 200 4 7 3.41498976599 True X 12 a 0 465 9 11 372 1863 1378 2692
vs12 benlakhal 1 0 13Dec2010 1432 parallel 500 601 200 4 8 2.96314991819 False X 2 z 0 542 9 1 390 1405 848 2306
vs12 benlakhal 1 0 13Dec2010 1432 parallel 500 522 200 4 9 1.5487986689 True X 4 z 1 712 9 3 340 1365 907 2651
vs12 benlakhal 1 0 13Dec2010 1433 parallel 500 465 200 4 10 4.66449473207 True X 8 z 1 413 9 6 378 1462 805 2478
vs12 benlakhal 1 0 13Dec2010 1433 parallel 500 478 200 4 11 3.6971182748 True X 4 z 1 514 1 2 381 2809 2208 3709
vs12 benlakhal 1 0 13Dec2010 1433 parallel 500 448 200 4 12 2.76957266687 False X 4 a 1 384 9 3 333 1816 1249 2530
vs12 benlakhal 1 0 13Dec2010 1433 parallel 500 608 200 4 13 1.12964327092 False X 8 z 0 514 8 6 325 1092 663 2163
vs12 benlakhal 1 0 13Dec2010 1433 parallel 500 461 200 4 14 1.32137847198 False X 2 a 1 713 9 1 356 1501 963 3160
vs12 benlakhal 1 0 13Dec2010 1433 parallel 500 430 200 4 15 1.64648332951 False X 4 z 0 499 8 3 366 2365 1650 3251
vs12 benlakhal 1 0 13Dec2010 1433 parallel 500 632 200 4 16 5.65624278436 False X 12 a 1 466 8 11 368 1264 721 2293
vs12 benlakhal 1 0 13Dec2010 1433 parallel 500 574 200 4 17 5.10947478028 True X 2 z 1 399 9 1 330 1306 777 2164
vs12 benlakhal 1 0 13Dec2010 1433 parallel 500 478 200 4 18 0.2109119976 True X 4 z 1 427 9 3 398 1430 730 2288
vs12 benlakhal 1 0 13Dec2010 1433 parallel 500 600 200 4 19 4.48625459401 False X 4 a 1 557 9 3 372 1335 691 2121
vs12 benlakhal 1 0 13Dec2010 1433 parallel 500 412 200 4 20 5.81175923841 True X 12 z 1 542 9 10 376 1347 647 2262
vs12 benlakhal 1 0 13Dec2010 1433 parallel 500 412 200 4 21 4.04661215597 True X 12 a 0 499 9 9 387 1205 691 1948
vs12 benlakhal 1 0 13Dec2010 1433 parallel 500 485 200 4 22 3.47939817115 False X 4 a 1 485 9 3 363 1158 591 1772
vs12 benlakhal 1 0 13Dec2010 1433 parallel 500 682 200 4 23 4.72664498563 False X 12 a 1 585 9 10 353 1320 549 2607
vs12 benlakhal 1 0 13Dec2010 1434 parallel 500 635 200 4 24 4.78293697675 True X 12 z 1 372 9 2 375 735 1976 2504
vs12 benlakhal 1 0 13Dec2010 1434 parallel 500 658 200 4 25 2.53737902793 False X 8 a 1 456 5 3 390 1578 820 5680
vs12 benlakhal 1 0 13Dec2010 1434 parallel 500 611 200 4 26 1.71476800301 True X 2 z 1 528 9 1 383 1578 963 2407
vs12 benlakhal 1 0 13Dec2010 1434 parallel 500 693 200 4 27 0.568624983272 True X 2 z 1 400 9 1 353 1289 849 2032
vs12 benlakhal 1 0 13Dec2010 1434 parallel 500 491 200 4 28 4.65769344227 True X 4 z 1 413 9 3 405 1306 748 2378
vs12 benlakhal 1 0 13Dec2010 1434 parallel 500 529 200 4 29 3.87774400436 False X 8 a 1 456 9 6 381 1148 634 1874
vs12 benlakhal 1 0 13Dec2010 1434 parallel 500 516 200 4 30 0.178519297822 False X 12 a 1 556 1 4 368 2021 1222 2679
vs12 benlakhal 1 0 13Dec2010 1434 parallel 500 524 200 4 31 4.86238586139 False X 2 a 1 585 1 1 323 2546 920 3475
vs12 benlakhal 1 0 13Dec2010 1434 parallel 500 474 200 4 32 3.3350630281 True X 2 z 1 642 9 1 337 1635 1092 2421
vs12 benlakhal 1 0 13Dec2010 1434 parallel 500 573 200 4 33 6.23237322407 True X 8 z 1 484 9 7 362 1245 660 2147
vs12 benlakhal 1 0 13Dec2010 1434 parallel 500 424 200 4 34 1.93641599818 False X 4 a 1 642 9 3 347 1577 978 5151
vs12 benlakhal 1 0 13Dec2010 1434 parallel 500 562 200 4 35 3.53072562303 True X 8 a 0 442 1 7 386 2278 892 2821
vs12 benlakhal 1 0 13Dec2010 1434 parallel 500 610 200 4 36 0.696441405907 False X 8 z 0 528 1 6 387 1634 880 2806
vs12 benlakhal 1 0 13Dec2010 1434 parallel 500 401 200 4 37 1.09386578581 True X 8 z 1 413 9 6 407 1105 663 2148
vs12 benlakhal 1 0 13Dec2010 1435 parallel 500 415 200 4 38 1.15700402753 True X 4 z 1 557 8 3 426 1087 591 2002
vs12 benlakhal 1 0 13Dec2010 1435 parallel 500 457 200 4 39 4.90382650861 False X 2 a 1 512 9 1 295 1520 920 2993
vs12 benlakhal 1 0 13Dec2010 1435 parallel 500 489 200 4 40 3.21777215069 True X 12 z 1 585 9 10 362 1348 762 2391
vs12 benlakhal 1 0 13Dec2010 1435 parallel 500 617 200 5 1 4.91568014688 False X 12 a 1 641 1 8 331 1776 804 2648
vs12 benlakhal 1 0 13Dec2010 1435 parallel 500 580 200 5 2 5.75408172569 False X 8 a 1 527 8 6 280 1292 678 1921
vs12 benlakhal 1 0 13Dec2010 1435 parallel 500 419 200 5 3 2.61953272214 True X 8 z 1 556 8 6 335 1101 616 1916
vs12 benlakhal 1 0 13Dec2010 1435 parallel 500 561 200 5 4 2.81153322148 True X 8 z 1 529 8 7 340 1449 835 2221
vs12 benlakhal 1 0 13Dec2010 1435 parallel 500 586 200 5 5 2.91374871647 False X 12 a 1 643 9 9 353 1019 535 1962
vs12 benlakhal 1 0 13Dec2010 1436 parallel 500 422 200 5 6 3.85682747328 True X 2 z 1 641 9 1 357 1334 863 2049
vs12 benlakhal 1 0 13Dec2010 1436 parallel 500 614 200 5 7 0.86410138731 True X 8 z 1 385 9 6 312 1747 1135 3235
vs12 benlakhal 1 0 13Dec2010 1436 parallel 500 510 200 5 8 3.71139658685 False X 12 a 1 542 9 9 363 1248 649 2078
vs12 benlakhal 1 0 13Dec2010 1436 parallel 500 590 200 5 9 2.63197014006 False X 2 a 1 614 9 1 323 1230 730 1902
vs12 benlakhal 1 0 13Dec2010 1436 parallel 500 524 200 5 10 0.215781586129 True X 12 z 1 485 9 10 332 1249 749 2622
vs12 benlakhal 1 0 13Dec2010 1436 parallel 500 444 200 5 11 2.01432399468 True X 2 z 1 572 9 1 365 1490 706 6525
vs12 benlakhal 1 0 13Dec2010 1436 parallel 500 543 200 5 12 4.57181220307 True X 2 z 1 471 9 2 381 1403 932 2204
vs12 benlakhal 1 0 13Dec2010 1436 parallel 500 424 200 5 13 3.53194263448 False X 2 a 1 499 9 1 335 1335 777 2121
vs12 benlakhal 1 0 13Dec2010 1436 parallel 500 501 200 5 14 1.13841607847 False X 4 a 1 528 9 3 336 1302 692 2102
vs12 benlakhal 1 0 13Dec2010 1436 parallel 500 588 200 5 15 2.86968326661 True X 8 z 1 657 9 7 397 1792 1092 2679
vs12 benlakhal 1 0 13Dec2010 1436 parallel 500 446 200 5 16 4.19437063863 False X 4 a 1 555 9 4 381 1246 605 1918
vs12 benlakhal 1 0 13Dec2010 1436 parallel 500 567 200 5 17 6.2281412691 True X 8 z 1 456 8 7 332 1034 577 1893
vs12 benlakhal 1 0 13Dec2010 1436 parallel 500 453 200 5 18 4.81419143285 False X 2 z 0 442 1 1 350 1663 748 2662
vs12 benlakhal 1 0 13Dec2010 1436 parallel 500 427 200 5 19 0.255908329707 False X 2 a 1 599 8 1 332 1264 763 1978
vs12 benlakhal 1 0 13Dec2010 1436 parallel 500 470 200 5 20 1.41221459969 False X 8 a 1 542 8 7 355 1005 562 1801
vs12 benlakhal 1 0 13Dec2010 1437 parallel 500 592 200 5 21 0.645952271212 True X 12 z 1 427 9 11 375 1034 606 1891
vs12 benlakhal 1 0 13Dec2010 1437 parallel 500 515 200 5 22 0.438839465384 True X 4 z 1 442 9 3 391 920 492 1606
vs12 benlakhal 1 0 13Dec2010 1437 parallel 500 468 200 5 23 4.24120725749 True X 2 z 1 624 9 1 376 962 520 1677
vs12 benlakhal 1 0 13Dec2010 1437 parallel 500 557 200 5 24 0.558432290139 False X 2 a 1 556 9 1 352 1135 592 2050
vs12 benlakhal 1 0 13Dec2010 1437 parallel 500 596 200 5 25 2.35547554188 False X 12 a 1 599 9 11 311 1061 604 1790
vs12 benlakhal 1 0 13Dec2010 1437 parallel 500 562 200 5 26 2.13824655077 False X 4 a 1 542 9 3 361 1249 777 2106
vs12 benlakhal 1 0 13Dec2010 1437 parallel 500 452 200 5 27 5.54152102965 False X 4 a 1 528 8 3 362 962 534 1889
vs12 benlakhal 1 0 13Dec2010 1437 parallel 500 586 200 5 28 5.44210282156 True X 4 z 1 527 9 3 373 1650 607 2480
vs12 benlakhal 1 0 13Dec2010 1437 parallel 500 584 200 5 29 3.77478238487 True X 4 a 0 441 2 3 357 1502 577 2231
vs12 benlakhal 1 0 13Dec2010 1437 parallel 500 412 200 5 30 3.72653125763 False X 8 a 1 500 9 7 380 1264 635 2192
vs12 benlakhal 1 0 13Dec2010 1437 parallel 500 467 200 5 31 5.09447679037 True X 2 z 1 456 9 1 391 2232 776 3391
vs12 benlakhal 1 0 13Dec2010 1437 parallel 500 602 200 5 32 3.50389188887 True X 4 z 1 613 9 3 347 2150 606 2893
vs12 benlakhal 1 0 13Dec2010 1437 parallel 500 485 200 5 33 3.36631519615 False X 8 a 1 555 8 7 361 1063 605 2407
vs12 benlakhal 1 0 13Dec2010 1437 parallel 500 434 200 5 34 5.56940953837 False X 8 a 1 542 9 7 383 1062 476 1906
vs12 benlakhal 1 0 13Dec2010 1437 parallel 500 589 200 5 35 5.82705290647 True X 12 a 0 557 9 11 370 1486 815 2272
vs12 benlakhal 1 0 13Dec2010 1437 parallel 500 530 200 5 36 1.25096507027 True X 12 z 1 557 8 10 353 1121 564 2050
vs12 benlakhal 1 0 13Dec2010 1438 parallel 500 640 200 5 37 1.99848915838 False X 12 a 1 486 7 9 361 903 419 1962
vs12 benlakhal 1 0 13Dec2010 1438 parallel 500 429 200 5 38 3.13935702007 True X 4 z 1 585 9 3 333 1133 519 2693
vs12 benlakhal 1 0 13Dec2010 1438 parallel 500 622 200 5 39 2.81150014645 True X 12 z 1 470 9 11 377 1204 575 1961
vs12 benlakhal 1 0 13Dec2010 1438 parallel 500 425 200 5 40 2.81514980704 False X 4 z 0 514 8 3 396 1291 533 2049
vs12 benlakhal 2 None 20Dec2010 1326 pTMix 500 535 200 1 1 3.07087425299 True X 12 z 1 2011 None None None None None None
vs12 benlakhal 2 None 20Dec2010 1326 pTMix 500 483 200 1 2 5.95792763021 False L 12 a 1 2016 None None None None None None
vs12 benlakhal 2 None 20Dec2010 1326 pTMix 500 684 200 1 3 4.85208219756 False X 2 a 1 2016 None None None None None None
vs12 benlakhal 2 None 20Dec2010 1326 pTMix 500 490 200 1 4 3.93361189923 True X 4 z 1 2014 None None None None None None
vs12 benlakhal 2 None 20Dec2010 1326 pTMix 500 413 200 1 5 5.46428848822 True X 12 z 1 2015 None None None None None None
vs12 benlakhal 2 None 20Dec2010 1326 pTMix 500 507 200 1 6 0.87468562628 True X 8 z 1 2014 None None None None None None
vs12 benlakhal 2 None 20Dec2010 1326 pTMix 500 564 200 1 7 5.02273667928 False X 12 a 1 2016 None None None None None None
vs12 benlakhal 2 None 20Dec2010 1326 pTMix 500 578 200 1 8 4.36904404762 False L 8 a 1 2016 None None None None None None
vs12 benlakhal 2 None 20Dec2010 1326 pTMix 500 567 200 1 9 2.64374729027 True X 4 z 1 2011 None None None None None None
vs12 benlakhal 2 None 20Dec2010 1326 pTMix 500 689 200 1 10 5.78446716613 True L 2 a 0 2016 None None None None None None
vs12 benlakhal 2 None 20Dec2010 1326 pTMix 500 643 200 1 11 0.529287205125 False L 4 a 1 2025 None None None None None None
vs12 benlakhal 2 None 20Dec2010 1326 pTMix 500 535 200 1 12 1.57570826085 False L 8 a 1 2015 None None None None None None
vs12 benlakhal 2 None 20Dec2010 1326 pTMix 500 622 200 1 13 0.0545268640501 True L 4 z 1 2017 None None None None None None
vs12 benlakhal 2 None 20Dec2010 1327 pTMix 500 577 200 1 14 3.67825019646 True L 8 z 1 2024 None None None None None None
vs12 benlakhal 2 None 20Dec2010 1327 pTMix 500 627 200 1 15 5.46691423499 True L 12 z 1 2017 None None None None None None
vs12 benlakhal 2 None 20Dec2010 1327 pTMix 500 673 200 1 16 3.81837590603 True X 8 z 1 2014 None None None None None None
vs12 benlakhal 2 None 20Dec2010 1327 pTMix 500 595 200 1 17 5.86927896059 False X 4 a 1 2017 None None None None None None
vs12 benlakhal 2 None 20Dec2010 1327 pTMix 500 548 200 1 18 5.19270728186 False X 8 a 1 2015 None None None None None None
vs12 benlakhal 2 None 20Dec2010 1327 pTMix 500 523 200 1 19 3.31324376776 True X 2 z 1 2013 None None None None None None
vs12 benlakhal 2 None 20Dec2010 1327 pTMix 500 487 200 1 20 2.36144039442 True L 4 z 1 2016 None None None None None None
vs12 benlakhal 2 None 20Dec2010 1327 pTMix 500 440 200 1 21 5.10254458291 False X 2 a 1 2016 None None None None None None
vs12 benlakhal 2 None 20Dec2010 1327 pTMix 500 620 200 1 22 3.6299275998 False L 12 a 1 2015 None None None None None None
vs12 benlakhal 2 None 20Dec2010 1327 pTMix 500 513 200 1 23 1.59329011092 False X 8 a 1 2015 None None None None None None
vs12 benlakhal 2 None 20Dec2010 1327 pTMix 500 655 200 1 24 2.73158851965 True L 8 z 1 2025 None None None None None None
vs12 benlakhal 2 None 20Dec2010 1327 pTMix 500 678 200 1 25 6.14353956262 False X 4 a 1 2015 None None None None None None
vs12 benlakhal 2 None 20Dec2010 1327 pTMix 500 454 200 1 26 4.38147560103 False X 12 a 1 2016 None None None None None None
vs12 benlakhal 2 None 20Dec2010 1327 pTMix 500 514 200 1 27 1.98824354119 True L 2 z 1 2015 None None None None None None
vs12 benlakhal 2 None 20Dec2010 1327 pTMix 500 499 200 1 28 3.57665474976 True X 2 z 1 2016 None None None None None None
vs12 benlakhal 2 None 20Dec2010 1327 pTMix 500 614 200 1 29 3.60688845414 False L 4 a 1 2014 None None None None None None
vs12 benlakhal 2 None 20Dec2010 1327 pTMix 500 537 200 1 30 0.777288675065 False L 2 a 1 2016 None None None None None None
vs12 benlakhal 2 None 20Dec2010 1327 pTMix 500 505 200 1 31 3.58518010479 True L 12 z 1 2015 None None None None None None
vs12 benlakhal 2 None 20Dec2010 1327 pTMix 500 655 200 1 32 1.81523286625 False L 2 a 1 2016 None None None None None None
vs12 benlakhal 2 None 20Dec2010 1328 tMix 500 679 200 1 1 6.13107865881 True X 4 z 1 686 9 1.944 381 8469 13744 16032
vs12 benlakhal 2 None 20Dec2010 1328 tMix 500 500 200 1 2 1.88330391443 True X 12 z 1 557 9 4.284 502 1917 4807 6693
vs12 benlakhal 2 None 20Dec2010 1328 tMix 500 481 200 1 3 5.46004078672 True X 2 z 1 413 7 0.426 433 6657 4140 8156
vs12 benlakhal 2 None 20Dec2010 1328 tMix 500 594 200 1 4 5.74179645048 True L 12 a 0 499 9 3.588 543 2939 4496 5196
vs12 benlakhal 2 None 20Dec2010 1328 tMix 500 549 200 1 5 0.504800105301 False L 8 z 0 556 1 2.848 411 2380 4124 5367
vs12 benlakhal 2 None 20Dec2010 1329 tMix 500 512 200 1 6 4.51921804009 False X 4 z 0 613 9 1.652 440 1321 3338 4277
vs12 benlakhal 2 None 20Dec2010 1329 tMix 500 548 200 1 7 3.02585030643 False L 2 a 1 570 9 0.74 433 2866 4725 5782
vs12 benlakhal 2 None 20Dec2010 1329 tMix 500 468 200 1 8 2.35875301224 False L 12 z 0 499 9 3.588 387 1150 3810 5979
vs12 benlakhal 2 None 20Dec2010 1329 tMix 500 497 200 1 9 5.5857647947 True L 4 z 1 471 10 1.084 411 4909 2938 6182
vs12 benlakhal 2 None 20Dec2010 1329 tMix 500 669 200 1 10 4.01265221552 True L 2 a 0 485 10 0.57 425 3034 2036 4092
vs12 benlakhal 2 None 20Dec2010 1329 tMix 500 473 200 1 11 0.0804625538987 True L 4 z 1 398 9 0.792 431 3495 2551 4578
vs12 benlakhal 2 None 20Dec2010 1329 tMix 500 551 200 1 12 1.47171608938 True X 12 z 1 643 9 5.316 396 4225 2523 5423
vs12 benlakhal 2 None 20Dec2010 1329 tMix 500 470 200 1 13 0.920689663654 True L 12 z 1 413 9 2.556 417 3925 1522 4977
vs12 benlakhal 2 None 20Dec2010 1330 tMix 500 526 200 1 14 3.39430414642 True L 8 z 1 485 9 2.28 340 3539 1837 5151
vs12 benlakhal 2 None 20Dec2010 1330 tMix 500 487 200 1 15 4.88204047865 True X 8 z 1 385 10 1.48 442 2380 3910 5551
vs12 benlakhal 2 None 20Dec2010 1330 tMix 500 622 200 1 16 1.41003486303 False X 8 z 0 513 2 2.504 410 2365 4909 5966
vs12 benlakhal 2 None 20Dec2010 1330 tMix 500 561 200 1 17 0.986285644761 True L 2 z 1 570 10 0.74 430 4051 2379 5352
vs12 benlakhal 2 None 20Dec2010 1330 tMix 500 524 200 1 18 3.93971808635 True X 8 z 1 499 9 2.392 371 3181 1750 4536
vs12 benlakhal 2 None 20Dec2010 1330 tMix 500 486 200 1 19 1.15729050503 False X 4 z 0 442 1 0.968 395 3637 2136 5065
vs12 benlakhal 2 None 20Dec2010 1330 tMix 500 508 200 1 20 3.29313226474 True X 4 a 0 499 10 1.196 456 2794 1879 3694
vs12 benlakhal 2 None 20Dec2010 1330 tMix 500 400 200 1 21 1.43137138309 False X 12 z 0 600 9 4.8 378 3209 1966 4467
vs12 benlakhal 2 None 20Dec2010 1331 tMix 500 499 200 1 22 2.76337318638 False L 4 z 0 652 4 1.808 416 5412 1965 8639
vs12 benlakhal 2 None 20Dec2010 1331 tMix 500 628 200 1 23 1.19657100921 False X 2 a 1 786 4 1.172 602 7968 2008 10428
vs12 benlakhal 2 None 20Dec2010 1331 tMix 500 589 200 1 24 0.68542373815 False X 8 z 0 570 0 2.96 425 3766 2350 5024
vs12 benlakhal 2 None 20Dec2010 1331 tMix 500 573 200 1 25 3.09638262602 True X 2 z 1 671 10 0.942 603 2207 1264 3422
vs12 benlakhal 2 None 20Dec2010 1331 tMix 500 535 200 1 26 4.85340408232 False L 12 a 1 725 5 6.3 375 7086 2753 7868
vs12 benlakhal 2 None 20Dec2010 1332 tMix 500 431 200 1 27 2.91950408256 True L 8 z 1 642 4 3.536 461 3024 25401 27545
vs12 benlakhal 2 None 20Dec2010 1332 tMix 500 485 200 1 28 1.98251980313 False X 2 a 1 657 9 0.914 440 2794 1894 3780
vs12 benlakhal 2 None 20Dec2010 1332 tMix 500 440 200 1 29 0.254630737009 False L 8 z 0 722 9 4.176 411 3652 2580 4609
vs12 benlakhal 2 None 20Dec2010 1332 tMix 500 652 200 1 30 0.556634592825 False X 12 a 1 610 1 4.92 507 4196 1980 5541
vs12 benlakhal 2 None 20Dec2010 1332 tMix 500 625 200 1 31 6.04501439366 False L 2 a 1 528 10 0.656 522 2050 1249 3037
vs12 benlakhal 2 None 20Dec2010 1332 tMix 500 480 200 1 32 4.7793546662 False L 4 z 0 1458 0 5.032 416 2377 3779 4750
vs12 benlakhal 2 None 20Dec2010 1333 mixed 500 683 200 1 1 0.560264716636 True L 8 a 0 643 0 4 562 3922 2420 5494
vs12 benlakhal 2 None 20Dec2010 1333 mixed 500 418 200 1 2 6.27017493553 True L 4 z 1 484 9 0 471 3950 2867 5366
vs12 benlakhal 2 None 20Dec2010 1333 mixed 500 626 200 1 3 4.4041815626 True X 2 z 1 613 9 2 491 2021 1392 3080
vs12 benlakhal 2 None 20Dec2010 1333 mixed 500 532 200 1 4 2.38004750613 False X 12 z 0 527 9 4 447 2780 1866 3837
vs12 benlakhal 2 None 20Dec2010 1333 mixed 500 677 200 1 5 0.89002391091 True X 8 z 1 486 9 7 431 2362 1264 3549
vs12 benlakhal 2 None 20Dec2010 1333 mixed 500 585 200 1 6 3.88660981773 False L 4 z 0 685 1 1 511 6293 3921 4850
vs12 benlakhal 2 None 20Dec2010 1334 mixed 500 583 200 1 7 6.15592014396 True L 12 a 0 785 9 5 446 18124 1565 19251
vs12 benlakhal 2 None 20Dec2010 1334 mixed 500 624 200 1 8 2.39434225123 True L 2 a 0 743 0 1 473 3395 2309 4052
vs12 benlakhal 2 None 20Dec2010 1334 mixed 500 655 200 1 9 2.71071625758 True L 12 z 1 514 3 2 436 3607 1663 4308
vs12 benlakhal 2 None 20Dec2010 1334 mixed 500 610 200 1 10 2.96197884202 False X 8 z 0 657 2 1 438 2987 1222 3931
vs12 benlakhal 2 None 20Dec2010 1334 mixed 500 507 200 1 11 2.14683717208 False L 2 a 1 600 9 1 427 1993 1264 2708
vs12 benlakhal 2 None 20Dec2010 1334 mixed 500 407 200 1 12 2.27519621737 True X 4 z 1 668 9 3 515 2379 1250 3438
vs12 benlakhal 2 None 20Dec2010 1334 mixed 500 456 200 1 13 0.512833588334 False X 4 a 1 757 1 4 458 4049 2633 4864
vs12 benlakhal 2 None 20Dec2010 1334 mixed 500 440 200 1 14 2.6316677985 False X 2 a 1 556 9 0 491 3481 2179 4420
vs12 benlakhal 2 None 20Dec2010 1334 mixed 500 537 200 1 15 1.55022870928 False L 8 z 0 600 9 1 507 3339 5012 5682
vs12 benlakhal 2 None 20Dec2010 1334 mixed 500 472 200 1 16 3.87543071114 False L 12 z 0 742 9 4 372 3166 1779 4195
vs12 benlakhal 2 None 20Dec2010 1335 mixed 500 479 200 1 17 2.21615052322 False X 2 a 1 607 9 1 398 2608 3495 4997
vs12 benlakhal 2 None 20Dec2010 1335 mixed 500 627 200 1 18 1.22342165325 False L 12 a 1 714 8 5 402 2862 1962 3748
vs12 benlakhal 2 None 20Dec2010 1335 mixed 500 574 200 1 19 1.50341540492 True X 4 z 1 628 9 4 477 5710 4609 10803
vs12 benlakhal 2 None 20Dec2010 1335 mixed 500 575 200 1 20 0.944677165329 False L 4 z 0 671 9 3 481 2037 5384 10687
vs12 benlakhal 2 None 20Dec2010 1335 mixed 500 477 200 1 21 3.43710698709 False X 12 z 0 499 9 4 456 2906 4163 5293
vs12 benlakhal 2 None 20Dec2010 1335 mixed 500 456 200 1 22 4.01634272279 True X 2 z 1 613 10 1 457 1434 2335 3147
vs12 benlakhal 2 None 20Dec2010 1335 mixed 500 419 200 1 23 5.10487543944 True X 12 z 1 471 9 3 491 1050 1851 3137
vs12 benlakhal 2 None 20Dec2010 1335 mixed 500 690 200 1 24 4.81946924626 False X 4 a 1 585 9 2 442 1360 2647 3748
vs12 benlakhal 2 None 20Dec2010 1335 mixed 500 572 200 1 25 0.95010196667 False X 12 z 0 499 9 3 505 1837 2780 3575
vs12 benlakhal 2 None 20Dec2010 1336 mixed 500 642 200 1 26 5.43137857051 False L 12 z 0 557 1 2 600 3067 5084 6883
vs12 benlakhal 2 None 20Dec2010 1336 mixed 500 471 200 1 27 3.56788440936 True L 4 z 1 699 10 2 475 3409 1879 5322
vs12 benlakhal 2 None 20Dec2010 1336 mixed 500 403 200 1 28 4.06003671634 False X 2 a 1 799 9 2 551 1879 3137 4180
vs12 benlakhal 2 None 20Dec2010 1336 mixed 500 686 200 1 29 4.19381208786 False L 8 z 0 624 1 2 366 3524 4668 10589
vs12 benlakhal 2 None 20Dec2010 1336 mixed 500 458 200 1 30 3.25250292015 False X 8 z 0 542 9 4 486 4393 3281 5280
vs12 benlakhal 2 None 20Dec2010 1336 mixed 500 609 200 1 31 3.41018239782 False L 2 a 1 729 9 2 576 1864 977 2908
vs12 benlakhal 2 None 20Dec2010 1336 mixed 500 471 200 1 32 1.29592843938 True X 2 z 1 667 9 1 500 2107 1306 3021
vs12 benlakhal 2 None 20Dec2010 1336 mixed 500 558 200 1 33 4.72974469546 False L 8 z 0 857 9 4 518 2361 1593 3461
vs12 benlakhal 2 None 20Dec2010 1336 mixed 500 501 200 1 34 3.575349387 True X 12 z 1 613 9 0 476 2995 1995 3910
vs12 benlakhal 2 None 20Dec2010 1337 mixed 500 571 200 1 35 2.1310800415 True X 8 z 1 506 9 1 396 2551 1436 3351
vs12 benlakhal 2 None 20Dec2010 1337 mixed 500 524 200 1 36 1.18801956363 True L 8 z 1 628 9 2 502 2250 1192 3405
vs12 benlakhal 2 None 20Dec2010 1337 mixed 500 403 200 1 37 3.23236835668 True X 8 z 1 514 9 2 447 3223 1450 4539
vs12 benlakhal 2 None 20Dec2010 1337 mixed 500 630 200 1 38 4.41078672178 False X 4 a 1 686 9 2 443 1993 2895 3595
vs12 benlakhal 2 None 20Dec2010 1337 mixed 500 409 200 1 39 5.69828851764 True X 4 z 1 513 9 3 501 1535 977 3234
vs12 benlakhal 2 None 20Dec2010 1337 mixed 500 529 200 1 40 1.19313710482 True L 12 z 1 785 10 6 491 5637 4651 6724
vs12 benlakhal 2 None 20Dec2010 1337 mixed 500 698 200 1 41 2.83708565295 True L 2 z 1 656 9 1 500 2364 1234 3649
vs12 benlakhal 2 None 20Dec2010 1337 mixed 500 492 200 1 42 0.655865951537 True L 4 z 1 442 9 2 636 5198 3968 6582
vs12 benlakhal 2 None 20Dec2010 1337 mixed 500 597 200 1 43 5.05631556517 False X 8 z 0 528 9 1 462 2738 1407 3852
vs12 benlakhal 2 None 20Dec2010 1337 mixed 500 552 200 1 44 2.31286984993 True L 2 z 1 514 10 1 540 2390 1346 4064
vs12 benlakhal 2 None 20Dec2010 1338 mixed 500 635 200 1 45 4.68787430711 False L 4 z 0 900 1 1 515 4006 1950 5408
vs12 benlakhal 2 None 20Dec2010 1338 mixed 500 537 200 1 46 2.98593000581 True X 12 z 1 1215 9 2 470 3392 6095 6852
vs12 benlakhal 2 None 20Dec2010 1338 mixed 500 626 200 1 47 5.71749972808 False L 2 a 1 642 1 1 500 5880 4135 7697
vs12 benlakhal 2 None 20Dec2010 1338 mixed 500 490 200 1 48 3.15735229668 True L 8 z 1 669 9 1 461 4267 2838 7639
vs12 benlakhal 2 None 20Dec2010 1340 mixed 500 465 200 2 1 2.42886906637 False X 2 a 1 743 9 1 517 2574 1502 3503
vs12 benlakhal 2 None 20Dec2010 1340 mixed 500 582 200 2 2 4.01077924667 True L 8 z 1 857 9 2 518 3522 2309 5409
vs12 benlakhal 2 None 20Dec2010 1340 mixed 500 446 200 2 3 4.14527443708 False X 2 a 1 671 9 1 422 2207 1464 2993
vs12 benlakhal 2 None 20Dec2010 1340 mixed 500 640 200 2 4 1.37408202244 True X 8 z 1 585 9 2 530 2265 1407 3095
vs12 benlakhal 2 None 20Dec2010 1340 mixed 500 678 200 2 5 3.37976168072 True X 12 z 1 600 9 1 503 2205 1291 3234
vs12 benlakhal 2 None 20Dec2010 1341 mixed 500 544 200 2 6 2.43904363534 False L 12 z 0 928 2 0 378 1851 4265 5666
vs12 benlakhal 2 None 20Dec2010 1341 mixed 500 448 200 2 7 1.35739799189 False L 12 z 0 656 9 5 460 2021 1164 2907
vs12 benlakhal 2 None 20Dec2010 1341 mixed 500 448 200 2 8 2.20818443451 True X 4 z 1 610 9 4 547 1335 6628 8424
vs12 benlakhal 2 None 20Dec2010 1341 mixed 500 529 200 2 9 5.75393396676 True L 2 z 1 585 10 2 658 2708 2008 3480
vs12 benlakhal 2 None 20Dec2010 1341 mixed 500 592 200 2 10 1.88772278889 False X 12 z 0 713 9 5 522 1945 1360 2946
vs12 benlakhal 2 None 20Dec2010 1341 mixed 500 475 200 2 11 1.68794598023 False L 4 a 1 785 9 3 511 1836 1035 2964
vs12 benlakhal 2 None 20Dec2010 1341 mixed 500 624 200 2 12 2.11216119689 False X 2 a 1 643 9 2 531 2422 1636 3494
vs12 benlakhal 2 None 20Dec2010 1341 mixed 500 555 200 2 13 4.4756690336 True X 2 z 1 615 9 1 621 2220 1376 3349
vs12 benlakhal 2 None 20Dec2010 1341 mixed 500 563 200 2 14 0.0186333554602 False L 12 z 0 728 10 2 523 2866 1794 3647
vs12 benlakhal 2 None 20Dec2010 1341 mixed 500 560 200 2 15 4.23337158583 True L 12 z 1 585 4 3 496 3338 1523 4711
vs12 benlakhal 2 None 20Dec2010 1342 mixed 500 529 200 2 16 3.14285692082 True X 12 z 1 570 9 0 460 3095 1865 3909
vs12 benlakhal 2 None 20Dec2010 1342 mixed 500 594 200 2 17 3.05106200781 False L 4 a 1 628 1 2 441 3019 2377 3792
vs12 benlakhal 2 None 20Dec2010 1342 mixed 500 415 200 2 18 5.63675212437 False X 8 a 1 714 3 2 462 2008 2608 3881
vs12 benlakhal 2 None 20Dec2010 1342 mixed 500 413 200 2 19 3.77510776655 True L 4 z 1 514 9 1 452 2922 1364 5411
vs12 benlakhal 2 None 20Dec2010 1342 mixed 500 688 200 2 20 2.58162266666 True L 4 z 1 798 10 2 430 2336 1221 3322
vs12 benlakhal 2 None 20Dec2010 1342 mixed 500 644 200 2 21 5.61096850068 True L 8 z 1 499 9 4 492 2372 1493 3115
vs12 benlakhal 2 None 20Dec2010 1342 mixed 500 462 200 2 22 4.525478986 False X 4 z 0 499 9 1 496 2392 1392 3780
vs12 benlakhal 2 None 20Dec2010 1342 mixed 500 617 200 2 23 5.51164014255 True X 4 z 1 510 10 2 505 2264 1349 3222
vs12 benlakhal 2 None 20Dec2010 1342 mixed 500 594 200 2 24 5.52629558733 True L 2 z 1 499 9 2 477 2651 1693 6535
vs12 benlakhal 2 None 20Dec2010 1342 mixed 500 498 200 2 25 4.34226209113 True L 12 z 1 471 9 2 508 4809 3924 6054
vs12 benlakhal 2 None 20Dec2010 1343 mixed 500 510 200 2 26 3.13091691204 True X 8 z 1 514 9 1 471 2422 1293 4248
vs12 benlakhal 2 None 20Dec2010 1343 mixed 500 530 200 2 27 4.36528152616 True X 4 z 1 557 10 2 445 2164 1292 2950
vs12 benlakhal 2 None 20Dec2010 1343 mixed 500 616 200 2 28 2.59697717456 False L 2 z 0 582 9 2 505 2452 1365 3352
vs12 benlakhal 2 None 20Dec2010 1343 mixed 500 539 200 2 29 1.69570386219 True L 4 z 1 628 9 2 503 3721 2819 5264
vs12 benlakhal 2 None 20Dec2010 1343 mixed 500 607 200 2 30 0.52600905184 False L 8 z 0 485 10 3 495 2895 1665 4580
vs12 benlakhal 2 None 20Dec2010 1343 mixed 500 672 200 2 31 3.41512439147 False L 2 a 1 742 9 1 497 2065 1336 3366
vs12 benlakhal 2 None 20Dec2010 1343 mixed 500 424 200 2 32 1.60196351458 True X 2 z 1 570 9 1 427 1993 1321 4252
vs12 benlakhal 2 None 20Dec2010 1343 mixed 500 463 200 2 33 3.53751272198 False L 4 a 1 699 1 1 491 1946 3218 4062
vs12 benlakhal 2 None 20Dec2010 1343 mixed 500 410 200 2 34 4.84879645853 False X 8 z 0 727 1 2 501 2379 1808 2922
vs12 benlakhal 2 None 20Dec2010 1343 mixed 500 479 200 2 35 4.85092566717 False L 8 z 0 599 4 2 465 3324 1836 4252
vs12 benlakhal 2 None 20Dec2010 1343 mixed 500 651 200 2 36 1.17477019532 False X 8 z 0 513 4 3 456 2547 3247 4333
vs12 benlakhal 2 None 20Dec2010 1344 mixed 500 684 200 2 37 4.61031833648 True X 2 z 1 585 10 1 418 9416 1235 16518
vs12 benlakhal 2 None 20Dec2010 1344 mixed 500 631 200 2 38 2.37806338728 True L 2 z 1 527 10 1 435 2175 1503 3448
vs12 benlakhal 2 None 20Dec2010 1344 mixed 500 471 200 2 39 3.05917881473 False X 12 z 0 600 9 3 508 1892 1136 3207
vs12 benlakhal 2 None 20Dec2010 1344 mixed 500 574 200 2 40 2.26433343697 False X 12 z 0 499 8 3 431 1749 1035 2664
vs12 benlakhal 2 None 20Dec2010 1344 mixed 500 518 200 2 41 3.76453954162 False X 4 z 0 556 9 1 521 2231 1407 5807
vs12 benlakhal 2 None 20Dec2010 1344 mixed 500 649 200 2 42 4.9374192867 True L 8 z 1 513 9 3 515 5424 4451 6553
vs12 benlakhal 2 None 20Dec2010 1344 mixed 500 624 200 2 43 5.85245268923 False X 4 z 0 486 9 2 505 1192 2030 2846
vs12 benlakhal 2 None 20Dec2010 1345 mixed 500 604 200 2 44 3.0474682745 False L 8 z 0 484 9 3 496 1665 8627 9656
vs12 benlakhal 2 None 20Dec2010 1345 mixed 500 506 200 2 45 2.9435048459 False L 2 z 0 485 9 0 445 2320 1550 3993
vs12 benlakhal 2 None 20Dec2010 1345 mixed 500 482 200 2 46 4.93104412174 True L 12 z 1 585 0 2 477 6239 7683 8354
vs12 benlakhal 2 None 20Dec2010 1345 mixed 500 584 200 2 47 0.837628512221 True X 12 z 1 470 10 1 450 2476 1536 3377
vs12 benlakhal 2 None 20Dec2010 1345 mixed 500 669 200 2 48 5.87575505689 True X 8 z 1 471 9 1 418 1821 992 2722
vs12 benlakhal 2 None 20Dec2010 1346 mixed 500 449 200 3 1 4.21028453381 False X 2 z 0 613 9 2 508 2476 1460 3462
vs12 benlakhal 2 None 20Dec2010 1346 mixed 500 612 200 3 2 4.25501559255 True L 8 z 1 499 2 2 471 2636 1607 3422
vs12 benlakhal 2 None 20Dec2010 1346 mixed 500 653 200 3 3 1.55685839136 False X 2 z 0 600 9 1 480 1335 2493 3266
vs12 benlakhal 2 None 20Dec2010 1346 mixed 500 662 200 3 4 3.06844471089 True L 2 z 1 600 9 2 495 1934 1322 2978
vs12 benlakhal 2 None 20Dec2010 1346 mixed 500 623 200 3 5 4.85438810278 True X 8 z 1 499 9 2 448 906 2021 2736
vs12 benlakhal 2 None 20Dec2010 1346 mixed 500 424 200 3 6 3.81429041289 True X 4 z 1 628 9 1 506 945 2161 3776
vs12 benlakhal 2 None 20Dec2010 1346 mixed 500 520 200 3 7 0.838201048748 False X 8 z 0 656 9 2 470 2648 1421 4150
vs12 benlakhal 2 None 20Dec2010 1346 mixed 500 558 200 3 8 1.81419151166 True L 8 z 1 585 9 3 516 1364 2465 3608
vs12 benlakhal 2 None 20Dec2010 1346 mixed 500 418 200 3 9 1.01050751941 True L 8 z 1 552 9 3 486 892 1692 2693
vs12 benlakhal 2 None 20Dec2010 1346 mixed 500 568 200 3 10 5.54959821937 True X 12 z 1 485 9 1 401 2665 1893 3719
vs12 benlakhal 2 None 20Dec2010 1347 mixed 500 633 200 3 11 3.79951056525 False L 4 a 1 756 1 1 443 3366 1292 5165
vs12 benlakhal 2 None 20Dec2010 1347 mixed 500 695 200 3 12 4.69212760042 True X 12 z 1 485 9 1 408 1336 2508 3566
vs12 benlakhal 2 None 20Dec2010 1347 mixed 500 480 200 3 13 3.97769414334 False X 4 z 0 628 1 1 407 2688 1745 3632
vs12 benlakhal 2 None 20Dec2010 1347 mixed 500 695 200 3 14 1.96586360811 True X 2 z 1 513 10 1 552 1806 1177 2879
vs12 benlakhal 2 None 20Dec2010 1347 mixed 500 406 200 3 15 5.19866734768 True L 2 z 1 499 10 1 640 3581 2809 4638
vs12 benlakhal 2 None 20Dec2010 1347 mixed 500 547 200 3 16 0.743929744643 False L 12 z 0 670 9 1 486 2535 1248 3579
vs12 benlakhal 2 None 20Dec2010 1347 mixed 500 651 200 3 17 4.19964393823 True L 12 z 1 828 9 2 703 3362 2366 4291
vs12 benlakhal 2 None 20Dec2010 1347 mixed 500 472 200 3 18 4.07422034453 False L 8 z 0 484 9 2 523 2179 1307 3323
vs12 benlakhal 2 None 20Dec2010 1347 mixed 500 578 200 3 19 1.79577021369 True L 4 z 1 652 8 2 498 2936 1392 4724
vs12 benlakhal 2 None 20Dec2010 1347 mixed 500 526 200 3 20 5.83528076714 False X 4 z 0 514 9 2 493 2005 2735 5238
vs12 benlakhal 2 None 20Dec2010 1348 mixed 500 559 200 3 21 0.435130571451 False X 8 z 0 513 9 2 461 1206 3979 4908
vs12 benlakhal 2 None 20Dec2010 1348 mixed 500 618 200 3 22 1.80444624914 False X 8 z 0 642 1 1 482 3037 2337 3991
vs12 benlakhal 2 None 20Dec2010 1348 mixed 500 619 200 3 23 3.90911492351 True L 4 z 1 743 10 1 516 2781 1522 3795
vs12 benlakhal 2 None 20Dec2010 1348 mixed 500 600 200 3 24 1.78493986329 False L 2 a 1 667 9 2 530 2407 1621 3522
vs12 benlakhal 2 None 20Dec2010 1348 mixed 500 676 200 3 25 5.17266423941 True L 4 z 1 628 9 2 415 2377 1506 6182
vs12 benlakhal 2 None 20Dec2010 1348 mixed 500 689 200 3 26 5.04292652038 False L 4 z 0 585 9 1 462 3792 1804 4607
vs12 benlakhal 2 None 20Dec2010 1348 mixed 500 448 200 3 27 3.43413599083 True L 2 z 1 614 10 1 475 2364 1722 3636
vs12 benlakhal 2 None 20Dec2010 1348 mixed 500 507 200 3 28 2.1873120445 True X 12 z 1 556 10 1 468 2937 1694 4281
vs12 benlakhal 2 None 20Dec2010 1348 mixed 500 644 200 3 29 4.71417866378 True X 8 z 1 495 10 2 447 1364 4983 5740
vs12 benlakhal 2 None 20Dec2010 1348 mixed 500 504 200 3 30 3.6637990995 False X 2 a 1 556 9 1 472 1847 1275 3335
vs12 benlakhal 2 None 20Dec2010 1349 mixed 500 525 200 3 31 0.642088671907 False L 8 a 1 713 1 1 738 3218 2651 4362
vs12 benlakhal 2 None 20Dec2010 1349 mixed 500 436 200 3 32 0.981703990617 False L 8 a 1 671 7 2 608 3624 1737 7611
vs12 benlakhal 2 None 20Dec2010 1349 mixed 500 549 200 3 33 1.15899098454 True X 4 z 1 514 9 1 510 2164 1092 3093
vs12 benlakhal 2 None 20Dec2010 1349 mixed 500 619 200 3 34 0.823872317318 True L 12 z 1 571 9 1 471 2150 1336 3294
vs12 benlakhal 2 None 20Dec2010 1349 mixed 500 554 200 3 35 2.78325222816 True X 2 z 1 600 9 1 470 2590 1789 3219
vs12 benlakhal 2 None 20Dec2010 1349 mixed 500 605 200 3 36 2.77417614919 False X 4 z 0 728 9 2 531 2193 1250 2908
vs12 benlakhal 2 None 20Dec2010 1349 mixed 500 596 200 3 37 1.86187624809 True X 8 z 1 541 10 3 513 2365 1436 3423
vs12 benlakhal 2 None 20Dec2010 1349 mixed 500 636 200 3 38 4.19987272258 False L 2 a 1 599 9 2 481 2518 1851 3319
vs12 benlakhal 2 None 20Dec2010 1349 mixed 500 407 200 3 39 0.967333620862 False X 12 z 0 728 9 1 520 2179 1179 3079
vs12 benlakhal 2 None 20Dec2010 1349 mixed 500 574 200 3 40 1.89606644297 True X 4 z 1 542 10 2 477 2291 1033 3478
vs12 benlakhal 2 None 20Dec2010 1349 mixed 500 468 200 3 41 3.92806043166 True L 12 z 1 555 9 2 440 2378 1506 3347
vs12 benlakhal 2 None 20Dec2010 1350 mixed 500 660 200 3 42 0.90552272352 False X 12 z 0 599 9 2 513 3165 2266 4166
vs12 benlakhal 2 None 20Dec2010 1350 mixed 500 467 200 3 43 5.86388634621 False L 4 a 1 768 9 2 492 2780 1908 4396
vs12 benlakhal 2 None 20Dec2010 1350 mixed 500 530 200 3 44 0.723551600005 False L 12 z 0 927 9 3 503 1416 2403 3188
vs12 benlakhal 2 None 20Dec2010 1350 mixed 500 452 200 3 45 4.2332026957 True X 2 z 1 700 9 2 460 2194 1307 3137
vs12 benlakhal 2 None 20Dec2010 1350 mixed 500 621 200 3 46 0.237943867881 False L 12 z 0 671 9 3 437 2308 1437 6342
vs12 benlakhal 2 None 20Dec2010 1350 mixed 500 664 200 3 47 1.95540629118 False X 12 z 0 613 9 3 518 3782 5900 6812
vs12 benlakhal 2 None 20Dec2010 1350 mixed 500 442 200 3 48 3.74342745586 False L 2 a 1 942 9 2 517 3610 2694 4596
vs12 benlakhal 2 None 20Dec2010 1354 mixed 500 553 200 4 1 5.38487055963 False L 8 z 0 714 10 2 428 2680 1966 3952
vs12 benlakhal 2 None 20Dec2010 1354 mixed 500 481 200 4 2 5.93566142656 False X 12 z 0 528 0 1 597 1966 2622 3952
vs12 benlakhal 2 None 20Dec2010 1354 mixed 500 419 200 4 3 3.52428123937 False L 2 a 1 684 9 2 645 1932 1102 2975
vs12 benlakhal 2 None 20Dec2010 1354 mixed 500 599 200 4 4 2.34733583868 False L 12 a 1 785 1 1 401 1820 1207 2507
vs12 benlakhal 2 None 20Dec2010 1355 mixed 500 457 200 4 5 2.76243606594 False X 4 a 1 613 1 1 361 1821 1178 2536
vs12 benlakhal 2 None 20Dec2010 1355 mixed 500 433 200 4 6 1.98787734862 False X 12 z 0 828 2 2 466 2824 3834 4919
vs12 benlakhal 2 None 20Dec2010 1355 mixed 500 694 200 4 7 0.125424546007 True L 2 z 1 585 9 1 485 1621 1048 2635
vs12 benlakhal 2 None 20Dec2010 1355 mixed 500 547 200 4 8 5.03257595486 True L 8 z 1 912 10 2 497 2694 1865 3995
vs12 benlakhal 2 None 20Dec2010 1355 mixed 500 676 200 4 9 3.33923195642 True X 2 z 1 814 10 1 796 1988 1378 2746
vs12 benlakhal 2 None 20Dec2010 1355 mixed 500 665 200 4 10 1.61312933406 True X 2 z 1 571 9 2 523 2279 1464 3394
vs12 benlakhal 2 None 20Dec2010 1355 mixed 500 513 200 4 11 0.258852324554 True X 8 z 1 526 9 4 515 1708 3353 4238
vs12 benlakhal 2 None 20Dec2010 1355 mixed 500 504 200 4 12 3.68597767854 True L 2 z 1 613 9 1 560 2116 1263 4247
vs12 benlakhal 2 None 20Dec2010 1355 mixed 500 638 200 4 13 3.61270669102 False L 8 a 1 771 9 4 608 1436 5396 6282
vs12 benlakhal 2 None 20Dec2010 1355 mixed 500 502 200 4 14 2.65491101645 False X 8 a 1 742 9 4 502 1550 2408 3504
vs12 benlakhal 2 None 20Dec2010 1356 mixed 500 682 200 4 15 2.94961744233 False L 4 a 1 727 9 2 477 1892 2878 3622
vs12 benlakhal 2 None 20Dec2010 1356 mixed 500 464 200 4 16 2.70422840456 False X 12 a 1 614 1 3 500 1705 1047 2590
vs12 benlakhal 2 None 20Dec2010 1356 mixed 500 614 200 4 17 1.18119920888 True X 2 z 1 728 9 2 625 1735 991 2807
vs12 benlakhal 2 None 20Dec2010 1356 mixed 500 688 200 4 18 1.15730592515 True X 12 z 1 441 8 1 512 3008 1995 3751
vs12 benlakhal 2 None 20Dec2010 1356 mixed 500 440 200 4 19 1.14695809422 False X 8 z 0 815 4 1 661 2661 1546 3519
vs12 benlakhal 2 None 20Dec2010 1356 mixed 500 696 200 4 20 5.44820975675 True L 12 z 1 613 10 1 557 2551 1365 3524
vs12 benlakhal 2 None 20Dec2010 1356 mixed 500 615 200 4 21 5.82080501271 True L 12 z 1 585 10 1 483 5426 2522 10027
vs12 benlakhal 2 None 20Dec2010 1356 mixed 500 447 200 4 22 4.6938827938 True L 2 a 0 600 9 2 515 2493 1707 3619
vs12 benlakhal 2 None 20Dec2010 1356 mixed 500 549 200 4 23 4.6995022284 True X 4 z 1 514 9 1 498 3381 2666 4353
vs12 benlakhal 2 None 20Dec2010 1357 mixed 500 646 200 4 24 1.80989291718 True L 4 z 1 656 9 2 523 10444 9414 12832
vs12 benlakhal 2 None 20Dec2010 1357 mixed 500 582 200 4 25 6.21130766318 False X 4 z 0 585 9 0 487 2723 1178 4296
vs12 benlakhal 2 None 20Dec2010 1357 mixed 500 422 200 4 26 3.66245908652 False L 12 z 0 613 9 2 466 1007 2062 5022
vs12 benlakhal 2 None 20Dec2010 1357 mixed 500 514 200 4 27 4.67902697143 False L 4 a 1 942 9 3 498 2635 1349 3878
vs12 benlakhal 2 None 20Dec2010 1357 mixed 500 440 200 4 28 6.17506935964 True X 12 z 1 542 9 2 543 2165 1279 3065
vs12 benlakhal 2 None 20Dec2010 1357 mixed 500 492 200 4 29 3.88920118199 False L 2 a 1 714 9 1 410 2147 1475 3234
vs12 benlakhal 2 None 20Dec2010 1357 mixed 500 603 200 4 30 4.27715291353 False X 8 a 1 799 1 1 681 2136 1479 2966
vs12 benlakhal 2 None 20Dec2010 1357 mixed 500 673 200 4 31 4.59177328611 True L 4 z 1 628 10 1 555 3037 2236 3838
vs12 benlakhal 2 None 20Dec2010 1357 mixed 500 540 200 4 32 0.813994284404 True X 12 z 1 514 9 1 517 2088 1131 3018
vs12 benlakhal 2 None 20Dec2010 1357 mixed 500 478 200 4 33 5.92660481201 True L 8 z 1 514 9 1 680 1906 1006 2864
vs12 benlakhal 2 None 20Dec2010 1357 mixed 500 445 200 4 34 1.25855680771 True L 12 z 1 628 1 2 555 1664 2651 3480
vs12 benlakhal 2 None 20Dec2010 1358 mixed 500 583 200 4 35 0.799292301083 True L 8 z 1 843 1 0 561 2332 1450 3376
vs12 benlakhal 2 None 20Dec2010 1358 mixed 500 449 200 4 36 1.41508328306 False X 2 a 1 686 9 1 602 1922 1250 2794
vs12 benlakhal 2 None 20Dec2010 1358 mixed 500 571 200 4 37 6.00468432691 False X 2 a 1 695 2 0 693 4196 3410 5226
vs12 benlakhal 2 None 20Dec2010 1358 mixed 500 599 200 4 38 3.30321190046 False L 12 z 0 686 9 2 605 2635 1577 4909
vs12 benlakhal 2 None 20Dec2010 1358 mixed 500 645 200 4 39 1.82611471437 True X 8 z 1 700 9 3 657 1989 6138 8641
vs12 benlakhal 2 None 20Dec2010 1358 mixed 500 420 200 4 40 2.53814183666 True L 4 a 0 686 1 0 531 1835 1136 3137
vs12 benlakhal 2 None 20Dec2010 1358 mixed 500 519 200 4 41 3.96043552131 False L 4 a 1 743 10 3 582 2432 1393 3804
vs12 benlakhal 2 None 20Dec2010 1358 mixed 500 500 200 4 42 4.44548662023 False X 2 a 1 743 0 1 545 1421 4124 5309
vs12 benlakhal 2 None 20Dec2010 1358 mixed 500 652 200 4 43 2.06473099165 False X 4 a 1 671 1 2 603 1422 2593 4310
vs12 benlakhal 2 None 20Dec2010 1358 mixed 500 629 200 4 44 6.23164481234 True X 4 z 1 470 10 2 490 2450 1263 3922
vs12 benlakhal 2 None 20Dec2010 1359 mixed 500 491 200 4 45 2.48671470107 False L 2 a 1 729 10 2 551 3064 1462 4837
vs12 benlakhal 2 None 20Dec2010 1359 mixed 500 479 200 4 46 4.48759369897 True X 8 z 1 570 9 2 501 2673 1679 5849
vs12 benlakhal 2 None 20Dec2010 1359 mixed 500 466 200 4 47 3.30803346456 True X 4 z 1 571 9 1 481 1635 763 2479
vs12 benlakhal 2 None 20Dec2010 1359 mixed 500 612 200 4 48 2.14921076119 False L 8 a 1 685 4 0 567 2336 1250 2994
vs12 benlakhal 2 None 20Dec2010 1401 mixed 500 578 200 5 1 6.2092864995 False L 8 a 1 614 9 1 463 2633 1392 3333
vs12 benlakhal 2 None 20Dec2010 1401 mixed 500 598 200 5 2 5.37723967469 False L 12 a 1 570 1 2 647 2893 2294 4352
vs12 benlakhal 2 None 20Dec2010 1401 mixed 500 602 200 5 3 3.2123115308 True L 2 a 0 785 1 1 477 2250 1463 3092
vs12 benlakhal 2 None 20Dec2010 1401 mixed 500 668 200 5 4 3.35952899594 False L 8 z 0 514 3 2 420 2089 791 2731
vs12 benlakhal 2 None 20Dec2010 1401 mixed 500 541 200 5 5 0.520923549577 True X 12 z 1 571 9 5 547 2293 1049 3237
vs12 benlakhal 2 None 20Dec2010 1401 mixed 500 621 200 5 6 1.56819688804 False X 8 a 1 725 1 2 555 1135 1779 2893
vs12 benlakhal 2 None 20Dec2010 1401 mixed 500 609 200 5 7 4.81533778182 False X 8 a 1 785 1 2 653 1422 2051 3832
vs12 benlakhal 2 None 20Dec2010 1402 mixed 500 400 200 5 8 0.159959368617 True L 8 z 1 914 9 1 535 2136 1364 3980
vs12 benlakhal 2 None 20Dec2010 1402 mixed 500 506 200 5 9 3.96580259629 True L 12 z 1 585 9 2 535 4097 2981 5454
vs12 benlakhal 2 None 20Dec2010 1402 mixed 500 540 200 5 10 5.33241584156 True X 2 z 1 519 10 2 552 2422 1306 3508
vs12 benlakhal 2 None 20Dec2010 1402 mixed 500 417 200 5 11 5.34138921432 False L 8 z 0 642 9 2 511 2180 4035 4636
vs12 benlakhal 2 None 20Dec2010 1402 mixed 500 629 200 5 12 5.48756677719 False L 4 a 1 814 4 1 536 2822 1636 3809
vs12 benlakhal 2 None 20Dec2010 1402 mixed 500 593 200 5 13 0.600239080356 False L 2 a 1 757 2 1 532 1621 863 2464
vs12 benlakhal 2 None 20Dec2010 1402 mixed 500 437 200 5 14 1.36642160801 False X 12 a 1 899 1 3 575 1349 1919 2533
vs12 benlakhal 2 None 20Dec2010 1402 mixed 500 634 200 5 15 1.47237340856 True L 8 z 1 613 9 1 712 2536 1721 3694
vs12 benlakhal 2 None 20Dec2010 1402 mixed 500 525 200 5 16 2.43465994772 True L 4 z 1 524 9 1 638 2250 1235 3637
vs12 benlakhal 2 None 20Dec2010 1402 mixed 500 597 200 5 17 0.451201864774 True X 8 z 1 485 9 1 498 3092 1494 4021
vs12 benlakhal 2 None 20Dec2010 1402 mixed 500 516 200 5 18 4.00989053484 True L 12 z 1 572 9 2 657 2680 1536 3737
vs12 benlakhal 2 None 20Dec2010 1403 mixed 500 429 200 5 19 5.51034724371 False L 4 z 0 600 10 1 668 2308 1264 3309
vs12 benlakhal 2 None 20Dec2010 1403 mixed 500 567 200 5 20 0.97498192487 True X 2 z 1 513 9 1 603 1821 1121 2744
vs12 benlakhal 2 None 20Dec2010 1403 mixed 500 513 200 5 21 0.975197386249 True X 4 z 1 499 10 2 608 1606 848 2549
vs12 benlakhal 2 None 20Dec2010 1403 mixed 500 432 200 5 22 1.64915790188 False X 12 a 1 628 9 3 593 2020 1021 2949
vs12 benlakhal 2 None 20Dec2010 1403 mixed 500 463 200 5 23 4.35786609608 True L 2 a 0 670 9 1 756 2479 1778 4438
vs12 benlakhal 2 None 20Dec2010 1403 mixed 500 486 200 5 24 6.0422305385 True X 8 z 1 542 10 1 575 3109 1621 5440
vs12 benlakhal 2 None 20Dec2010 1403 mixed 500 522 200 5 25 1.43321340876 False X 12 z 0 756 8 1 662 2622 1708 4167
vs12 benlakhal 2 None 20Dec2010 1403 mixed 500 575 200 5 26 1.40470841667 True X 4 z 1 512 9 1 602 1802 977 3260
vs12 benlakhal 2 None 20Dec2010 1403 mixed 500 445 200 5 27 0.259286777652 False X 4 a 1 700 9 3 645 3423 1907 4479
vs12 benlakhal 2 None 20Dec2010 1403 mixed 500 506 200 5 28 2.39788470293 False L 2 a 1 670 10 1 618 1577 977 2935
vs12 benlakhal 2 None 20Dec2010 1403 mixed 500 489 200 5 29 0.228016315956 False L 12 a 1 742 9 2 560 6582 7796 8553
vs12 benlakhal 2 None 20Dec2010 1404 mixed 500 405 200 5 30 2.11610452706 False L 2 a 1 585 9 2 533 1536 1006 3338
vs12 benlakhal 2 None 20Dec2010 1404 mixed 500 475 200 5 31 1.63164304579 True X 4 z 1 499 9 1 610 2262 1178 3062
vs12 benlakhal 2 None 20Dec2010 1404 mixed 500 689 200 5 32 3.8776474898 True L 8 a 0 684 2 2 722 2551 3466 4395
vs12 benlakhal 2 None 20Dec2010 1404 mixed 500 700 200 5 33 0.856678194024 False X 2 a 1 727 5 0 557 2566 1135 3794
vs12 benlakhal 2 None 20Dec2010 1404 mixed 500 694 200 5 34 2.95517902037 False X 2 a 1 571 9 2 606 1875 1175 2676
vs12 benlakhal 2 None 20Dec2010 1404 mixed 500 471 200 5 35 3.95271495911 False L 12 a 1 671 1 3 597 1436 2165 3251
vs12 benlakhal 2 None 20Dec2010 1404 mixed 500 534 200 5 36 1.56598788964 True X 12 z 1 699 9 1 565 2293 1408 4768
vs12 benlakhal 2 None 20Dec2010 1404 mixed 500 551 200 5 37 3.52828048436 False L 4 z 0 1026 10 2 555 2336 1450 3394
vs12 benlakhal 2 None 20Dec2010 1404 mixed 500 551 200 5 38 3.73281657722 False X 8 z 0 614 9 7 503 1721 1165 3106
vs12 benlakhal 2 None 20Dec2010 1404 mixed 500 435 200 5 39 0.274283419362 True L 4 z 1 671 9 1 628 2093 991 3022
vs12 benlakhal 2 None 20Dec2010 1404 mixed 500 423 200 5 40 5.45109771437 True L 2 z 1 600 9 1 722 2288 1244 3175
vs12 benlakhal 2 None 20Dec2010 1405 mixed 500 494 200 5 41 4.98964407102 False X 4 z 0 786 9 2 486 1507 3051 4535
vs12 benlakhal 2 None 20Dec2010 1405 mixed 500 493 200 5 42 5.47032899095 True X 8 z 1 642 9 1 607 2337 1150 4711
vs12 benlakhal 2 None 20Dec2010 1405 mixed 500 564 200 5 43 5.91954896363 False X 2 a 1 700 0 1 588 1406 2436 3637
vs12 benlakhal 2 None 20Dec2010 1405 mixed 500 660 200 5 44 0.270202239902 True X 12 z 1 513 9 3 608 2475 1646 4105
vs12 benlakhal 2 None 20Dec2010 1405 mixed 500 505 200 5 45 5.41158465607 True X 2 z 1 485 9 1 623 1792 1049 4351
vs12 benlakhal 2 None 20Dec2010 1405 mixed 500 665 200 5 46 4.30204152886 False X 4 z 0 757 4 3 686 2823 1365 3996
vs12 benlakhal 2 None 20Dec2010 1405 mixed 500 416 200 5 47 1.6272495323 True L 4 z 1 628 9 1 498 1779 864 2908
vs12 benlakhal 2 None 20Dec2010 1405 mixed 500 664 200 5 48 2.02635032356 True L 12 z 1 514 7 1 636 1864 1050 3335
vs12 benlakhal 2 None 20Dec2010 1406 mixed 500 599 200 6 1 1.47528830013 False L 12 z 0 799 9 1 531 4135 2166 5465
vs12 benlakhal 2 None 20Dec2010 1406 mixed 500 523 200 6 2 3.00091332069 False X 2 z 0 542 9 1 532 2007 1435 3894
vs12 benlakhal 2 None 20Dec2010 1406 mixed 500 618 200 6 3 4.06720210018 False X 4 z 0 528 2 1 531 2279 1091 3065
vs12 benlakhal 2 None 20Dec2010 1406 mixed 500 478 200 6 4 3.19753077881 True L 2 a 0 686 1 1 575 5752 6510 7597
vs12 benlakhal 2 None 20Dec2010 1406 mixed 500 595 200 6 5 6.2463205991 False X 8 z 0 456 9 2 577 1577 2878 3593
vs12 benlakhal 2 None 20Dec2010 1406 mixed 500 620 200 6 6 0.332184979214 True X 12 z 1 499 9 3 535 1621 950 2637
vs12 benlakhal 2 None 20Dec2010 1407 mixed 500 613 200 6 7 2.05992659176 True X 2 z 1 485 9 1 668 1936 978 2779
vs12 benlakhal 2 None 20Dec2010 1407 mixed 500 546 200 6 8 0.599845904899 True L 2 z 1 499 9 1 618 3276 2165 4449
vs12 benlakhal 2 None 20Dec2010 1407 mixed 500 449 200 6 9 4.55803743875 True X 12 z 1 485 9 1 535 2966 1751 4339
vs12 benlakhal 2 None 20Dec2010 1407 mixed 500 569 200 6 10 1.72625537569 False L 4 z 0 528 8 2 508 1835 848 2650
vs12 benlakhal 2 None 20Dec2010 1407 mixed 500 663 200 6 11 0.211910370342 False X 4 z 0 471 7 1 678 4320 1593 2833
vs12 benlakhal 2 None 20Dec2010 1407 mixed 500 586 200 6 12 4.97058679073 True X 2 z 1 456 9 1 706 2220 848 2950
vs12 benlakhal 2 None 20Dec2010 1407 mixed 500 565 200 6 13 5.32390872723 True X 8 z 1 528 9 1 612 3380 2123 5111
vs12 benlakhal 2 None 20Dec2010 1407 mixed 500 662 200 6 14 2.27176830854 True X 8 z 1 500 9 2 595 2188 1245 3747
vs12 benlakhal 2 None 20Dec2010 1407 mixed 500 552 200 6 15 3.68189415169 False L 2 a 1 600 9 1 616 2079 1320 3406
vs12 benlakhal 2 None 20Dec2010 1407 mixed 500 509 200 6 16 5.49693448087 True L 8 z 1 685 9 1 565 2579 1635 4051
vs12 benlakhal 2 None 20Dec2010 1407 mixed 500 452 200 6 17 4.76788837108 True L 4 z 1 652 10 2 605 1978 1135 2922
vs12 benlakhal 2 None 20Dec2010 1408 mixed 500 691 200 6 18 4.05132862784 False L 8 a 1 943 9 3 553 2405 1465 5466
vs12 benlakhal 2 None 20Dec2010 1408 mixed 500 572 200 6 19 2.70790939102 False L 4 a 1 742 9 2 582 3334 5522 6294
vs12 benlakhal 2 None 20Dec2010 1408 mixed 500 480 200 6 20 1.01170956054 True X 8 z 1 529 9 3 548 1520 850 2407
vs12 benlakhal 2 None 20Dec2010 1408 mixed 500 693 200 6 21 3.81041995118 True X 4 z 1 542 9 1 717 1607 677 2593
vs12 benlakhal 2 None 20Dec2010 1408 mixed 500 630 200 6 22 5.00802834713 True L 12 z 1 585 9 2 535 1721 950 2531
vs12 benlakhal 2 None 20Dec2010 1408 mixed 500 512 200 6 23 1.9977959116 True L 8 z 1 499 9 2 685 1621 935 2637
vs12 benlakhal 2 None 20Dec2010 1408 mixed 500 456 200 6 24 2.18210390178 False X 12 z 0 571 9 4 687 2420 1493 5925
vs12 benlakhal 2 None 20Dec2010 1408 mixed 500 626 200 6 25 2.80215708044 True L 12 z 1 1616 9 3 500 1489 2848 3505
vs12 benlakhal 2 None 20Dec2010 1408 mixed 500 631 200 6 26 0.364805477088 False X 2 a 1 757 9 1 608 1563 934 2377
vs12 benlakhal 2 None 20Dec2010 1408 mixed 500 697 200 6 27 3.58150181267 False X 12 z 0 585 9 2 676 1793 1107 2536
vs12 benlakhal 2 None 20Dec2010 1408 mixed 500 542 200 6 28 6.05963479376 False L 12 z 0 499 8 3 640 2365 1537 3461
vs12 benlakhal 2 None 20Dec2010 1409 mixed 500 449 200 6 29 4.27128728351 False L 4 a 1 771 9 2 606 2309 4497 6840
vs12 benlakhal 2 None 20Dec2010 1409 mixed 500 593 200 6 30 5.50002881566 True L 12 z 1 543 9 2 677 2450 1364 4563
vs12 benlakhal 2 None 20Dec2010 1409 mixed 500 689 200 6 31 4.54508538731 True L 8 a 0 1873 9 1 477 2337 1479 3194
vs12 benlakhal 2 None 20Dec2010 1409 mixed 500 677 200 6 32 4.66390353068 False X 8 z 0 652 2 2 606 2049 834 2792
vs12 benlakhal 2 None 20Dec2010 1409 mixed 500 643 200 6 33 2.11174807977 False L 8 z 0 413 2 2 598 1406 707 2321
vs12 benlakhal 2 None 20Dec2010 1409 mixed 500 535 200 6 34 4.11858608202 False L 8 z 0 542 2 3 616 1950 978 2736
vs12 benlakhal 2 None 20Dec2010 1409 mixed 500 649 200 6 35 0.304380140318 True L 2 z 1 598 9 1 547 2319 1406 3091
vs12 benlakhal 2 None 20Dec2010 1409 mixed 500 413 200 6 36 2.54972554881 True X 4 a 0 628 5 2 558 8240 3482 7411
vs12 benlakhal 2 None 20Dec2010 1409 mixed 500 503 200 6 37 5.40944937487 True X 2 z 1 486 9 1 542 2107 1278 3151
vs12 benlakhal 2 None 20Dec2010 1409 mixed 500 638 200 6 38 5.48486462602 False X 12 z 0 570 9 7 543 1308 2924 4296
vs12 benlakhal 2 None 20Dec2010 1410 mixed 500 496 200 6 39 4.73445544005 False L 2 a 1 770 9 1 585 1889 859 3205
vs12 benlakhal 2 None 20Dec2010 1410 mixed 500 624 200 6 40 4.95923775438 False X 2 a 1 686 9 1 625 1678 592 3190
vs12 benlakhal 2 None 20Dec2010 1410 mixed 500 674 200 6 41 2.56912999217 True X 12 z 1 628 9 6 621 2436 1078 3809
vs12 benlakhal 2 None 20Dec2010 1410 mixed 500 419 200 6 42 0.245654723246 False X 8 a 1 643 9 4 592 1591 704 2591
vs12 benlakhal 2 None 20Dec2010 1410 mixed 500 477 200 6 43 3.62350873816 True X 4 z 1 585 9 1 627 1836 806 3238
vs12 benlakhal 2 None 20Dec2010 1410 mixed 500 556 200 6 44 3.0511143574 False L 2 a 1 671 10 1 516 3294 763 6741
vs12 benlakhal 2 None 20Dec2010 1410 mixed 500 525 200 6 45 1.01870623634 False L 12 a 1 743 9 6 613 1692 879 2751
vs12 benlakhal 2 None 20Dec2010 1410 mixed 500 547 200 6 46 0.777471309823 True L 4 a 0 656 9 2 623 1946 792 4449
vs12 benlakhal 2 None 20Dec2010 1410 mixed 500 491 200 6 47 2.70875348982 False X 4 a 1 728 9 2 616 2121 734 3334
vs12 benlakhal 2 None 20Dec2010 1410 mixed 500 627 200 6 48 2.22703971368 True L 4 a 0 729 9 2 616 1663 577 4896
vs12 benlakhal 2 None 20Dec2010 1411 mixed 500 515 200 7 1 3.68912849179 False X 2 a 1 700 9 1 520 1550 949 2679
vs12 benlakhal 2 None 20Dec2010 1411 mixed 500 452 200 7 2 4.09701137673 True L 2 a 0 508 9 1 473 2408 950 3537
vs12 benlakhal 2 None 20Dec2010 1411 mixed 500 459 200 7 3 0.796455202771 True L 4 z 1 557 10 2 586 1664 663 2405
vs12 benlakhal 2 None 20Dec2010 1411 mixed 500 556 200 7 4 3.37318278435 False L 8 z 0 527 9 4 591 1465 2351 4239
vs12 benlakhal 2 None 20Dec2010 1411 mixed 500 526 200 7 5 3.19412336327 False L 8 z 0 699 9 2 602 2189 1288 3618
vs12 benlakhal 2 None 20Dec2010 1411 mixed 500 591 200 7 6 2.49632563383 True X 2 z 1 742 9 1 601 1807 705 2891
vs12 benlakhal 2 None 20Dec2010 1411 mixed 500 514 200 7 7 2.61501118784 True X 2 z 1 457 9 1 533 1650 748 2507
vs12 benlakhal 2 None 20Dec2010 1411 mixed 500 584 200 7 8 5.25707568676 True X 4 z 1 470 9 4 626 2920 1846 4092
vs12 benlakhal 2 None 20Dec2010 1412 mixed 500 428 200 7 9 3.13032416117 True L 2 a 0 699 9 1 730 4063 1250 2322
vs12 benlakhal 2 None 20Dec2010 1412 mixed 500 426 200 7 10 0.193152324827 False X 8 z 0 643 9 4 648 1935 663 3508
vs12 benlakhal 2 None 20Dec2010 1412 mixed 500 432 200 7 11 3.54557282851 False L 2 a 1 742 9 1 545 2343 1729 3129
vs12 benlakhal 2 None 20Dec2010 1412 mixed 500 547 200 7 12 4.19366828218 True L 12 z 1 585 9 6 595 1921 678 2864
vs12 benlakhal 2 None 20Dec2010 1412 mixed 500 451 200 7 13 2.45171530613 True L 2 z 1 900 9 1 536 1950 1378 3022
vs12 benlakhal 2 None 20Dec2010 1412 mixed 500 620 200 7 14 0.36294662208 False X 8 z 0 757 9 2 735 3461 2390 5034
vs12 benlakhal 2 None 20Dec2010 1412 mixed 500 447 200 7 15 3.13581112895 False X 4 z 0 743 9 2 598 8758 3566 9945
vs12 benlakhal 2 None 20Dec2010 1412 mixed 500 409 200 7 16 0.974100594192 False L 2 z 0 786 9 1 556 3538 4410 5154
vs12 benlakhal 2 None 20Dec2010 1412 mixed 500 691 200 7 17 1.0594373631 True X 4 z 1 512 9 2 661 1363 678 2064
vs12 benlakhal 2 None 20Dec2010 1412 mixed 500 658 200 7 18 3.77297126635 True X 8 z 1 542 9 1 663 1950 1121 2950
vs12 benlakhal 2 None 20Dec2010 1413 mixed 500 432 200 7 19 5.67567628376 False L 12 z 0 486 9 2 521 1849 1136 2936
vs12 benlakhal 2 None 20Dec2010 1413 mixed 500 556 200 7 20 3.85001986361 True L 8 z 1 786 9 2 603 2935 1822 3950
vs12 benlakhal 2 None 20Dec2010 1413 mixed 500 623 200 7 21 3.7428987895 False L 2 a 1 671 9 1 626 7081 1836 9327
vs12 benlakhal 2 None 20Dec2010 1413 mixed 500 604 200 7 22 1.61637540591 False L 4 a 1 729 10 1 597 2076 1233 3034
vs12 benlakhal 2 None 20Dec2010 1413 mixed 500 649 200 7 23 3.23513341921 False L 12 z 0 714 9 11 587 1478 921 2236
vs12 benlakhal 2 None 20Dec2010 1413 mixed 500 670 200 7 24 5.63594298217 False X 4 a 1 542 9 2 708 1292 634 2335
vs12 benlakhal 2 None 20Dec2010 1413 mixed 500 476 200 7 25 2.15374212943 False X 12 a 1 814 9 6 645 2007 807 3595
vs12 benlakhal 2 None 20Dec2010 1413 mixed 500 686 200 7 26 1.71007474383 True X 8 z 1 772 9 3 567 3023 1493 6567
vs12 benlakhal 2 None 20Dec2010 1413 mixed 500 601 200 7 27 4.79458313465 False L 4 a 1 628 10 3 668 2938 1407 6079
vs12 benlakhal 2 None 20Dec2010 1414 mixed 500 594 200 7 28 4.93599924056 True L 8 z 1 842 9 0 638 2665 1579 4781
vs12 benlakhal 2 None 20Dec2010 1414 mixed 500 472 200 7 29 5.86877965359 True L 12 z 1 527 9 2 572 2092 1250 5053
vs12 benlakhal 2 None 20Dec2010 1414 mixed 500 581 200 7 30 4.51904511142 True L 4 z 1 496 9 2 611 1537 2766 4053
