manip;subject;session;order;mm;tm;trialType;iti;fixDur;stimDur;nBlock;nTrial;alpha;present;targType;nItems;resp;acc;rt;confidence;estNItems;estTime;confidenceRT;estNItemsRT;estTimeRT;RecRT;Erreur;PostTest;Rec2Type;RecRT2;Rec2;couleur;Prime;CordCible;CordPrime;Yes/No;AV/AP;Diff;PostTest;RECORDING_SESSION_LABEL;AVERAGE_FIXATION_DURATION;AVERAGE_SACCADE_AMPLITUDE;BLINK_COUNT;BUTTON_PRESS_COUNT;FIXATION_COUNT;IP_DURATION;SACCADE_COUNT;;
vs12;am;4;2;08Feb2013;1031;mixed;500;400;2000;1;36;2.8951883558;False;L;8;N;0;1000;None;None;None;None;None;None;None;None;None;A;4184;3;Rouge;0;3;0;0;None;None;0;AM;2994;0;0;0;1;3000;0;;
vs12;am;4;2;08Feb2013;1037;mixed;500;400;2000;3;12;5.40791664869;True;L;8;a;1;1158;None;None;None;None;None;None;None;None;None;A;2260;3;Rouge;0;3;0;0;None;None;0;AM;3000;0;0;0;1;3000;0;;
vs12;am;4;2;08Feb2013;1037;mixed;500;400;2000;3;10;2.33280640118;False;L;4;z;1;624;None;None;None;None;None;None;None;None;None;A;4362;1;Vert;0;1;0;0;None;None;0;AM;3000;0;0;0;1;3000;0;;
vs12;am;4;2;08Feb2013;1030;mixed;500;400;2000;1;28;3.68667782442;False;L;16;z;0;591;None;None;None;None;None;None;None;None;None;A;1565;3;Rouge;0;9;0;0;None;None;0;AM;3000;0;0;0;1;3000;0;;
vs12;am;4;2;08Feb2013;1038;mixed;500;400;2000;3;16;0.236227194256;True;L;16;z;1;670;None;None;None;None;None;None;None;None;None;A;2388;3;Vert;0;13;0;0;None;None;0;AM;3000;0;0;0;1;3000;0;;
vs12;am;4;2;08Feb2013;1042;mixed;500;400;2000;4;18;3.65247656986;True;X;4;a;1;406;None;None;None;None;None;None;None;None;None;A;2527;1;Rouge;0;1;0;0;None;None;0;AM;3000;0;0;0;1;3000;0;;
vs12;am;4;2;08Feb2013;1058;mixed;500;400;2000;7;36;2.7238805096;False;X;8;z;1;316;None;None;None;None;None;None;None;None;None;A;844;0;Vert;0;4;0;0;None;None;0;AM;3000;0;0;0;1;3000;0;;
vs12;am;4;2;08Feb2013;1048;mixed;500;400;2000;5;34;3.30320743124;True;X;8;z;1;381;None;None;None;None;None;None;None;None;None;B;4421;4;Vert;0;3;0;0;None;None;0;AM;3000;0;0;0;1;3000;0;;
vs12;am;4;2;08Feb2013;1057;mixed;500;400;2000;7;29;3.54399796045;True;L;8;a;1;376;None;None;None;None;None;None;None;None;None;A;1249;1;Rouge;0;2;0;0;None;None;0;AM;3000;0;0;0;1;3000;0;;
vs12;am;4;2;08Feb2013;1029;mixed;500;400;2000;1;17;1.82129530622;True;X;8;z;1;339;None;None;None;None;None;None;None;None;None;A;3465;2;Vert;0;4;0;0;None;None;0;AM;3000;0;0;0;1;3000;0;;
vs12;am;4;2;08Feb2013;1047;mixed;500;400;2000;5;25;0.482689943622;False;X;8;a;1;378;None;None;None;None;None;None;None;None;None;A;2938;0;Rouge;0;5;0;0;None;None;0;AM;3000;0;0;0;1;3000;0;;
vs12;am;4;2;08Feb2013;1018;Ent1;500;400;2000;1;10;4.28272056448;False;L;16;z;0;405;None;None;None;None;None;None;None;None;None;None;None;None;Rouge;0;4;0;0;None;None;0;AM;3000;0;0;0;1;3000;0;;
vs12;am;4;2;08Feb2013;1019;Ent1;500;400;2000;1;4;3.16337312333;False;L;4;z;1;1468;None;None;None;None;None;None;None;None;None;None;None;None;Vert;0;4;0;0;None;None;0;AM;3000;0;0;0;1;3000;0;;
vs12;am;4;2;08Feb2013;1056;mixed;500;400;2000;7;17;4.255581805;False;X;16;z;1;339;None;None;None;None;None;None;None;None;None;A;1113;1;Vert;0;11;0;0;None;None;0;AM;3000;0;0;0;1;3000;0;;
vs12;am;4;2;08Feb2013;1100;mixed;500;400;2000;8;10;5.38368279584;True;L;4;a;1;465;None;None;None;None;None;None;None;None;None;A;950;3;Rouge;0;1;0;0;None;None;0;AM;3000;0;0;0;1;3000;0;;
vs12;am;4;2;08Feb2013;1036;mixed;500;400;2000;3;2;0.339290828824;True;X;8;z;1;387;None;None;None;None;None;None;None;None;None;A;3893;1;Vert;0;8;0;0;None;None;0;AM;3000;0;0;0;1;3000;0;;
vs12;am;4;2;08Feb2013;1037;mixed;500;400;2000;3;7;5.38529189289;False;L;16;a;1;585;None;None;None;None;None;None;None;None;None;A;821;3;Rouge;0;6;0;0;None;None;0;AM;3000;0;0;0;1;3000;0;;
vs12;am;4;2;08Feb2013;1050;mixed;500;400;2000;6;4;3.89177042843;False;X;8;z;1;519;None;None;None;None;None;None;None;None;None;A;1563;1;Vert;0;5;0;0;None;None;0;AM;3000;0;0;0;1;3000;0;;
vs12;am;4;2;08Feb2013;1037;mixed;500;400;2000;3;3;3.6798465379;True;X;4;a;1;373;None;None;None;None;None;None;None;None;None;A;2048;2;Rouge;0;3;0;0;None;None;0;AM;3000;0;0;0;1;3000;0;;
vs12;am;4;2;08Feb2013;1102;mixed;500;400;2000;8;34;1.04993516407;True;L;8;z;1;333;None;None;None;None;None;None;None;None;None;B;569;4;Vert;0;6;0;0;None;None;0;AM;3000;0;0;0;1;3000;0;;
vs12;am;4;2;08Feb2013;1045;mixed;500;400;2000;5;1;5.64685038668;True;L;4;z;1;484;None;None;None;None;None;None;None;None;None;A;2073;1;Vert;0;2;0;0;None;None;0;AM;3000;0;0;0;1;3000;0;;
vs12;am;4;2;08Feb2013;1024;Ent2;500;400;2000;1;2;5.42844577532;False;L;8;z;1;1416;None;None;None;None;None;None;None;None;None;A;3269;2;Vert;0;8;0;0;None;None;0;AM;3000;0;0;0;1;3000;0;;
vs12;am;4;2;08Feb2013;1029;mixed;500;400;2000;1;21;0.0763736429294;False;L;4;z;1;375;None;None;None;None;None;None;None;None;None;A;1050;1;Vert;0;1;0;0;None;None;0;AM;3000;0;0;0;1;3000;0;;
vs12;am;4;2;08Feb2013;1052;mixed;500;400;2000;6;26;0.462926198285;True;L;4;a;1;399;None;None;None;None;None;None;None;None;None;A;2595;3;Rouge;0;2;0;0;None;None;0;AM;3000;0;0;0;1;3000;0;;
vs12;am;4;2;08Feb2013;1051;mixed;500;400;2000;6;11;3.0556958262;False;X;16;a;1;356;None;None;None;None;None;None;None;None;None;A;3837;3;Rouge;0;15;0;0;None;None;0;AM;3000;0;0;0;1;3000;0;;
vs12;am;4;2;08Feb2013;1043;mixed;500;400;2000;4;31;0.156098690631;True;L;8;a;1;363;None;None;None;None;None;None;None;None;None;B;1252;4;Rouge;0;2;0;0;None;None;0;AM;3000;0;0;0;1;3000;0;;
vs12;am;4;2;08Feb2013;1057;mixed;500;400;2000;7;27;2.40212088248;False;X;4;a;1;343;None;None;None;None;None;None;None;None;None;A;677;1;Rouge;0;4;0;0;None;None;0;AM;3000;0;0;0;1;3000;0;;
vs12;am;4;2;08Feb2013;1033;mixed;500;400;2000;2;12;1.32415304874;True;L;4;a;1;347;None;None;None;None;None;None;None;None;None;A;3076;3;Rouge;0;2;0;0;None;None;0;AM;3000;0;0;0;1;3000;0;;
vs12;am;4;2;08Feb2013;1057;mixed;500;400;2000;7;31;4.77101899222;False;L;16;a;1;807;None;None;None;None;None;None;None;None;None;A;1144;1;Rouge;0;2;0;0;None;None;0;AM;3000;0;0;0;1;3000;0;;
vs12;am;4;2;08Feb2013;1030;mixed;500;400;2000;1;26;3.96766819424;False;X;4;z;1;366;None;None;None;None;None;None;None;None;None;A;1417;1;Vert;0;3;0;0;None;None;0;AM;3000;0;0;0;1;3000;0;;
vs12;am;4;2;08Feb2013;1055;mixed;500;400;2000;7;4;5.21242662573;False;X;8;z;1;343;None;None;None;None;None;None;None;None;None;B;2258;4;Vert;0;4;0;0;None;None;0;AM;3000;0;0;0;1;3000;0;;
vs12;am;4;2;08Feb2013;1047;mixed;500;400;2000;5;31;4.74611727121;False;X;4;a;1;345;None;None;None;None;None;None;None;None;None;B;2081;4;Rouge;0;2;0;0;None;None;0;AM;3000;0;0;0;1;3000;0;;
vs12;am;4;2;08Feb2013;1015;Ent1;500;400;2000;1;5;0.375769674935;True;L;8;a;1;878;None;None;None;None;None;None;None;None;None;None;None;None;Rouge;0;5;0;0;None;None;0;AM;3000;0;0;0;1;3000;0;;
vs12;am;4;2;08Feb2013;1043;mixed;500;400;2000;4;23;0.894757352388;True;X;4;a;1;620;None;None;None;None;None;None;None;None;None;A;980;1;Rouge;0;4;0;0;None;None;0;AM;3000;0;0;0;1;3000;0;;
vs12;am;4;2;08Feb2013;1043;mixed;500;400;2000;4;20;3.47159115447;True;X;4;a;1;455;None;None;None;None;None;None;None;None;None;A;797;1;Rouge;0;4;0;0;None;None;0;AM;3000;0;0;0;1;3000;0;;
vs12;am;4;2;08Feb2013;1050;mixed;500;400;2000;6;2;5.33827969841;True;X;8;z;1;356;None;None;None;None;None;None;None;None;None;A;1610;1;Vert;0;3;0;0;None;None;0;AM;3000;0;0;0;1;3000;0;;
vs12;am;4;2;08Feb2013;1053;mixed;500;400;2000;6;35;4.79400164698;True;X;4;a;1;281;None;None;None;None;None;None;None;None;None;A;882;3;Rouge;0;2;0;0;None;None;0;AM;3000;0;0;0;1;3000;0;;
vs12;am;4;2;08Feb2013;1038;mixed;500;400;2000;3;20;3.83107507771;False;X;4;z;1;392;None;None;None;None;None;None;None;None;None;A;1009;1;Vert;0;2;0;0;None;None;0;AM;3000;0;0;0;1;3000;0;;
vs12;am;4;2;08Feb2013;1033;mixed;500;400;2000;2;8;2.12922482789;False;L;4;z;1;311;None;None;None;None;None;None;None;None;None;A;1192;1;Vert;0;2;0;0;None;None;0;AM;3000;0;0;0;1;3000;0;;
vs12;am;4;2;08Feb2013;1040;mixed;500;400;2000;3;34;3.58722119308;False;X;16;z;1;411;None;None;None;None;None;None;None;None;None;A;1482;3;Vert;0;11;0;0;None;None;0;AM;3000;0;0;0;1;3000;0;;
vs12;am;4;2;08Feb2013;1051;mixed;500;400;2000;6;18;1.33804357109;False;L;16;a;1;642;None;None;None;None;None;None;None;None;None;C;1114;6;Rouge;0;10;0;0;None;None;0;AM;3000;0;0;0;1;3000;0;;
vs12;am;4;2;08Feb2013;1057;mixed;500;400;2000;7;23;2.30793078627;True;X;4;z;1;412;None;None;None;None;None;None;None;None;None;C;1536;6;Vert;0;2;0;0;None;None;0;AM;3000;0;0;0;1;3000;0;;
vs12;am;4;2;08Feb2013;1041;mixed;500;400;2000;4;5;5.99231888102;True;X;16;a;1;494;None;None;None;None;None;None;None;None;None;A;882;3;Rouge;0;2;0;0;None;None;0;AM;3000;0;0;0;1;3000;0;;
vs12;am;4;2;08Feb2013;1035;mixed;500;400;2000;2;32;1.00502654336;True;L;4;z;1;604;None;None;None;None;None;None;None;None;None;A;1250;0;Vert;0;2;0;0;None;None;0;AM;3000;0;0;0;1;3000;0;;
vs12;am;4;2;08Feb2013;1051;mixed;500;400;2000;6;12;1.77710266346;False;X;8;z;1;519;None;None;None;None;None;None;None;None;None;A;760;0;Vert;0;4;0;0;None;None;0;AM;3000;0;0;0;1;3000;0;;
vs12;am;4;2;08Feb2013;1035;mixed;500;400;2000;2;29;3.96261074944;False;X;16;a;0;889;None;None;None;None;None;None;None;None;None;D;1895;8;Vert;0;15;0;0;None;None;0;AM;3000;0;0;0;1;3000;0;;
vs12;am;4;2;08Feb2013;1038;mixed;500;400;2000;3;17;2.39100838977;False;L;16;a;1;598;None;None;None;None;None;None;None;None;None;C;1773;6;Rouge;0;15;0;0;None;None;0;AM;3000;0;0;0;1;3000;0;;
vs12;am;4;2;08Feb2013;1102;mixed;500;400;2000;8;26;3.19360139345;True;X;8;a;1;1012;None;None;None;None;None;None;None;None;None;A;1967;1;Rouge;0;3;0;0;None;None;0;AM;3000;0;0;0;1;3000;0;;
vs12;am;4;2;08Feb2013;1041;mixed;500;400;2000;4;3;6.25212186072;False;L;4;z;1;527;None;None;None;None;None;None;None;None;None;A;3026;1;Vert;0;3;0;0;None;None;0;AM;3000;0;0;0;1;3000;0;;
vs12;am;4;2;08Feb2013;1035;mixed;500;400;2000;2;30;2.1565956801;True;L;8;z;1;570;None;None;None;None;None;None;None;None;None;A;1498;2;Vert;0;6;0;0;None;None;0;AM;3000;0;0;0;1;3000;0;;
vs12;am;4;2;08Feb2013;1040;mixed;500;400;2000;3;33;5.22290975722;False;X;8;a;1;493;None;None;None;None;None;None;None;None;None;A;2082;3;Rouge;0;6;0;0;None;None;0;AM;3000;0;0;0;1;3000;0;;
vs12;am;4;2;08Feb2013;1042;mixed;500;400;2000;4;13;5.87411057832;False;X;8;z;1;422;None;None;None;None;None;None;None;None;None;A;3107;1;Vert;0;2;0;0;None;None;0;AM;3000;0;0;0;1;3000;0;;
vs12;am;4;2;08Feb2013;1101;mixed;500;400;2000;8;20;3.30934072839;False;L;8;a;1;423;None;None;None;None;None;None;None;None;None;D;642;8;Rouge;0;3;0;0;None;None;0;AM;3000;0;0;0;1;3000;0;;
vs12;am;4;2;08Feb2013;1046;mixed;500;400;2000;5;13;0.504265652017;True;L;8;a;1;1058;None;None;None;None;None;None;None;None;None;A;852;1;Rouge;0;7;0;0;None;None;0;AM;3000;0;0;0;1;3000;0;;
vs12;am;4;2;08Feb2013;1046;mixed;500;400;2000;5;17;3.21121703951;False;L;4;a;1;388;None;None;None;None;None;None;None;None;None;A;3451;3;Rouge;0;3;0;0;None;None;0;AM;3000;0;0;0;1;3000;0;;
vs12;am;4;2;08Feb2013;1015;Ent1;500;400;2000;1;1;6.2046652616;False;L;8;z;1;2866;None;None;None;None;None;None;None;None;None;None;None;None;Vert;0;8;0;0;None;None;0;AM;3000;0;0;0;1;3000;0;;
vs12;am;4;2;08Feb2013;1025;Ent2;500;400;2000;1;6;2.39146512254;True;L;8;a;1;648;None;None;None;None;None;None;None;None;None;B;3129;4;Rouge;0;8;0;0;None;None;0;AM;3000;0;0;0;1;3000;0;;
vs12;am;4;2;08Feb2013;1038;mixed;500;400;2000;3;22;1.44884434302;True;X;4;a;1;436;None;None;None;None;None;None;None;None;None;A;1170;3;Rouge;0;2;0;0;None;None;0;AM;3000;0;0;0;1;3000;0;;
vs12;am;4;2;08Feb2013;1055;mixed;500;400;2000;7;3;5.32113673926;True;X;8;z;1;1391;None;None;None;None;None;None;None;None;None;A;1135;3;Vert;0;6;0;0;None;None;0;AM;3000;0;0;0;1;3000;0;;
vs12;am;4;2;08Feb2013;1025;Ent2;500;400;2000;1;10;1.98014499471;True;L;16;a;0;673;None;None;None;None;None;None;None;None;None;B;3012;5;Vert;0;10;0;0;None;None;0;AM;3000;0;0;0;1;3000;0;;
vs12;am;4;2;08Feb2013;1042;mixed;500;400;2000;4;11;3.00849415978;False;L;4;z;1;427;None;None;None;None;None;None;None;None;None;A;939;1;Vert;0;3;0;0;None;None;0;AM;3000;0;0;0;1;3000;0;;
vs12;am;4;2;08Feb2013;1056;mixed;500;400;2000;7;10;2.64999842725;True;X;4;a;1;421;None;None;None;None;None;None;None;None;None;A;1029;2;Rouge;0;1;0;0;None;None;0;AM;3000;0;0;0;1;3000;0;;
vs12;am;4;2;08Feb2013;1025;Ent2;500;400;2000;1;7;0.973447308234;True;X;8;a;1;695;None;None;None;None;None;None;None;None;None;B;2551;5;Rouge;0;4;0;0;None;None;0;AM;3000;0;0;0;1;3000;0;;
vs12;am;4;2;08Feb2013;1029;mixed;500;400;2000;1;18;2.06782604813;False;L;16;a;0;654;None;None;None;None;None;None;None;None;None;C;1612;6;Vert;0;9;0;0;None;None;0;AM;3000;0;0;0;1;3000;0;;
vs12;am;4;2;08Feb2013;1045;mixed;500;400;2000;5;2;3.94370490784;True;X;4;a;1;328;None;None;None;None;None;None;None;None;None;A;959;1;Rouge;0;3;0;0;None;None;0;AM;3000;0;0;0;1;3000;0;;
vs12;am;4;2;08Feb2013;1055;mixed;500;400;2000;7;6;2.50657935985;True;L;4;a;1;347;None;None;None;None;None;None;None;None;None;C;925;7;Rouge;0;4;0;0;None;None;0;AM;3000;0;0;0;1;3000;0;;
vs12;am;4;2;08Feb2013;1038;mixed;500;400;2000;3;15;5.05045474714;True;L;8;z;1;1012;None;None;None;None;None;None;None;None;None;A;1011;0;Vert;0;6;0;0;None;None;0;AM;3000;0;0;0;1;3000;0;;
vs12;am;4;2;08Feb2013;1059;mixed;500;400;2000;8;2;0.147122866939;False;X;16;z;1;391;None;None;None;None;None;None;None;None;None;C;658;6;Vert;0;12;0;0;None;None;0;AM;3000;0;0;0;1;3000;0;;
vs12;am;4;2;08Feb2013;1037;mixed;500;400;2000;3;9;3.16710926275;True;L;4;a;1;839;None;None;None;None;None;None;None;None;None;A;863;1;Rouge;0;3;0;0;None;None;0;AM;3000;0;0;0;1;3000;0;;
vs12;am;4;2;08Feb2013;1041;mixed;500;400;2000;4;2;5.52659771922;True;X;8;z;1;361;None;None;None;None;None;None;None;None;None;A;1106;1;Vert;0;2;0;0;None;None;0;AM;3000;0;0;0;1;3000;0;;
vs12;am;4;2;08Feb2013;1025;Ent2;500;400;2000;1;4;5.48708785631;False;X;8;z;1;946;None;None;None;None;None;None;None;None;None;A;2895;3;Vert;0;3;0;0;None;None;0;AM;3000;0;0;0;1;3000;0;;
vs12;am;4;2;08Feb2013;1041;mixed;500;400;2000;4;4;0.272134568219;True;X;8;z;1;380;None;None;None;None;None;None;None;None;None;A;2230;1;Vert;0;2;0;0;None;None;0;AM;3000;0;0;0;1;3000;0;;
vs12;am;4;2;08Feb2013;1040;mixed;500;400;2000;3;35;5.52597658171;False;X;8;z;1;410;None;None;None;None;None;None;None;None;None;A;1253;3;Vert;0;2;0;0;None;None;0;AM;3000;0;0;0;1;3000;0;;
vs12;am;4;2;08Feb2013;1051;mixed;500;400;2000;6;15;3.5146509242;True;X;8;a;1;345;None;None;None;None;None;None;None;None;None;A;1146;1;Rouge;0;6;0;0;None;None;0;AM;3000;0;0;0;1;3000;0;;
vs12;am;4;2;08Feb2013;1028;mixed;500;400;2000;1;6;5.50886639355;True;L;8;z;1;452;None;None;None;None;None;None;None;None;None;A;2406;2;Vert;0;2;0;0;None;None;0;AM;3000;0;0;0;1;3000;0;;
vs12;am;4;2;08Feb2013;1052;mixed;500;400;2000;6;28;1.0094367861;False;L;8;z;0;1051;None;None;None;None;None;None;None;None;None;D;989;8;Rouge;0;1;0;0;None;None;0;AM;3000;0;0;0;1;3000;0;;
vs12;am;4;2;08Feb2013;1037;mixed;500;400;2000;3;6;2.21016726948;True;L;4;z;1;468;None;None;None;None;None;None;None;None;None;A;1331;1;Vert;0;3;0;0;None;None;0;AM;3000;0;0;0;1;3000;0;;
vs12;am;4;2;08Feb2013;1028;mixed;500;400;2000;1;8;0.911416500894;False;X;8;z;1;892;None;None;None;None;None;None;None;None;None;D;1184;8;Vert;0;7;0;0;None;None;0;AM;3000;0;0;0;1;3000;0;;
vs12;am;4;2;08Feb2013;1055;mixed;500;400;2000;7;5;2.2129727067;True;X;16;z;1;364;None;None;None;None;None;None;None;None;None;A;2046;3;Vert;0;14;0;0;None;None;0;AM;3000;0;0;0;1;3000;0;;
vs12;am;4;2;08Feb2013;1035;mixed;500;400;2000;2;36;4.04598219133;False;X;4;z;1;492;None;None;None;None;None;None;None;None;None;A;1641;1;Vert;0;2;0;0;None;None;0;AM;3000;0;0;0;1;3000;0;;
vs12;am;4;2;08Feb2013;1048;mixed;500;400;2000;5;36;2.6386261273;True;X;4;a;1;462;None;None;None;None;None;None;None;None;None;A;2792;2;Rouge;0;1;0;0;None;None;0;AM;3000;0;0;0;1;3000;0;;
vs12;am;4;2;08Feb2013;1038;mixed;500;400;2000;3;14;2.75945745061;False;L;16;z;1;502;None;None;None;None;None;None;None;None;None;A;2048;1;Vert;0;12;0;0;None;None;0;AM;3000;0;0;0;1;3000;0;;
vs12;am;4;2;08Feb2013;1050;mixed;500;400;2000;6;7;2.77788155764;False;L;8;a;1;518;None;None;None;None;None;None;None;None;None;A;3731;3;Rouge;0;1;0;0;None;None;0;AM;3000;0;0;0;1;3000;0;;
vs12;am;4;2;08Feb2013;1018;Ent1;500;400;2000;1;3;1.24961330774;True;X;4;z;1;323;None;None;None;None;None;None;None;None;None;None;None;None;Vert;0;1;0;0;None;None;0;AM;3000;0;0;0;1;3000;0;;
vs12;am;4;2;08Feb2013;1056;mixed;500;400;2000;7;12;3.42477133956;True;L;8;z;1;1017;None;None;None;None;None;None;None;None;None;B;968;4;Vert;0;8;0;0;None;None;0;AM;3000;0;0;0;1;3000;0;;
vs12;am;4;2;08Feb2013;1019;Ent1;500;400;2000;1;2;3.07326760853;False;X;4;a;1;440;None;None;None;None;None;None;None;None;None;None;None;None;Rouge;0;1;0;0;None;None;0;AM;3000;0;0;0;1;3000;0;;
vs12;am;4;2;08Feb2013;1045;mixed;500;400;2000;5;4;4.01815703031;False;X;8;z;1;349;None;None;None;None;None;None;None;None;None;A;1433;1;Vert;0;6;0;0;None;None;0;AM;3000;0;0;0;1;3000;0;;
vs12;am;4;2;08Feb2013;1015;Ent1;500;400;2000;1;4;3.77662725397;False;L;4;z;1;278;None;None;None;None;None;None;None;None;None;None;None;None;Vert;0;4;0;0;None;None;0;AM;3000;0;0;0;1;3000;0;;
vs12;am;4;2;08Feb2013;1052;mixed;500;400;2000;6;20;2.95466943765;True;L;4;z;1;710;None;None;None;None;None;None;None;None;None;A;3060;2;Vert;0;2;0;0;None;None;0;AM;3000;0;0;0;1;3000;0;;
vs12;am;4;2;08Feb2013;1033;mixed;500;400;2000;2;13;0.760728381327;True;X;4;a;1;1316;None;None;None;None;None;None;None;None;None;A;2306;3;Rouge;0;2;0;0;None;None;0;AM;3000;0;0;0;1;3000;0;;
vs12;am;4;2;08Feb2013;1028;mixed;500;400;2000;1;3;3.26316938078;True;X;16;z;1;799;None;None;None;None;None;None;None;None;None;A;1918;3;Vert;0;11;0;0;None;None;0;AM;3000;0;0;0;1;3000;0;;
vs12;am;4;2;08Feb2013;1024;Ent2;500;400;2000;1;3;4.63525636733;False;X;16;a;1;1228;None;None;None;None;None;None;None;None;None;B;2969;5;Rouge;0;10;0;0;None;None;0;AM;3000;0;0;0;1;3000;0;;
vs12;am;4;2;08Feb2013;1017;Ent1;500;400;2000;1;4;3.74295472782;False;L;4;a;1;449;None;None;None;None;None;None;None;None;None;None;None;None;Rouge;0;3;0;0;None;None;0;AM;732.4;0;2;0;5;3000;5;;
vs12;am;4;2;08Feb2013;1052;mixed;500;400;2000;6;22;6.11587896236;False;L;4;a;1;560;None;None;None;None;None;None;None;None;None;A;2441;1;Rouge;0;3;0;0;None;None;0;AM;1634;0.16;1;0;2;3000;1;;
vs12;am;4;2;08Feb2013;1042;mixed;500;400;2000;4;16;5.97973553812;True;L;4;z;1;376;None;None;None;None;None;None;None;None;None;A;878;1;Vert;0;1;0;0;None;None;0;AM;1078;0.17;0;0;3;3000;2;;
vs12;am;4;2;08Feb2013;1042;mixed;500;400;2000;4;14;3.39682068057;False;X;16;a;1;421;None;None;None;None;None;None;None;None;None;A;1189;1;Rouge;0;6;0;0;None;None;0;AM;1626;0.18;0;0;2;3000;1;;
vs12;am;4;2;08Feb2013;1044;mixed;500;400;2000;4;34;0.823461050004;False;L;8;z;1;391;None;None;None;None;None;None;None;None;None;B;1283;4;Vert;0;8;0;0;None;None;0;AM;1810;0.18;0;0;2;3000;1;;
vs12;am;4;2;08Feb2013;1045;mixed;500;400;2000;5;8;3.89232137575;False;L;8;z;1;357;None;None;None;None;None;None;None;None;None;A;1038;3;Vert;0;5;0;0;None;None;0;AM;1636;0.19;0;0;2;3000;1;;
vs12;am;4;2;08Feb2013;1037;mixed;500;400;2000;3;8;3.87209896626;True;X;4;z;1;411;None;None;None;None;None;None;None;None;None;A;1843;2;Vert;0;2;0;0;None;None;0;AM;1703.5;0.19;0;0;2;3000;1;;
vs12;am;4;2;08Feb2013;1029;mixed;500;400;2000;1;16;5.6859983151;True;X;8;z;1;751;None;None;None;None;None;None;None;None;None;A;2903;1;Vert;0;2;0;0;None;None;0;AM;1646.5;0.2;0;0;2;3000;1;;
vs12;am;4;2;08Feb2013;1047;mixed;500;400;2000;5;21;2.63640057122;False;L;16;a;1;748;None;None;None;None;None;None;None;None;None;D;1051;8;Rouge;0;7;0;0;None;None;0;AM;1137;0.21;0;0;3;3000;2;;
vs12;am;4;2;08Feb2013;1100;mixed;500;400;2000;8;3;1.50940018536;False;L;16;a;1;377;None;None;None;None;None;None;None;None;None;B;2101;4;Rouge;0;3;0;0;None;None;0;AM;1786.5;0.21;0;0;2;3000;1;;
vs12;am;4;2;08Feb2013;1053;mixed;500;400;2000;6;33;4.66995717412;True;X;8;z;1;906;None;None;None;None;None;None;None;None;None;B;803;4;Vert;0;1;0;0;None;None;0;AM;2081.5;0.21;0;0;2;3000;1;;
vs12;am;4;2;08Feb2013;1047;mixed;500;400;2000;5;23;3.69896920443;True;L;8;z;1;684;None;None;None;None;None;None;None;None;None;B;1802;5;Vert;0;7;0;0;None;None;0;AM;1631;0.22;0;0;2;3000;1;;
vs12;am;4;2;08Feb2013;1053;mixed;500;400;2000;6;31;4.45538992986;True;L;8;a;1;484;None;None;None;None;None;None;None;None;None;B;1041;5;Rouge;0;5;0;0;None;None;0;AM;1652;0.22;0;0;2;3000;1;;
vs12;am;4;2;08Feb2013;1030;mixed;500;400;2000;1;27;5.20517465211;True;X;4;z;1;1258;None;None;None;None;None;None;None;None;None;A;3077;1;Vert;0;3;0;0;None;None;0;AM;1944;0.22;0;0;2;3000;1;;
vs12;am;4;2;08Feb2013;1053;mixed;500;400;2000;6;34;4.98039353954;True;L;8;z;1;292;None;None;None;None;None;None;None;None;None;B;689;4;Vert;0;4;0;0;None;None;0;AM;1634.5;0.22;0;0;2;3000;1;;
vs12;am;4;2;08Feb2013;1032;mixed;500;400;2000;2;6;3.48143365329;False;L;16;a;1;678;None;None;None;None;None;None;None;None;None;B;2416;5;Rouge;0;5;0;0;None;None;0;AM;1789.5;0.22;0;0;2;3000;1;;
vs12;am;4;2;08Feb2013;1045;mixed;500;400;2000;5;7;0.532059867073;True;X;8;a;1;367;None;None;None;None;None;None;None;None;None;A;871;1;Rouge;0;3;0;0;None;None;0;AM;1198;0.23;0;0;3;3000;2;;
vs12;am;4;2;08Feb2013;1059;mixed;500;400;2000;8;1;4.96268851273;False;L;8;z;1;483;None;None;None;None;None;None;None;None;None;A;4189;1;Vert;0;7;0;0;None;None;0;AM;1653.5;0.23;0;0;2;3000;1;;
vs12;am;4;2;08Feb2013;1015;Ent1;500;400;2000;1;6;4.12260351719;False;X;16;z;0;588;None;None;None;None;None;None;None;None;None;None;None;None;Rouge;0;4;0;0;None;None;0;AM;1934.5;0.23;0;0;2;3000;1;;
vs12;am;4;2;08Feb2013;1039;mixed;500;400;2000;3;29;5.51957608326;True;X;16;z;1;404;None;None;None;None;None;None;None;None;None;A;1219;3;Vert;0;16;0;0;None;None;0;AM;1075;0.24;0;0;3;3000;2;;
vs12;am;4;2;08Feb2013;1100;mixed;500;400;2000;8;8;4.21426133302;False;L;8;z;1;396;None;None;None;None;None;None;None;None;None;A;921;3;Vert;0;8;0;0;None;None;0;AM;1096;0.24;0;0;3;3000;2;;
vs12;am;4;2;08Feb2013;1028;mixed;500;400;2000;1;2;2.28839490297;True;L;4;a;1;629;None;None;None;None;None;None;None;None;None;A;2494;0;Rouge;0;4;0;0;None;None;0;AM;1614;0.24;0;0;2;3000;1;;
vs12;am;4;2;08Feb2013;1046;mixed;500;400;2000;5;10;1.10009865249;True;X;4;a;1;346;None;None;None;None;None;None;None;None;None;A;1337;1;Rouge;0;2;0;0;None;None;0;AM;1631;0.24;0;0;2;3000;1;;
vs12;am;4;2;08Feb2013;1035;mixed;500;400;2000;2;35;2.01241994067;False;L;4;a;1;482;None;None;None;None;None;None;None;None;None;A;699;1;Rouge;0;2;0;0;None;None;0;AM;1672;0.24;0;0;2;3000;1;;
vs12;am;4;2;08Feb2013;1056;mixed;500;400;2000;7;9;4.12466000425;False;L;16;a;1;601;None;None;None;None;None;None;None;None;None;D;1137;8;Rouge;0;12;0;0;None;None;0;AM;1730;0.24;0;0;2;3000;1;;
vs12;am;4;2;08Feb2013;1034;mixed;500;400;2000;2;23;2.65929104706;True;X;8;a;1;395;None;None;None;None;None;None;None;None;None;B;1256;5;Rouge;0;7;0;0;None;None;0;AM;1026.33;0.24;1;0;3;3000;2;;
vs12;am;4;2;08Feb2013;1040;mixed;500;400;2000;3;36;0.708797677969;True;L;4;z;1;377;None;None;None;None;None;None;None;None;None;A;767;0;Vert;0;2;0;0;None;None;0;AM;1074.67;0.24;0;0;3;3000;2;;
vs12;am;4;2;08Feb2013;1100;mixed;500;400;2000;8;4;6.17185913818;True;X;4;a;1;1262;None;None;None;None;None;None;None;None;None;B;2867;5;Rouge;0;1;0;0;None;None;0;AM;1235.33;0.24;0;0;3;3000;2;;
vs12;am;4;2;08Feb2013;1030;mixed;500;400;2000;1;31;5.3224078248;True;L;8;a;1;407;None;None;None;None;None;None;None;None;None;A;1596;3;Rouge;0;6;0;0;None;None;0;AM;1502.5;0.24;0;0;2;3000;1;;
vs12;am;4;2;08Feb2013;1045;mixed;500;400;2000;5;3;4.60799536676;False;X;16;z;1;536;None;None;None;None;None;None;None;None;None;A;2440;2;Vert;0;5;0;0;None;None;0;AM;1618.5;0.24;0;0;2;3000;1;;
vs12;am;4;2;08Feb2013;1015;Ent1;500;400;2000;1;3;0.527932093594;True;X;4;a;1;393;None;None;None;None;None;None;None;None;None;None;None;None;Rouge;0;1;0;0;None;None;0;AM;1644.5;0.24;0;0;2;3000;1;;
vs12;am;4;2;08Feb2013;1043;mixed;500;400;2000;4;25;4.60619660798;False;X;4;z;1;378;None;None;None;None;None;None;None;None;None;A;2566;1;Vert;0;2;0;0;None;None;0;AM;903.5;0.24;0;0;4;3000;3;;
vs12;am;4;2;08Feb2013;1047;mixed;500;400;2000;5;30;0.75743966434;False;X;16;a;1;543;None;None;None;None;None;None;None;None;None;A;2098;2;Rouge;0;11;0;0;None;None;0;AM;1645;0.25;0;0;2;3000;1;;
vs12;am;4;2;08Feb2013;1044;mixed;500;400;2000;4;32;3.68232756046;False;L;16;a;1;794;None;None;None;None;None;None;None;None;None;B;1126;4;Rouge;0;16;0;0;None;None;0;AM;1756;0.25;0;0;2;3000;1;;
vs12;am;4;2;08Feb2013;1039;mixed;500;400;2000;3;32;4.62885015741;False;L;4;z;1;386;None;None;None;None;None;None;None;None;None;A;1727;1;Vert;0;1;0;0;None;None;0;AM;1868;0.25;0;0;2;3000;1;;
vs12;am;4;2;08Feb2013;1027;mixed;500;400;2000;1;1;4.48117649017;False;X;4;a;1;520;None;None;None;None;None;None;None;None;None;A;4771;2;Rouge;0;2;0;0;None;None;0;AM;1883;0.25;1;0;2;3000;1;;
vs12;am;4;2;08Feb2013;1030;mixed;500;400;2000;1;30;3.33588199501;True;X;4;z;1;364;None;None;None;None;None;None;None;None;None;A;1572;1;Vert;0;2;0;0;None;None;0;AM;1070.67;0.25;0;0;3;3000;2;;
vs12;am;4;2;08Feb2013;1101;mixed;500;400;2000;8;24;2.28315225273;True;L;16;z;1;370;None;None;None;None;None;None;None;None;None;A;2613;2;Vert;0;5;0;0;None;None;0;AM;1644.5;0.25;0;0;2;3000;1;;
vs12;am;4;2;08Feb2013;1031;mixed;500;400;2000;1;34;2.49832726684;True;L;16;z;1;494;None;None;None;None;None;None;None;None;None;B;1720;5;Vert;0;6;0;0;None;None;0;AM;1744.5;0.25;0;0;2;3000;1;;
vs12;am;4;2;08Feb2013;1034;mixed;500;400;2000;2;19;1.19971573843;True;X;16;a;1;357;None;None;None;None;None;None;None;None;None;A;969;1;Rouge;0;11;0;0;None;None;0;AM;828.5;0.25;0;0;4;3000;3;;
vs12;am;4;2;08Feb2013;1034;mixed;500;400;2000;2;20;1.23088454679;True;L;16;a;1;425;None;None;None;None;None;None;None;None;None;D;988;8;Rouge;0;2;0;0;None;None;0;AM;1183;0.26;0;0;3;3000;2;;
vs12;am;4;2;08Feb2013;1102;mixed;500;400;2000;8;25;2.6845862854;False;X;4;a;1;1036;None;None;None;None;None;None;None;None;None;A;1643;1;Rouge;0;3;0;0;None;None;0;AM;1625;0.26;0;0;2;3000;1;;
vs12;am;4;2;08Feb2013;1028;mixed;500;400;2000;1;10;3.82702481475;True;L;4;a;1;488;None;None;None;None;None;None;None;None;None;A;1493;3;Rouge;0;2;0;0;None;None;0;AM;1658;0.26;0;0;2;3000;1;;
vs12;am;4;2;08Feb2013;1039;mixed;500;400;2000;3;27;0.387171910742;False;L;8;z;1;406;None;None;None;None;None;None;None;None;None;A;2864;2;Vert;0;2;0;0;None;None;0;AM;1663;0.26;0;0;2;3000;1;;
vs12;am;4;2;08Feb2013;1100;mixed;500;400;2000;8;6;0.556068636308;True;L;16;z;1;1180;None;None;None;None;None;None;None;None;None;D;811;9;Vert;0;15;0;0;None;None;0;AM;1728;0.26;0;0;2;3000;1;;
vs12;am;4;2;08Feb2013;1032;mixed;500;400;2000;2;7;0.307190355858;True;X;4;z;1;384;None;None;None;None;None;None;None;None;None;A;848;1;Vert;0;2;0;0;None;None;0;AM;1807;0.26;0;0;2;3000;1;;
vs12;am;4;2;08Feb2013;1047;mixed;500;400;2000;5;29;1.93059326532;True;X;16;a;1;368;None;None;None;None;None;None;None;None;None;A;1860;3;Rouge;0;10;0;0;None;None;0;AM;1095.67;0.26;0;0;3;3000;2;;
vs12;am;4;2;08Feb2013;1029;mixed;500;400;2000;1;20;0.694674756507;False;L;4;a;1;737;None;None;None;None;None;None;None;None;None;D;895;8;Rouge;0;1;0;0;None;None;0;AM;1103.33;0.26;0;0;3;3000;2;;
vs12;am;4;2;08Feb2013;1055;mixed;500;400;2000;7;7;5.39341625659;False;X;4;z;1;376;None;None;None;None;None;None;None;None;None;A;1600;3;Vert;0;3;0;0;None;None;0;AM;1195.67;0.26;0;0;3;3000;2;;
vs12;am;4;2;08Feb2013;1053;mixed;500;400;2000;6;29;0.465695780234;False;X;4;a;1;920;None;None;None;None;None;None;None;None;None;A;1156;3;Rouge;0;2;0;0;None;None;0;AM;1637.5;0.26;0;0;2;3000;1;;
vs12;am;4;2;08Feb2013;1101;mixed;500;400;2000;8;23;3.65682559684;True;X;8;a;1;432;None;None;None;None;None;None;None;None;None;A;2122;1;Rouge;0;3;0;0;None;None;0;AM;815.5;0.26;0;0;4;3000;3;;
vs12;am;4;2;08Feb2013;1018;Ent1;500;400;2000;1;6;6.02585824571;False;X;16;z;1;456;None;None;None;None;None;None;None;None;None;None;None;None;Vert;0;6;0;0;None;None;0;AM;995;0.27;0;0;4;3000;3;;
vs12;am;4;2;08Feb2013;1102;mixed;500;400;2000;8;35;4.0583584663;False;X;4;z;1;329;None;None;None;None;None;None;None;None;None;A;1051;1;Vert;0;1;0;0;None;None;0;AM;1526;0.27;0;0;2;3000;1;;
vs12;am;4;2;08Feb2013;1030;mixed;500;400;2000;1;25;5.6793627289;True;L;8;a;1;325;None;None;None;None;None;None;None;None;None;A;2103;1;Rouge;0;4;0;0;None;None;0;AM;1628;0.27;0;0;2;3000;1;;
vs12;am;4;2;08Feb2013;1033;mixed;500;400;2000;2;11;1.7386396315;False;L;8;z;1;434;None;None;None;None;None;None;None;None;None;A;1417;1;Vert;0;4;0;0;None;None;0;AM;1667;0.27;0;0;2;3000;1;;
vs12;am;4;2;08Feb2013;1055;mixed;500;400;2000;7;1;4.43442964951;True;L;16;a;1;1001;None;None;None;None;None;None;None;None;None;D;2984;8;Rouge;0;5;0;0;None;None;0;AM;1668;0.27;0;0;2;3000;1;;
vs12;am;4;2;08Feb2013;1025;Ent2;500;400;2000;1;9;2.38049458026;False;L;4;a;1;466;None;None;None;None;None;None;None;None;None;A;2603;2;Rouge;0;3;0;0;None;None;0;AM;1865;0.27;0;0;2;3000;1;;
vs12;am;4;2;08Feb2013;1050;mixed;500;400;2000;6;5;5.11656884203;True;L;8;z;1;402;None;None;None;None;None;None;None;None;None;A;3771;3;Vert;0;7;0;0;None;None;0;AM;1115.67;0.27;0;0;3;3000;2;;
vs12;am;4;2;08Feb2013;1024;Ent2;500;400;2000;1;1;3.47111037963;True;X;16;z;1;1483;None;None;None;None;None;None;None;None;None;A;9210;3;Vert;0;1;0;0;None;None;0;AM;1183.67;0.27;0;0;3;3000;2;;
vs12;am;4;2;08Feb2013;1050;mixed;500;400;2000;6;3;2.62830075123;False;X;8;a;1;376;None;None;None;None;None;None;None;None;None;A;3134;3;Rouge;0;6;0;0;None;None;0;AM;1636.5;0.27;0;0;2;3000;1;;
vs12;am;4;2;08Feb2013;1043;mixed;500;400;2000;4;27;0.290668135175;False;L;8;z;1;351;None;None;None;None;None;None;None;None;None;A;1543;1;Vert;0;7;0;0;None;None;0;AM;1671.5;0.27;0;0;2;3000;1;;
vs12;am;4;2;08Feb2013;1031;mixed;500;400;2000;1;35;4.16677726563;True;X;8;z;1;437;None;None;None;None;None;None;None;None;None;B;2101;5;Vert;0;7;0;0;None;None;0;AM;1086;0.28;0;0;3;3000;2;;
vs12;am;4;2;08Feb2013;1100;mixed;500;400;2000;8;5;2.48148316364;False;L;16;z;1;380;None;None;None;None;None;None;None;None;None;A;2414;1;Vert;0;5;0;0;None;None;0;AM;1621;0.28;0;0;2;3000;1;;
vs12;am;4;2;08Feb2013;1045;mixed;500;400;2000;5;9;3.98521673474;False;X;4;z;1;1099;None;None;None;None;None;None;None;None;None;A;1681;1;Vert;0;3;0;0;None;None;0;AM;1693;0.28;0;0;2;3000;1;;
vs12;am;4;2;08Feb2013;1038;mixed;500;400;2000;3;18;4.9640624268;False;L;8;z;1;640;None;None;None;None;None;None;None;None;None;A;2008;2;Vert;0;8;0;0;None;None;0;AM;1078.33;0.28;0;0;3;3000;2;;
vs12;am;4;2;08Feb2013;1041;mixed;500;400;2000;4;8;0.806449326012;False;X;16;a;1;504;None;None;None;None;None;None;None;None;None;A;2158;1;Rouge;0;2;0;0;None;None;0;AM;1665.5;0.28;0;0;2;3000;1;;
vs12;am;4;2;08Feb2013;1037;mixed;500;400;2000;3;11;5.42850399736;True;X;8;a;1;547;None;None;None;None;None;None;None;None;None;A;1651;1;Rouge;0;5;0;0;None;None;0;AM;1925.5;0.28;0;0;2;3000;1;;
vs12;am;4;2;08Feb2013;1015;Ent1;500;400;2000;1;7;4.15002607064;True;L;4;z;0;394;None;None;None;None;None;None;None;None;None;None;None;None;Rouge;0;3;0;0;None;None;0;AM;1977.5;0.28;0;0;2;3000;1;;
vs12;am;4;2;08Feb2013;1039;mixed;500;400;2000;3;31;2.56577142352;False;X;4;a;1;406;None;None;None;None;None;None;None;None;None;A;881;1;Rouge;0;2;0;0;None;None;0;AM;828.75;0.28;0;0;4;3000;3;;
vs12;am;4;2;08Feb2013;1044;mixed;500;400;2000;4;33;3.52220769734;True;L;8;z;1;487;None;None;None;None;None;None;None;None;None;B;626;4;Vert;0;3;0;0;None;None;0;AM;1623;0.29;0;0;2;3000;1;;
vs12;am;4;2;08Feb2013;1039;mixed;500;400;2000;3;30;5.13537160959;True;X;8;z;1;500;None;None;None;None;None;None;None;None;None;A;2510;1;Vert;0;5;0;0;None;None;0;AM;1680;0.29;0;0;2;3000;1;;
vs12;am;4;2;08Feb2013;1032;mixed;500;400;2000;2;1;0.304797256013;False;L;16;N;0;1000;None;None;None;None;None;None;None;None;None;D;4428;8;Rouge;0;1;0;0;None;None;0;AM;1093.33;0.29;0;0;3;3000;2;;
vs12;am;4;2;08Feb2013;1056;mixed;500;400;2000;7;15;2.4173196783;True;X;16;z;1;322;None;None;None;None;None;None;None;None;None;A;594;2;Vert;0;14;0;0;None;None;0;AM;1098.67;0.29;0;0;3;3000;2;;
vs12;am;4;2;08Feb2013;1045;mixed;500;400;2000;5;5;4.26257157764;False;L;4;z;1;336;None;None;None;None;None;None;None;None;None;A;1330;1;Vert;0;2;0;0;None;None;0;AM;1171.33;0.29;0;0;3;3000;2;;
vs12;am;4;2;08Feb2013;1034;mixed;500;400;2000;2;27;0.8724577498;True;X;4;z;1;365;None;None;None;None;None;None;None;None;None;A;1258;1;Vert;0;3;0;0;None;None;0;AM;1208.67;0.29;0;0;3;3000;2;;
vs12;am;4;2;08Feb2013;1055;mixed;500;400;2000;7;2;0.401745484142;True;L;16;a;1;304;None;None;None;None;None;None;None;None;None;B;856;5;Rouge;0;7;0;0;None;None;0;AM;1669.5;0.29;0;0;2;3000;1;;
vs12;am;4;2;08Feb2013;1033;mixed;500;400;2000;2;14;1.973614653;True;X;8;a;1;425;None;None;None;None;None;None;None;None;None;A;970;3;Rouge;0;2;0;0;None;None;0;AM;1674.5;0.29;0;0;2;3000;1;;
vs12;am;4;2;08Feb2013;1103;mixed;500;400;2000;8;36;0.465182733364;True;L;16;z;1;970;None;None;None;None;None;None;None;None;None;B;1200;4;Vert;0;1;0;0;None;None;0;AM;839.5;0.29;0;0;4;3000;3;;
vs12;am;4;2;08Feb2013;1043;mixed;500;400;2000;4;22;2.73345174084;False;X;4;a;1;624;None;None;None;None;None;None;None;None;None;A;1603;2;Rouge;0;2;0;0;None;None;0;AM;1323.67;0.3;0;0;3;3000;2;;
vs12;am;4;2;08Feb2013;1041;mixed;500;400;2000;4;6;0.0669671499416;False;X;16;z;1;587;None;None;None;None;None;None;None;None;None;A;1268;0;Vert;0;2;0;0;None;None;0;AM;1687.5;0.3;1;0;2;3000;1;;
vs12;am;4;2;08Feb2013;1056;mixed;500;400;2000;7;18;5.84601994428;True;L;8;a;1;467;None;None;None;None;None;None;None;None;None;A;1248;1;Rouge;0;7;0;0;None;None;0;AM;820;0.31;0;0;4;3000;3;;
vs12;am;4;2;08Feb2013;1017;Ent1;500;400;2000;1;7;3.25034576144;True;L;4;z;1;432;None;None;None;None;None;None;None;None;None;None;None;None;Vert;0;3;0;0;None;None;0;AM;988;0.31;0;0;4;3000;3;;
vs12;am;4;2;08Feb2013;1039;mixed;500;400;2000;3;23;5.00469741946;False;X;4;a;1;400;None;None;None;None;None;None;None;None;None;A;4328;1;Rouge;0;3;0;0;None;None;0;AM;1616;0.31;0;0;2;3000;1;;
vs12;am;4;2;08Feb2013;1052;mixed;500;400;2000;6;19;2.92257205175;True;L;4;z;1;359;None;None;None;None;None;None;None;None;None;A;2541;1;Vert;0;3;0;0;None;None;0;AM;1656;0.31;0;0;2;3000;1;;
vs12;am;4;2;08Feb2013;1039;mixed;500;400;2000;3;25;5.3560716583;False;X;16;a;1;621;None;None;None;None;None;None;None;None;None;B;1421;4;Rouge;0;2;0;0;None;None;0;AM;1746;0.31;0;0;2;3000;1;;
vs12;am;4;2;08Feb2013;1035;mixed;500;400;2000;2;33;5.38254685629;False;X;4;a;1;395;None;None;None;None;None;None;None;None;None;A;2564;1;Rouge;0;2;0;0;None;None;0;AM;1012.67;0.31;0;0;3;3000;2;;
vs12;am;4;2;08Feb2013;1016;Ent1;500;400;2000;1;11;2.73929996725;False;X;8;a;1;570;None;None;None;None;None;None;None;None;None;None;None;None;Rouge;0;3;0;0;None;None;0;AM;1017.33;0.31;1;0;3;3000;2;;
vs12;am;4;2;08Feb2013;1056;mixed;500;400;2000;7;14;5.84720161473;True;X;8;z;1;319;None;None;None;None;None;None;None;None;None;A;824;1;Vert;0;8;0;0;None;None;0;AM;1087.67;0.31;0;0;3;3000;2;;
vs12;am;4;2;08Feb2013;1034;mixed;500;400;2000;2;28;4.64816769684;False;L;8;z;1;509;None;None;None;None;None;None;None;None;None;A;2033;2;Vert;0;3;0;0;None;None;0;AM;1163.67;0.31;0;0;3;3000;2;;
vs12;am;4;2;08Feb2013;1058;mixed;500;400;2000;7;34;5.23348279555;True;X;4;z;1;817;None;None;None;None;None;None;None;None;None;A;2969;1;Vert;0;1;0;0;None;None;0;AM;1824.5;0.31;0;0;2;3000;1;;
vs12;am;4;2;08Feb2013;1017;Ent1;500;400;2000;1;8;5.24839734116;True;X;16;z;1;361;None;None;None;None;None;None;None;None;None;None;None;None;Vert;0;10;0;0;None;None;0;AM;1867.5;0.31;0;0;2;3000;1;;
vs12;am;4;2;08Feb2013;1056;mixed;500;400;2000;7;13;4.87690813677;True;L;16;z;1;657;None;None;None;None;None;None;None;None;None;A;697;1;Vert;0;9;0;0;None;None;0;AM;653.4;0.31;0;0;5;3000;4;;
vs12;am;4;2;08Feb2013;1058;mixed;500;400;2000;7;32;0.331263231951;False;L;8;a;1;419;None;None;None;None;None;None;None;None;None;A;1548;1;Rouge;0;4;0;0;None;None;0;AM;647;0.32;0;0;5;3000;4;;
vs12;am;4;2;08Feb2013;1016;Ent1;500;400;2000;1;10;5.16455340772;False;L;16;z;0;366;None;None;None;None;None;None;None;None;None;None;None;None;Rouge;0;8;0;0;None;None;0;AM;1043;0.32;0;0;3;3000;2;;
vs12;am;4;2;08Feb2013;1045;mixed;500;400;2000;5;6;5.92023246874;False;X;8;a;1;425;None;None;None;None;None;None;None;None;None;A;1595;1;Rouge;0;5;0;0;None;None;0;AM;1646;0.32;0;0;2;3000;1;;
vs12;am;4;2;08Feb2013;1100;mixed;500;400;2000;8;11;3.26944133718;True;X;16;z;1;572;None;None;None;None;None;None;None;None;None;A;765;1;Vert;0;6;0;0;None;None;0;AM;1712;0.32;0;0;2;3000;1;;
vs12;am;4;2;08Feb2013;1046;mixed;500;400;2000;5;19;1.19089839997;False;L;16;z;1;628;None;None;None;None;None;None;None;None;None;D;1380;8;Vert;0;2;0;0;None;None;0;AM;1118.33;0.32;0;0;3;3000;2;;
vs12;am;4;2;08Feb2013;1039;mixed;500;400;2000;3;26;5.89552442912;False;X;8;z;1;639;None;None;None;None;None;None;None;None;None;A;1327;3;Vert;0;2;0;0;None;None;0;AM;1301.67;0.32;0;0;3;3000;2;;
vs12;am;4;2;08Feb2013;1100;mixed;500;400;2000;8;12;0.191994555601;False;X;8;z;1;1234;None;None;None;None;None;None;None;None;None;A;730;1;Vert;0;3;0;0;None;None;0;AM;809.5;0.32;0;0;4;3000;3;;
vs12;am;4;2;08Feb2013;1042;mixed;500;400;2000;4;12;2.4118141015;False;L;4;a;1;448;None;None;None;None;None;None;None;None;None;A;2339;1;Rouge;0;3;0;0;None;None;0;AM;665;0.33;0;0;5;3000;4;;
vs12;am;4;2;08Feb2013;1043;mixed;500;400;2000;4;28;5.91343307881;False;X;8;z;1;572;None;None;None;None;None;None;None;None;None;A;1219;2;Vert;0;5;0;0;None;None;0;AM;752;0.33;0;0;4;3000;3;;
vs12;am;4;2;08Feb2013;1102;mixed;500;400;2000;8;30;4.09455663479;False;X;16;z;1;736;None;None;None;None;None;None;None;None;None;A;768;0;Vert;0;13;0;0;None;None;0;AM;1122;0.33;0;0;3;3000;2;;
vs12;am;4;2;08Feb2013;1102;mixed;500;400;2000;8;27;1.21390183514;False;L;4;a;1;285;None;None;None;None;None;None;None;None;None;A;704;1;Rouge;0;1;0;0;None;None;0;AM;1614;0.33;0;0;2;3000;1;;
vs12;am;4;2;08Feb2013;1102;mixed;500;400;2000;8;33;3.27159611389;True;L;8;z;1;372;None;None;None;None;None;None;None;None;None;A;1272;1;Vert;0;7;0;0;None;None;0;AM;1111.67;0.33;0;0;3;3000;2;;
vs12;am;4;2;08Feb2013;1056;mixed;500;400;2000;7;8;3.93295715811;False;L;4;z;1;333;None;None;None;None;None;None;None;None;None;A;1239;3;Vert;0;3;0;0;None;None;0;AM;1641.5;0.33;0;0;2;3000;1;;
vs12;am;4;2;08Feb2013;1029;mixed;500;400;2000;1;19;4.65754594113;False;X;4;z;1;356;None;None;None;None;None;None;None;None;None;A;2419;3;Vert;0;1;0;0;None;None;0;AM;1791.5;0.33;0;0;2;3000;1;;
vs12;am;4;2;08Feb2013;1019;Ent1;500;400;2000;1;8;6.20240808386;True;X;16;z;1;433;None;None;None;None;None;None;None;None;None;None;None;None;Vert;0;6;0;0;None;None;0;AM;792.8;0.33;0;0;5;3000;4;;
vs12;am;4;2;08Feb2013;1019;Ent1;500;400;2000;1;9;4.87146579025;True;X;8;z;1;417;None;None;None;None;None;None;None;None;None;None;None;None;Vert;0;1;0;0;None;None;0;AM;802.75;0.33;0;0;4;3000;3;;
vs12;am;4;2;08Feb2013;1047;mixed;500;400;2000;5;26;6.10596073486;False;X;16;0;0;None;None;None;None;None;None;None;None;None;A;None;None;Rouge;0;9;0;0;None;None;0;0;AM;566;0.34;1;0;4;2475;3;;
vs12;am;4;2;08Feb2013;1043;mixed;500;400;2000;4;26;4.32502869049;True;L;4;a;1;1167;None;None;None;None;None;None;None;None;None;A;1129;3;Rouge;0;3;0;0;None;None;0;AM;1202;0.34;0;0;3;3000;2;;
vs12;am;4;2;08Feb2013;1100;mixed;500;400;2000;8;9;3.20245188323;False;X;8;z;1;357;None;None;None;None;None;None;None;None;None;A;697;1;Vert;0;2;0;0;None;None;0;AM;1073.67;0.34;0;0;3;3000;2;;
vs12;am;4;2;08Feb2013;1019;Ent1;500;400;2000;1;1;2.19583796785;False;L;8;z;1;344;None;None;None;None;None;None;None;None;None;None;None;None;Vert;0;5;0;0;None;None;0;AM;1092.67;0.34;0;0;3;3000;2;;
vs12;am;4;2;08Feb2013;1047;mixed;500;400;2000;5;28;2.87971492252;False;L;8;z;1;865;None;None;None;None;None;None;None;None;None;A;2057;3;Vert;0;4;0;0;None;None;0;AM;1274;0.35;0;0;3;3000;2;;
vs12;am;4;2;08Feb2013;1043;mixed;500;400;2000;4;24;6.20767056195;True;X;8;a;1;396;None;None;None;None;None;None;None;None;None;A;1325;1;Rouge;0;8;0;0;None;None;0;AM;1493;0.35;0;0;2;3000;2;;
vs12;am;4;2;08Feb2013;1101;mixed;500;400;2000;8;18;4.2899712539;True;L;4;z;1;388;None;None;None;None;None;None;None;None;None;A;811;0;Vert;0;1;0;0;None;None;0;AM;1623;0.35;0;0;2;3000;1;;
vs12;am;4;2;08Feb2013;1052;mixed;500;400;2000;6;23;5.85544238166;False;L;16;a;0;905;None;None;None;None;None;None;None;None;None;D;1292;9;Vert;0;11;0;0;None;None;0;AM;2070;0.35;0;0;2;3000;1;;
vs12;am;4;2;08Feb2013;1035;mixed;500;400;2000;2;34;4.54981669671;False;X;8;a;1;351;None;None;None;None;None;None;None;None;None;A;1234;1;Rouge;0;7;0;0;None;None;0;AM;1660.5;0.35;0;0;2;3000;1;;
vs12;am;4;2;08Feb2013;1029;mixed;500;400;2000;1;13;4.22936399277;True;X;16;z;1;371;None;None;None;None;None;None;None;None;None;A;1485;0;Vert;0;9;0;0;None;None;0;AM;1180;0.36;0;0;3;3000;2;;
vs12;am;4;2;08Feb2013;1025;Ent2;500;400;2000;1;11;2.54796513872;True;X;4;z;1;675;None;None;None;None;None;None;None;None;None;A;2395;2;Vert;0;2;0;0;None;None;0;AM;1191;0.36;0;0;3;3000;2;;
vs12;am;4;2;08Feb2013;1017;Ent1;500;400;2000;1;1;1.10773070796;False;L;8;N;0;1000;None;None;None;None;None;None;None;None;None;None;None;None;Rouge;0;6;0;0;None;None;0;AM;1693;0.36;0;0;2;3000;1;;
vs12;am;4;2;08Feb2013;1033;mixed;500;400;2000;2;17;3.69876461298;False;L;4;z;1;341;None;None;None;None;None;None;None;None;None;A;2300;1;Vert;0;4;0;0;None;None;0;AM;1774;0.36;0;0;2;3000;1;;
vs12;am;4;2;08Feb2013;1037;mixed;500;400;2000;3;4;2.89072012552;False;X;16;a;1;384;None;None;None;None;None;None;None;None;None;A;1104;0;Rouge;0;11;0;0;None;None;0;AM;1070.67;0.36;0;0;3;3000;2;;
vs12;am;4;2;08Feb2013;1050;mixed;500;400;2000;6;1;6.20505723639;False;X;4;z;1;498;None;None;None;None;None;None;None;None;None;A;4519;1;Vert;0;1;0;0;None;None;0;AM;1257.67;0.36;0;0;3;3000;2;;
vs12;am;4;2;08Feb2013;1032;mixed;500;400;2000;2;5;0.739785402628;False;X;8;z;1;396;None;None;None;None;None;None;None;None;None;A;1793;1;Vert;0;2;0;0;None;None;0;AM;1614.5;0.36;0;0;2;3000;1;;
vs12;am;4;2;08Feb2013;1056;mixed;500;400;2000;7;11;3.57929745713;True;X;8;z;1;803;None;None;None;None;None;None;None;None;None;B;1417;4;Vert;0;8;0;0;None;None;0;AM;800.5;0.36;0;0;4;3000;3;;
vs12;am;4;2;08Feb2013;1046;mixed;500;400;2000;5;11;1.47226183675;False;X;4;a;1;348;None;None;None;None;None;None;None;None;None;A;1340;1;Rouge;0;1;0;0;None;None;0;AM;814.5;0.36;0;0;4;3000;3;;
vs12;am;4;2;08Feb2013;1051;mixed;500;400;2000;6;17;1.62397632652;False;L;4;z;1;711;None;None;None;None;None;None;None;None;None;A;1036;3;Vert;0;2;0;0;None;None;0;AM;815.5;0.36;0;0;4;3000;3;;
vs12;am;4;2;08Feb2013;1043;mixed;500;400;2000;4;30;1.47714536018;True;L;16;a;1;643;None;None;None;None;None;None;None;None;None;B;1002;5;Rouge;0;9;0;0;None;None;0;AM;1090;0.37;0;0;3;3000;2;;
vs12;am;4;2;08Feb2013;1018;Ent1;500;400;2000;1;5;2.6578000779;True;L;8;a;1;432;None;None;None;None;None;None;None;None;None;None;None;None;Rouge;0;7;0;0;None;None;0;AM;1329;0.37;0;0;3;3000;2;;
vs12;am;4;2;08Feb2013;1037;mixed;500;400;2000;3;5;0.330841274127;False;L;8;a;1;560;None;None;None;None;None;None;None;None;None;B;1099;4;Rouge;0;4;0;0;None;None;0;AM;1109.67;0.37;0;0;3;3000;2;;
vs12;am;4;2;08Feb2013;1048;mixed;500;400;2000;5;35;5.05776201211;True;X;8;a;1;337;None;None;None;None;None;None;None;None;None;B;1976;4;Rouge;0;4;0;0;None;None;0;AM;1655.5;0.37;0;0;2;3000;1;;
vs12;am;4;2;08Feb2013;1042;mixed;500;400;2000;4;17;5.16361893216;True;L;16;a;1;417;None;None;None;None;None;None;None;None;None;C;1271;6;Rouge;0;16;0;0;None;None;0;AM;1697.5;0.37;0;0;2;3000;1;;
vs12;am;4;2;08Feb2013;1051;mixed;500;400;2000;6;14;0.793199780779;True;X;4;a;1;1064;None;None;None;None;None;None;None;None;None;A;794;1;Rouge;0;1;0;0;None;None;0;AM;1778.5;0.37;0;0;2;3000;1;;
vs12;am;4;2;08Feb2013;1050;mixed;500;400;2000;6;6;0.204390379635;False;L;16;a;1;954;None;None;None;None;None;None;None;None;None;D;2101;8;Rouge;0;12;0;0;None;None;0;AM;904.25;0.37;0;0;4;3000;3;;
vs12;am;4;2;08Feb2013;1017;Ent1;500;400;2000;1;3;5.6885659623;True;X;4;z;1;659;None;None;None;None;None;None;None;None;None;None;None;None;Vert;0;2;0;0;None;None;0;AM;992;0.38;0;0;3;3000;2;;
vs12;am;4;2;08Feb2013;1042;mixed;500;400;2000;4;10;1.72487272149;True;L;16;z;1;789;None;None;None;None;None;None;None;None;None;C;1341;6;Vert;0;8;0;0;None;None;0;AM;1647;0.38;0;0;2;3000;1;;
vs12;am;4;2;08Feb2013;1102;mixed;500;400;2000;8;28;5.59321295591;True;X;16;a;1;853;None;None;None;None;None;None;None;None;None;A;1129;3;Rouge;0;13;0;0;None;None;0;AM;1099.33;0.38;0;0;3;3000;2;;
vs12;am;4;2;08Feb2013;1028;mixed;500;400;2000;1;11;0.102702033663;False;X;8;z;1;499;None;None;None;None;None;None;None;None;None;C;1790;6;Vert;0;8;0;0;None;None;0;AM;1623.5;0.38;0;0;2;3000;1;;
vs12;am;4;2;08Feb2013;1046;mixed;500;400;2000;5;12;0.36698747867;True;L;16;a;1;607;None;None;None;None;None;None;None;None;None;A;1853;2;Rouge;0;7;0;0;None;None;0;AM;1690.5;0.38;0;0;2;3000;1;;
vs12;am;4;2;08Feb2013;1046;mixed;500;400;2000;5;14;2.44254880939;True;L;16;z;0;861;None;None;None;None;None;None;None;None;None;D;2256;8;Rouge;0;5;0;0;None;None;0;AM;597.6;0.38;2;0;5;3000;4;;
vs12;am;4;2;08Feb2013;1034;mixed;500;400;2000;2;21;1.54763970752;True;L;8;z;1;464;None;None;None;None;None;None;None;None;None;A;872;1;Vert;0;8;0;0;None;None;0;AM;642.2;0.38;0;0;5;3000;4;;
vs12;am;4;2;08Feb2013;1039;mixed;500;400;2000;3;28;0.489918964125;True;X;16;a;1;599;None;None;None;None;None;None;None;None;None;C;928;6;Rouge;0;12;0;0;None;None;0;AM;815.5;0.38;0;0;4;3000;3;;
vs12;am;4;2;08Feb2013;1042;mixed;500;400;2000;4;19;4.37100430853;True;L;8;z;1;439;None;None;None;None;None;None;None;None;None;A;1635;3;Vert;0;6;0;0;None;None;0;AM;1701;0.39;0;0;2;3000;1;;
vs12;am;4;2;08Feb2013;1032;mixed;500;400;2000;2;4;5.72460877186;False;X;8;z;1;355;None;None;None;None;None;None;None;None;None;A;1071;0;Vert;0;1;0;0;None;None;0;AM;1792;0.39;0;0;2;3000;1;;
vs12;am;4;2;08Feb2013;1052;mixed;500;400;2000;6;21;3.35270648968;True;L;16;a;1;582;None;None;None;None;None;None;None;None;None;D;857;9;Rouge;0;5;0;0;None;None;0;AM;1086.67;0.39;0;0;3;3000;2;;
vs12;am;4;2;08Feb2013;1057;mixed;500;400;2000;7;30;2.21037500027;False;L;8;z;1;371;None;None;None;None;None;None;None;None;None;A;653;3;Vert;0;1;0;0;None;None;0;AM;1643.5;0.39;0;0;2;3000;1;;
vs12;am;4;2;08Feb2013;1044;mixed;500;400;2000;4;36;1.70144563647;False;L;8;z;1;393;None;None;None;None;None;None;None;None;None;A;1648;3;Vert;0;5;0;0;None;None;0;AM;1092;0.4;0;0;3;3000;2;;
vs12;am;4;2;08Feb2013;1019;Ent1;500;400;2000;1;11;0.337907023822;False;X;8;z;1;499;None;None;None;None;None;None;None;None;None;None;None;None;Vert;0;3;0;0;None;None;0;AM;1101;0.4;0;0;3;3000;2;;
vs12;am;4;2;08Feb2013;1057;mixed;500;400;2000;7;26;5.56346477431;True;L;4;a;1;1028;None;None;None;None;None;None;None;None;None;A;1978;3;Rouge;0;3;0;0;None;None;0;AM;1193;0.4;0;0;3;3000;2;;
vs12;am;4;2;08Feb2013;1033;mixed;500;400;2000;2;16;4.57040350307;True;X;16;z;1;424;None;None;None;None;None;None;None;None;None;A;1078;2;Vert;0;2;0;0;None;None;0;AM;1662;0.4;0;0;2;3000;1;;
vs12;am;4;2;08Feb2013;1044;mixed;500;400;2000;4;35;1.22314684279;True;X;16;a;0;978;None;None;None;None;None;None;None;None;None;B;1131;5;Vert;0;11;0;0;None;None;0;AM;1126.33;0.4;0;0;3;3000;2;;
vs12;am;4;2;08Feb2013;1017;Ent1;500;400;2000;1;5;4.98191972868;True;L;8;z;1;819;None;None;None;None;None;None;None;None;None;None;None;None;Vert;0;2;0;0;None;None;0;AM;1406.33;0.4;1;0;3;3000;2;;
vs12;am;4;2;08Feb2013;1038;mixed;500;400;2000;3;19;1.72713461735;True;L;8;z;1;378;None;None;None;None;None;None;None;None;None;A;2208;1;Vert;0;3;0;0;None;None;0;AM;1614.5;0.4;0;0;2;3000;1;;
vs12;am;4;2;08Feb2013;1034;mixed;500;400;2000;2;24;2.23009983296;False;X;16;a;1;627;None;None;None;None;None;None;None;None;None;D;1378;8;Rouge;0;10;0;0;None;None;0;AM;831;0.42;0;0;4;3000;3;;
vs12;am;4;2;08Feb2013;1101;mixed;500;400;2000;8;15;4.01932786701;True;X;4;a;1;340;None;None;None;None;None;None;None;None;None;A;1018;0;Rouge;0;4;0;0;None;None;0;AM;1627;0.42;0;0;2;3000;1;;
vs12;am;4;2;08Feb2013;1029;mixed;500;400;2000;1;12;3.2533955078;True;L;4;a;1;342;None;None;None;None;None;None;None;None;None;A;2061;2;Rouge;0;4;0;0;None;None;0;AM;1778;0.42;0;0;2;3000;1;;
vs12;am;4;2;08Feb2013;1041;mixed;500;400;2000;4;1;4.01168962434;False;X;8;z;1;536;None;None;None;None;None;None;None;None;None;A;1658;1;Vert;0;8;0;0;None;None;0;AM;1029.33;0.42;1;0;3;3000;2;;
vs12;am;4;2;08Feb2013;1056;mixed;500;400;2000;7;16;4.76814513175;False;L;4;z;1;268;None;None;None;None;None;None;None;None;None;A;673;1;Vert;0;2;0;0;None;None;0;AM;1073.33;0.42;0;0;3;3000;2;;
vs12;am;4;2;08Feb2013;1028;mixed;500;400;2000;1;9;3.226500403;True;X;16;z;1;454;None;None;None;None;None;None;None;None;None;C;1468;7;Vert;0;4;0;0;None;None;0;AM;1222.33;0.42;0;0;3;3000;2;;
vs12;am;4;2;08Feb2013;1033;mixed;500;400;2000;2;10;1.54509315804;True;L;8;a;1;397;None;None;None;None;None;None;None;None;None;A;971;2;Rouge;0;8;0;0;None;None;0;AM;536.6;0.42;2;0;5;3000;4;;
vs12;am;4;2;08Feb2013;1018;Ent1;500;400;2000;1;10;1.30197677251;False;L;16;a;0;314;None;None;None;None;None;None;None;None;None;None;None;None;Vert;0;12;0;0;None;None;0;AM;802.25;0.42;0;0;4;3000;3;;
vs12;am;4;2;08Feb2013;1025;Ent2;500;400;2000;1;12;2.35566527651;False;X;4;z;1;505;None;None;None;None;None;None;None;None;None;A;1859;1;Vert;0;2;0;0;None;None;0;AM;1871.5;0.43;0;0;2;3000;1;;
vs12;am;4;2;08Feb2013;1029;mixed;500;400;2000;1;14;2.08761428883;False;L;8;a;1;625;None;None;None;None;None;None;None;None;None;C;2018;6;Rouge;0;6;0;0;None;None;0;AM;592.17;0.44;0;0;6;3000;5;;
vs12;am;4;2;08Feb2013;1101;mixed;500;400;2000;8;21;3.15161030098;False;X;16;z;1;902;None;None;None;None;None;None;None;None;None;A;782;3;Vert;0;6;0;0;None;None;0;AM;1294;0.45;0;0;3;3000;2;;
vs12;am;4;2;08Feb2013;1032;mixed;500;400;2000;2;3;0.218071263541;True;L;4;z;1;294;None;None;None;None;None;None;None;None;None;A;1578;1;Vert;0;2;0;0;None;None;0;AM;1074;0.46;0;0;3;3000;2;;
vs12;am;4;2;08Feb2013;1046;mixed;500;400;2000;5;15;4.66429853892;True;L;4;a;1;509;None;None;None;None;None;None;None;None;None;A;1273;2;Rouge;0;4;0;0;None;None;0;AM;1707;0.46;0;0;2;3000;1;;
vs12;am;4;2;08Feb2013;1017;Ent1;500;400;2000;1;9;4.42664170533;True;X;8;z;1;343;None;None;None;None;None;None;None;None;None;None;None;None;Vert;0;5;0;0;None;None;0;AM;1937.5;0.46;0;0;2;3000;1;;
vs12;am;4;2;08Feb2013;1102;mixed;500;400;2000;8;32;1.8381605306;False;X;4;z;1;1302;None;None;None;None;None;None;None;None;None;A;946;1;Vert;0;3;0;0;None;None;0;AM;539.17;0.46;0;0;6;3000;5;;
vs12;am;4;2;08Feb2013;1025;Ent2;500;400;2000;1;8;6.11683297238;True;L;4;a;0;349;None;None;None;None;None;None;None;None;None;A;2868;2;Vert;0;1;0;0;None;None;0;AM;1791;0.47;0;0;2;3000;1;;
vs12;am;4;2;08Feb2013;1057;mixed;500;400;2000;7;28;3.36296719797;False;X;16;a;1;707;None;None;None;None;None;None;None;None;None;A;809;1;Rouge;0;10;0;0;None;None;0;AM;1145.67;0.47;0;0;3;3000;2;;
vs12;am;4;2;08Feb2013;1100;mixed;500;400;2000;8;7;4.31657969082;False;L;4;z;1;447;None;None;None;None;None;None;None;None;None;A;1005;2;Vert;0;4;0;0;None;None;0;AM;735.8;0.47;0;0;5;3000;4;;
vs12;am;4;2;08Feb2013;1028;mixed;500;400;2000;1;4;5.79791697414;False;L;8;z;0;1223;None;None;None;None;None;None;None;None;None;C;2050;6;Rouge;0;3;0;0;None;None;0;AM;1741.5;0.48;1;0;2;3000;1;;
vs12;am;4;2;08Feb2013;1033;mixed;500;400;2000;2;9;0.532134511988;False;X;16;z;1;433;None;None;None;None;None;None;None;None;None;B;1019;4;Vert;0;3;0;0;None;None;0;AM;1681;0.49;0;0;2;3000;1;;
vs12;am;4;2;08Feb2013;1028;mixed;500;400;2000;1;5;0.423837854467;True;L;16;z;1;499;None;None;None;None;None;None;None;None;None;A;1719;3;Vert;0;2;0;0;None;None;0;AM;1883;0.49;0;0;2;3000;1;;
vs12;am;4;2;08Feb2013;1041;mixed;500;400;2000;4;9;4.07510866355;True;L;4;a;1;395;None;None;None;None;None;None;None;None;None;A;1813;2;Rouge;0;1;0;0;None;None;0;AM;1231.67;0.49;0;0;3;3000;2;;
vs12;am;4;2;08Feb2013;1028;mixed;500;400;2000;1;7;2.2516398258;False;X;16;z;1;1037;None;None;None;None;None;None;None;None;None;C;2118;6;Vert;0;16;0;0;None;None;0;AM;1278.67;0.49;0;0;3;3000;2;;
vs12;am;4;2;08Feb2013;1017;Ent1;500;400;2000;1;6;6.00470502879;False;X;16;z;1;551;None;None;None;None;None;None;None;None;None;None;None;None;Vert;0;6;0;0;None;None;0;AM;722.75;0.49;1;0;4;3000;3;;
vs12;am;4;2;08Feb2013;1019;Ent1;500;400;2000;1;3;5.99356292485;True;X;4;a;1;354;None;None;None;None;None;None;None;None;None;None;None;None;Rouge;0;2;0;0;None;None;0;AM;940.25;0.49;1;0;4;3000;3;;
vs12;am;4;2;08Feb2013;1018;Ent1;500;400;2000;1;9;5.18992778201;True;X;8;a;1;423;None;None;None;None;None;None;None;None;None;None;None;None;Rouge;0;1;0;0;None;None;0;AM;656;0.5;0;0;6;3000;5;;
vs12;am;4;2;08Feb2013;1018;Ent1;500;400;2000;1;7;2.08126088034;True;L;4;a;1;409;None;None;None;None;None;None;None;None;None;None;None;None;Rouge;0;4;0;0;None;None;0;AM;1219;0.52;1;0;3;3000;2;;
vs12;am;4;2;08Feb2013;1101;mixed;500;400;2000;8;22;1.44837422068;True;X;16;z;1;326;None;None;None;None;None;None;None;None;None;A;804;0;Vert;0;6;0;0;None;None;0;AM;760.75;0.53;0;0;4;3000;3;;
vs12;am;4;2;08Feb2013;1018;Ent1;500;400;2000;1;2;3.66455505215;False;X;4;a;1;437;None;None;None;None;None;None;None;None;None;None;None;None;Rouge;0;1;0;0;None;None;0;AM;1926.5;0.54;0;0;2;3000;1;;
vs12;am;4;2;08Feb2013;1018;Ent1;500;400;2000;1;11;5.03437929959;False;X;8;0;0;None;None;None;None;None;None;None;None;None;None;None;None;Rouge;0;1;0;0;None;None;0;0;AM;403.5;0.54;1;0;2;1276;1;;
vs12;am;4;2;08Feb2013;1047;mixed;500;400;2000;5;22;4.35284027395;True;X;16;a;1;451;None;None;None;None;None;None;None;None;None;C;730;6;Rouge;0;6;0;0;None;None;0;AM;452.14;0.54;0;0;7;3000;6;;
vs12;am;4;2;08Feb2013;1057;mixed;500;400;2000;7;21;3.28510662684;True;L;4;z;1;344;None;None;None;None;None;None;None;None;None;A;1533;0;Vert;0;4;0;0;None;None;0;AM;536.67;0.54;0;0;6;3000;5;;
vs12;am;4;2;08Feb2013;1016;Ent1;500;400;2000;1;9;3.04809273521;True;X;8;N;0;1000;None;None;None;None;None;None;None;None;None;None;None;None;Vert;0;1;0;0;None;None;0;AM;1664.5;0.55;0;0;2;3000;1;;
vs12;am;4;2;08Feb2013;1043;mixed;500;400;2000;4;21;3.36424355464;False;X;4;a;1;410;None;None;None;None;None;None;None;None;None;A;1395;1;Rouge;0;1;0;0;None;None;0;AM;914;0.56;0;0;4;3000;3;;
vs12;am;4;2;08Feb2013;1031;mixed;500;400;2000;1;32;3.68319742907;False;X;8;z;1;584;None;None;None;None;None;None;None;None;None;B;1656;4;Vert;0;4;0;0;None;None;0;AM;1693.5;0.56;0;0;2;3000;1;;
vs12;am;4;2;08Feb2013;1057;mixed;500;400;2000;7;22;3.78236089154;False;X;16;a;1;610;None;None;None;None;None;None;None;None;None;A;1507;2;Rouge;0;5;0;0;None;None;0;AM;542;0.57;0;0;6;3000;5;;
vs12;am;4;2;08Feb2013;1039;mixed;500;400;2000;3;24;3.77578819608;False;L;4;z;1;379;None;None;None;None;None;None;None;None;None;A;2135;1;Vert;0;3;0;0;None;None;0;AM;1013.67;0.57;0;0;3;3000;2;;
vs12;am;4;2;08Feb2013;1035;mixed;500;400;2000;2;31;4.01952205889;True;L;16;a;1;1001;None;None;None;None;None;None;None;None;None;B;1431;4;Rouge;0;10;0;0;None;None;0;AM;556;0.6;0;0;6;3000;5;;
vs12;am;4;2;08Feb2013;1047;mixed;500;400;2000;5;20;0.129421151453;False;L;8;a;1;459;None;None;None;None;None;None;None;None;None;C;1477;6;Rouge;0;8;0;0;None;None;0;AM;1623.5;0.61;0;0;2;3000;1;;
vs12;am;4;2;08Feb2013;1051;mixed;500;400;2000;6;16;5.66382285167;True;X;16;z;1;1440;None;None;None;None;None;None;None;None;None;C;2316;6;Vert;0;4;0;0;None;None;0;AM;859.25;0.62;0;0;4;3000;3;;
vs12;am;4;2;08Feb2013;1048;mixed;500;400;2000;5;32;1.32672972142;True;L;8;a;1;1108;None;None;None;None;None;None;None;None;None;A;2135;3;Rouge;0;6;0;0;None;None;0;AM;563.5;0.63;0;0;6;3000;5;;
vs12;am;4;2;08Feb2013;1051;mixed;500;400;2000;6;9;1.31835091745;True;L;16;z;1;746;None;None;None;None;None;None;None;None;None;D;1209;8;Vert;0;16;0;0;None;None;0;AM;810.25;0.63;1;0;4;3000;3;;
vs12;am;4;2;08Feb2013;1025;Ent2;500;400;2000;1;5;1.15889181159;False;L;16;0;0;None;None;None;None;None;None;None;None;None;A;None;None;Vert;0;1;0;0;None;None;0;0;AM;924.67;0.63;1;0;3;2919;2;;
vs12;am;4;2;08Feb2013;1034;mixed;500;400;2000;2;22;2.47146386053;True;L;16;a;1;743;None;None;None;None;None;None;None;None;None;C;1083;6;Rouge;0;6;0;0;None;None;0;AM;1166.33;0.64;0;0;3;3000;2;;
vs12;am;4;2;08Feb2013;1100;mixed;500;400;2000;8;13;4.84094146129;False;L;16;a;1;894;None;None;None;None;None;None;None;None;None;D;643;8;Rouge;0;14;0;0;None;None;0;AM;747;0.65;0;0;4;3000;3;;
vs12;am;4;2;08Feb2013;1019;Ent1;500;400;2000;1;12;2.48676254332;True;L;16;a;1;441;None;None;None;None;None;None;None;None;None;None;None;None;Rouge;0;10;0;0;None;None;0;AM;940;0.66;0;0;4;3000;3;;
vs12;am;4;2;08Feb2013;1015;Ent1;500;400;2000;1;2;5.75160282682;False;X;4;a;1;1113;None;None;None;None;None;None;None;None;None;None;None;None;Rouge;0;3;0;0;None;None;0;AM;1121.33;0.66;0;0;3;3000;2;;
vs12;am;4;2;08Feb2013;1051;mixed;500;400;2000;6;10;4.32794178836;False;X;4;a;1;465;None;None;None;None;None;None;None;None;None;A;5832;2;Rouge;0;4;0;0;None;None;0;AM;417.29;0.66;2;0;7;3000;6;;
vs12;am;4;2;08Feb2013;1033;mixed;500;400;2000;2;15;4.76725015447;False;L;16;z;1;847;None;None;None;None;None;None;None;None;None;D;899;9;Vert;0;8;0;0;None;None;0;AM;635;0.68;1;0;5;3000;4;;
vs12;am;4;2;08Feb2013;1019;Ent1;500;400;2000;1;10;5.60658160313;False;L;16;z;1;354;None;None;None;None;None;None;None;None;None;None;None;None;Vert;0;10;0;0;None;None;0;AM;1243;0.69;1;0;3;3000;2;;
vs12;am;4;2;08Feb2013;1019;Ent1;500;400;2000;1;7;3.05589675437;True;L;4;z;1;466;None;None;None;None;None;None;None;None;None;None;None;None;Vert;0;3;0;0;None;None;0;AM;1074;0.7;0;0;3;3000;2;;
vs12;am;4;2;08Feb2013;1101;mixed;500;400;2000;8;16;0.308109533743;True;X;4;z;1;1258;None;None;None;None;None;None;None;None;None;A;1849;2;Vert;0;4;0;0;None;None;0;AM;913;0.73;0;0;4;3000;3;;
vs12;am;4;2;08Feb2013;1030;mixed;500;400;2000;1;29;2.18410586948;False;X;16;a;1;528;None;None;None;None;None;None;None;None;None;A;1465;3;Rouge;0;5;0;0;None;None;0;AM;802.5;0.75;0;0;4;3000;3;;
vs12;am;4;2;08Feb2013;1050;mixed;500;400;2000;6;8;5.75767664505;True;X;16;a;1;843;None;None;None;None;None;None;None;None;None;C;1714;6;Rouge;0;5;0;0;None;None;0;AM;929.25;0.82;0;0;4;3000;3;;
vs12;am;4;2;08Feb2013;1058;mixed;500;400;2000;7;33;2.85451368427;False;L;8;z;1;273;None;None;None;None;None;None;None;None;None;A;810;1;Vert;0;1;0;0;None;None;0;AM;636.2;0.86;0;0;5;3000;4;;
vs12;am;4;2;08Feb2013;1101;mixed;500;400;2000;8;14;0.718057587152;True;L;4;a;1;530;None;None;None;None;None;None;None;None;None;A;1323;1;Rouge;0;2;0;0;None;None;0;AM;833;0.88;0;0;4;3000;3;;
vs12;am;4;2;08Feb2013;1101;mixed;500;400;2000;8;17;4.11477238;True;L;8;a;1;830;None;None;None;None;None;None;None;None;None;D;1311;9;Rouge;0;3;0;0;None;None;0;AM;1783;0.89;0;0;2;3000;1;;
vs12;am;4;2;08Feb2013;1101;mixed;500;400;2000;8;19;0.509393691691;True;X;8;a;1;424;None;None;None;None;None;None;None;None;None;B;1364;5;Rouge;0;5;0;0;None;None;0;AM;1081.33;0.91;0;0;3;3000;2;;
vs12;am;4;2;08Feb2013;1053;mixed;500;400;2000;6;32;2.42708950147;False;X;16;a;1;689;None;None;None;None;None;None;None;None;None;A;2566;3;Rouge;0;15;0;0;None;None;0;AM;637.2;0.96;1;0;5;3000;4;;
vs12;am;4;2;08Feb2013;1030;mixed;500;400;2000;1;24;2.13811330052;False;L;4;z;1;625;None;None;None;None;None;None;None;None;None;A;985;1;Vert;0;1;0;0;None;None;0;AM;639.2;1.01;0;0;5;3000;4;;
vs12;am;4;2;08Feb2013;1019;Ent1;500;400;2000;1;6;5.71742485459;False;X;16;a;1;379;None;None;None;None;None;None;None;None;None;None;None;None;Rouge;0;8;0;0;None;None;0;AM;644.83;1.03;0;0;6;3000;5;;
vs12;am;4;2;08Feb2013;1051;mixed;500;400;2000;6;13;5.64733478925;True;X;16;z;1;690;None;None;None;None;None;None;None;None;None;A;816;1;Vert;0;5;0;0;None;None;0;AM;1873.5;1.04;1;0;2;3000;1;;
vs12;am;4;2;08Feb2013;1033;mixed;500;400;2000;2;18;0.919063123852;True;X;8;a;1;929;None;None;None;None;None;None;None;None;None;A;1274;3;Rouge;0;5;0;0;None;None;0;AM;758.6;1.04;0;0;5;3000;4;;
vs12;am;4;2;08Feb2013;1057;mixed;500;400;2000;7;25;0.685392475234;False;L;4;a;1;551;None;None;None;None;None;None;None;None;None;A;1299;3;Rouge;0;3;0;0;None;None;0;AM;821.5;1.05;0;0;4;3000;3;;
vs12;am;4;2;08Feb2013;1102;mixed;500;400;2000;8;29;5.65003344618;False;X;8;a;1;308;None;None;None;None;None;None;None;None;None;A;3882;1;Rouge;0;7;0;0;None;None;0;AM;1003.67;1.09;1;0;3;3000;2;;
vs12;am;4;2;08Feb2013;1056;mixed;500;400;2000;7;19;2.8930002711;False;L;16;z;1;712;None;None;None;None;None;None;None;None;None;D;1018;8;Vert;0;10;0;0;None;None;0;AM;527;1.14;0;0;6;3000;5;;
vs12;am;4;2;08Feb2013;1046;mixed;500;400;2000;5;16;1.39601221686;False;L;16;z;1;560;None;None;None;None;None;None;None;None;None;D;1018;8;Vert;0;9;0;0;None;None;0;AM;433.71;1.19;1;0;7;3000;6;;
vs12;am;4;2;08Feb2013;1029;mixed;500;400;2000;1;15;5.73130418841;True;X;4;z;1;366;None;None;None;None;None;None;None;None;None;A;2984;1;Vert;0;3;0;0;None;None;0;AM;803.75;1.21;0;0;4;3000;3;;
vs12;am;4;2;08Feb2013;1058;mixed;500;400;2000;7;35;5.47748849597;True;X;16;z;1;342;None;None;None;None;None;None;None;None;None;A;783;1;Vert;0;8;0;0;None;None;0;AM;1078;1.28;0;0;3;3000;2;;
vs12;am;4;2;08Feb2013;1036;mixed;500;400;2000;3;1;5.21116507775;True;L;16;z;1;609;None;None;None;None;None;None;None;None;None;A;2333;3;Vert;0;8;0;0;None;None;0;AM;461;1.35;2;0;5;3000;4;;
vs12;am;4;2;08Feb2013;1052;mixed;500;400;2000;6;27;5.84486635854;False;X;16;z;1;1116;None;None;None;None;None;None;None;None;None;D;1082;8;Vert;0;6;0;0;None;None;0;AM;674.2;1.37;0;0;5;3000;4;;
vs12;am;4;2;08Feb2013;1018;Ent1;500;400;2000;1;12;0.935645305929;True;L;16;0;0;None;None;None;None;None;None;None;None;None;None;None;None;Rouge;0;10;0;0;None;None;0;0;AM;223.86;1.46;1;0;7;1939;6;;
vs12;am;4;2;08Feb2013;1057;mixed;500;400;2000;7;24;4.46299516736;False;X;8;z;1;311;None;None;None;None;None;None;None;None;None;A;968;0;Vert;0;7;0;0;None;None;0;AM;878.25;1.46;0;0;4;3000;3;;
vs12;am;4;2;08Feb2013;1018;Ent1;500;400;2000;1;8;4.00687977446;True;X;16;z;1;621;None;None;None;None;None;None;None;None;None;None;None;None;Vert;0;13;0;0;None;None;0;AM;457.5;1.57;1;0;6;3000;5;;
vs12;am;4;2;08Feb2013;1052;mixed;500;400;2000;6;25;3.83024326821;False;L;8;a;1;527;None;None;None;None;None;None;None;None;None;A;2907;2;Rouge;0;6;0;0;None;None;0;AM;345.11;1.65;0;0;9;3000;8;;
vs12;am;4;2;08Feb2013;1043;mixed;500;400;2000;4;29;3.91863354715;True;X;16;0;0;None;None;None;None;None;None;None;None;None;A;None;None;Vert;0;12;0;0;None;None;0;0;AM;460;1.82;1;0;5;2564;4;;
vs12;am;4;2;08Feb2013;1034;mixed;500;400;2000;2;26;2.42261249446;False;X;4;z;1;326;None;None;None;None;None;None;None;None;None;A;2320;1;Vert;0;1;0;0;None;None;0;AM;607;1.85;1;0;5;3000;4;;
vs12;am;4;2;08Feb2013;1042;mixed;500;400;2000;4;15;5.24264579411;False;L;16;z;1;640;None;None;None;None;None;None;None;None;None;D;2489;8;Vert;0;9;0;0;None;None;0;AM;632.4;1.9;1;0;5;3000;4;;
vs12;am;4;2;08Feb2013;1016;Ent1;500;400;2000;1;12;3.97120516201;True;L;16;0;0;None;None;None;None;None;None;None;None;None;None;None;None;Vert;0;12;0;0;None;None;0;0;AM;423.67;1.92;0;0;6;2749;5;;
vs12;am;4;2;08Feb2013;1030;mixed;500;400;2000;1;23;6.13200190566;True;L;16;z;1;1217;None;None;None;None;None;None;None;None;None;D;1728;8;Vert;0;13;0;0;None;None;0;AM;511.2;2.05;2;0;5;3000;5;;
vs12;am;4;2;08Feb2013;1052;mixed;500;400;2000;6;24;1.89106028361;True;L;16;0;0;None;None;None;None;None;None;None;None;None;D;None;None;Vert;0;11;0;0;None;None;0;0;AM;170.86;2.08;1;0;7;1672;6;;
vs12;am;4;2;08Feb2013;1046;mixed;500;400;2000;5;18;2.81330172424;True;L;16;a;1;1236;None;None;None;None;None;None;None;None;None;D;1329;8;Rouge;0;15;0;0;None;None;0;AM;626;2.15;1;0;5;3000;4;;
vs12;am;4;2;08Feb2013;1030;mixed;500;400;2000;1;22;5.70305100792;False;X;16;a;0;1422;None;None;None;None;None;None;None;None;None;D;1601;8;Vert;0;2;0;0;None;None;0;AM;760.25;2.15;0;0;4;3000;3;;
vs12;am;4;2;08Feb2013;1048;mixed;500;400;2000;5;33;4.42775887427;True;X;16;a;1;359;None;None;None;None;None;None;None;None;None;C;1461;6;Rouge;0;10;0;0;None;None;0;AM;799.75;2.15;0;0;4;3000;3;;
vs12;am;4;2;08Feb2013;1019;Ent1;500;400;2000;1;5;1.88762314849;True;L;8;z;1;2994;None;None;None;None;None;None;None;None;None;None;None;None;Vert;0;5;0;0;None;None;0;AM;340;2.2;2;0;9;3000;8;;
vs12;am;4;2;08Feb2013;1034;mixed;500;400;2000;2;25;1.81315792521;True;X;16;a;1;967;None;None;None;None;None;None;None;None;None;C;2759;6;Rouge;0;15;0;0;None;None;0;AM;423.57;2.29;1;0;7;3000;6;;
vs12;am;4;2;08Feb2013;1053;mixed;500;400;2000;6;36;1.29347770598;True;X;4;a;1;322;None;None;None;None;None;None;None;None;None;A;1163;1;Rouge;0;3;0;0;None;None;0;AM;736.25;2.54;1;0;4;3000;3;;
vs12;am;4;2;08Feb2013;1018;Ent1;500;400;2000;1;4;0.880473613636;False;L;4;a;1;466;None;None;None;None;None;None;None;None;None;None;None;None;Rouge;0;2;0;0;None;None;0;AM;686;2.58;1;0;5;3000;4;;
vs12;am;4;2;08Feb2013;1047;mixed;500;400;2000;5;24;1.65022387439;False;L;4;a;1;509;None;None;None;None;None;None;None;None;None;B;1761;4;Rouge;0;4;0;0;None;None;0;AM;1128.33;2.58;0;0;3;3000;2;;
vs12;am;4;2;08Feb2013;1031;mixed;500;400;2000;1;33;4.83819918259;False;L;16;0;0;None;None;None;None;None;None;None;None;None;B;None;None;Rouge;0;8;0;0;None;None;0;0;AM;425.67;2.75;1;0;3;1566;2;;
vs12;am;4;2;08Feb2013;1017;Ent1;500;400;2000;1;2;1.21504482117;False;X;4;a;1;325;None;None;None;None;None;None;None;None;None;None;None;None;Rouge;0;1;0;0;None;None;0;AM;756.4;2.81;0;0;5;3000;4;;
vs12;am;4;2;08Feb2013;1038;mixed;500;400;2000;3;21;1.35006490768;True;L;16;a;1;674;None;None;None;None;None;None;None;None;None;A;1029;1;Rouge;0;11;0;0;None;None;0;AM;895.25;2.92;0;0;4;3000;3;;
vs12;ber;4;2;08Feb2013;1142;Ent1;500;400;2000;1;2;4.21249549081;False;X;16;0;0;None;None;None;None;None;None;None;None;None;None;None;None;Vert;0;6;0;0;None;None;0;0;BER;623;0;0;0;1;637;0;;
vs12;ber;4;2;08Feb2013;1201;mixed;500;400;2000;2;36;3.65904923642;True;X;4;z;1;372;None;None;None;None;None;None;None;None;None;A;889;3;Vert;0;2;0;0;None;None;0;BER;3000;0;0;0;1;3000;0;;
vs12;ber;4;2;08Feb2013;1143;Ent1;500;400;2000;1;7;2.99080076616;True;X;8;a;1;151;None;None;None;None;None;None;None;None;None;None;None;None;Rouge;0;8;0;0;None;None;0;BER;3000;0;0;0;1;3000;0;;
vs12;ber;4;2;08Feb2013;1219;mixed;500;400;2000;7;15;1.42336161456;True;L;16;z;1;398;None;None;None;None;None;None;None;None;None;D;970;9;Vert;0;14;0;0;None;None;0;BER;3000;0;0;0;1;3000;0;;
vs12;ber;4;2;08Feb2013;1153;mixed;500;400;2000;1;22;0.428648695988;True;X;4;a;1;296;None;None;None;None;None;None;None;None;None;A;709;1;Rouge;0;2;0;0;None;None;0;BER;3000;0;0;0;1;3000;0;;
vs12;ber;4;2;08Feb2013;1210;mixed;500;400;2000;5;3;1.74276968864;False;L;16;z;0;962;None;None;None;None;None;None;None;None;None;D;1020;8;Rouge;0;3;0;0;None;None;0;BER;3000;0;0;0;1;3000;0;;
vs12;ber;4;2;08Feb2013;1223;mixed;500;400;2000;8;22;4.62638500915;False;L;4;a;1;311;None;None;None;None;None;None;None;None;None;A;687;1;Rouge;0;2;0;0;None;None;0;BER;3000;0;0;0;1;3000;0;;
vs12;ber;4;2;08Feb2013;1210;mixed;500;400;2000;5;2;5.24213011484;False;L;4;a;1;313;None;None;None;None;None;None;None;None;None;A;793;1;Rouge;0;1;0;0;None;None;0;BER;3000;0;0;0;1;3000;0;;
vs12;ber;4;2;08Feb2013;1150;Ent2;500;400;2000;1;5;4.19795553922;True;L;16;z;1;448;None;None;None;None;None;None;None;None;None;C;7349;6;Vert;0;14;0;0;None;None;0;BER;3000;0;0;0;1;3000;0;;
vs12;ber;4;2;08Feb2013;1145;Ent1;500;400;2000;1;4;2.12700548574;True;X;4;a;1;241;None;None;None;None;None;None;None;None;None;None;None;None;Rouge;0;3;0;0;None;None;0;BER;3000;0;0;0;1;3000;0;;
vs12;ber;4;2;08Feb2013;1203;mixed;500;400;2000;3;8;2.41292546118;True;L;16;z;1;300;None;None;None;None;None;None;None;None;None;A;721;1;Vert;0;14;0;0;None;None;0;BER;3000;0;0;0;1;3000;0;;
vs12;ber;4;2;08Feb2013;1216;mixed;500;400;2000;6;25;4.41756859361;True;L;16;z;1;480;None;None;None;None;None;None;None;None;None;D;1023;9;Vert;0;4;0;0;None;None;0;BER;3000;0;0;0;1;3000;0;;
vs12;ber;4;2;08Feb2013;1217;mixed;500;400;2000;6;34;3.95109773148;True;X;8;a;1;421;None;None;None;None;None;None;None;None;None;A;4158;0;Rouge;0;8;0;0;None;None;0;BER;3000;0;0;0;1;3000;0;;
vs12;ber;4;2;08Feb2013;1218;mixed;500;400;2000;7;2;5.99189594138;False;L;4;z;1;327;None;None;None;None;None;None;None;None;None;A;981;0;Vert;0;2;0;0;None;None;0;BER;3000;0;0;0;1;3000;0;;
vs12;ber;4;2;08Feb2013;1216;mixed;500;400;2000;6;29;3.98495039171;False;L;8;z;1;358;None;None;None;None;None;None;None;None;None;B;967;5;Vert;0;2;0;0;None;None;0;BER;3000;0;0;0;1;3000;0;;
vs12;ber;4;2;08Feb2013;1145;Ent1;500;400;2000;1;8;0.530045248142;False;L;4;a;1;246;None;None;None;None;None;None;None;None;None;None;None;None;Rouge;0;4;0;0;None;None;0;BER;3000;0;0;0;1;3000;0;;
vs12;ber;4;2;08Feb2013;1222;mixed;500;400;2000;8;10;4.09691797948;False;X;16;z;1;425;None;None;None;None;None;None;None;None;None;A;1440;1;Vert;0;12;0;0;None;None;0;BER;3000;0;0;0;1;3000;0;;
vs12;ber;4;2;08Feb2013;1202;mixed;500;400;2000;3;4;0.055241248039;False;L;16;a;1;312;None;None;None;None;None;None;None;None;None;C;789;6;Rouge;0;6;0;0;None;None;0;BER;3000;0;0;0;1;3000;0;;
vs12;ber;4;2;08Feb2013;1208;mixed;500;400;2000;4;24;1.65740563526;True;L;8;a;1;317;None;None;None;None;None;None;None;None;None;A;1022;2;Rouge;0;5;0;0;None;None;0;BER;3000;0;0;0;1;3000;0;;
vs12;ber;4;2;08Feb2013;1214;mixed;500;400;2000;6;3;0.515347701979;False;L;8;a;1;272;None;None;None;None;None;None;None;None;None;A;1067;3;Rouge;0;1;0;0;None;None;0;BER;3000;0;0;0;1;3000;0;;
vs12;ber;4;2;08Feb2013;1215;mixed;500;400;2000;6;18;5.89174047416;True;X;16;a;1;296;None;None;None;None;None;None;None;None;None;A;1211;0;Rouge;0;3;0;0;None;None;0;BER;3000;0;0;0;1;3000;0;;
vs12;ber;4;2;08Feb2013;1218;mixed;500;400;2000;7;4;1.61814679067;False;L;4;a;1;305;None;None;None;None;None;None;None;None;None;A;1236;2;Rouge;0;2;0;0;None;None;0;BER;3000;0;0;0;1;3000;0;;
vs12;ber;4;2;08Feb2013;1223;mixed;500;400;2000;8;16;3.80615899069;True;X;8;a;1;386;None;None;None;None;None;None;None;None;None;B;2988;4;Rouge;0;3;0;0;None;None;0;BER;3000;0;0;0;1;3000;0;;
vs12;ber;4;2;08Feb2013;1224;mixed;500;400;2000;8;28;4.53600579175;True;L;4;z;1;315;None;None;None;None;None;None;None;None;None;A;578;1;Vert;0;3;0;0;None;None;0;BER;3000;0;0;0;1;3000;0;;
vs12;ber;4;2;08Feb2013;1216;mixed;500;400;2000;6;20;2.76453066813;True;L;16;a;1;326;None;None;None;None;None;None;None;None;None;C;1121;6;Rouge;0;14;0;0;None;None;0;BER;3000;0;0;0;1;3000;0;;
vs12;ber;4;2;08Feb2013;1221;mixed;500;400;2000;7;34;0.56962146177;True;L;8;z;1;343;None;None;None;None;None;None;None;None;None;A;1329;1;Vert;0;1;0;0;None;None;0;BER;3000;0;0;0;1;3000;0;;
vs12;ber;4;2;08Feb2013;1207;mixed;500;400;2000;4;14;2.54938201429;True;X;8;z;1;351;None;None;None;None;None;None;None;None;None;A;1136;0;Vert;0;6;0;0;None;None;0;BER;3000;0;0;0;1;3000;0;;
vs12;ber;4;2;08Feb2013;1206;mixed;500;400;2000;4;2;1.53219744399;False;X;4;z;1;288;None;None;None;None;None;None;None;None;None;A;1144;1;Vert;0;4;0;0;None;None;0;BER;3000;0;0;0;1;3000;0;;
vs12;ber;4;2;08Feb2013;1218;mixed;500;400;2000;7;7;5.81440819089;False;X;16;a;1;365;None;None;None;None;None;None;None;None;None;A;1017;0;Rouge;0;10;0;0;None;None;0;BER;3000;0;0;0;1;3000;0;;
vs12;ber;4;2;08Feb2013;1152;mixed;500;400;2000;1;8;2.70383163173;True;X;16;a;1;283;None;None;None;None;None;None;None;None;None;A;1001;1;Rouge;0;1;0;0;None;None;0;BER;3000;0;0;0;1;3000;0;;
vs12;ber;4;2;08Feb2013;1223;mixed;500;400;2000;8;23;0.548520157511;False;L;16;a;1;286;None;None;None;None;None;None;None;None;None;A;1811;2;Rouge;0;7;0;0;None;None;0;BER;3000;0;0;0;1;3000;0;;
vs12;ber;4;2;08Feb2013;1152;mixed;500;400;2000;1;7;4.67468983194;False;X;8;a;1;301;None;None;None;None;None;None;None;None;None;A;933;0;Rouge;0;2;0;0;None;None;0;BER;3000;0;0;0;1;3000;0;;
vs12;ber;4;2;08Feb2013;1219;mixed;500;400;2000;7;12;3.34034407112;True;X;16;z;1;421;None;None;None;None;None;None;None;None;None;A;1248;2;Vert;0;3;0;0;None;None;0;BER;3000;0;0;0;1;3000;0;;
vs12;ber;4;2;08Feb2013;1208;mixed;500;400;2000;4;25;0.458157515962;True;L;16;a;1;322;None;None;None;None;None;None;None;None;None;A;1048;2;Rouge;0;6;0;0;None;None;0;BER;3000;0;0;0;1;3000;0;;
vs12;ber;4;2;08Feb2013;1224;mixed;500;400;2000;8;34;0.498762354161;True;L;16;a;1;310;None;None;None;None;None;None;None;None;None;A;917;2;Rouge;0;4;0;0;None;None;0;BER;3000;0;0;0;1;3000;0;;
vs12;ber;4;2;08Feb2013;1210;mixed;500;400;2000;5;1;1.80675226101;False;L;8;a;1;402;None;None;None;None;None;None;None;None;None;A;1234;3;Rouge;0;8;0;0;None;None;0;BER;3000;0;0;0;1;3000;0;;
vs12;ber;4;2;08Feb2013;1222;mixed;500;400;2000;8;11;4.98539333307;True;X;8;a;1;345;None;None;None;None;None;None;None;None;None;A;1735;0;Rouge;0;4;0;0;None;None;0;BER;3000;0;0;0;1;3000;0;;
vs12;ber;4;2;08Feb2013;1153;mixed;500;400;2000;1;19;3.77997826846;True;L;16;z;1;438;None;None;None;None;None;None;None;None;None;A;812;2;Vert;0;2;0;0;None;None;0;BER;3000;0;0;0;1;3000;0;;
vs12;ber;4;2;08Feb2013;1222;mixed;500;400;2000;8;12;2.07126889073;False;X;8;z;1;385;None;None;None;None;None;None;None;None;None;A;1313;0;Vert;0;4;0;0;None;None;0;BER;3000;0;0;0;1;3000;0;;
vs12;ber;4;2;08Feb2013;1150;Ent2;500;400;2000;1;8;2.83779575145;True;X;16;a;1;326;None;None;None;None;None;None;None;None;None;A;1066;0;Rouge;0;9;0;0;None;None;0;BER;3000;0;0;0;1;3000;0;;
vs12;ber;4;2;08Feb2013;1214;mixed;500;400;2000;6;5;2.45409770988;True;L;16;z;1;444;None;None;None;None;None;None;None;None;None;C;1742;6;Vert;0;8;0;0;None;None;0;BER;3000;0;0;0;1;3000;0;;
vs12;ber;4;2;08Feb2013;1216;mixed;500;400;2000;6;27;1.18911003743;False;X;4;a;1;256;None;None;None;None;None;None;None;None;None;A;1158;1;Rouge;0;4;0;0;None;None;0;BER;3000;0;0;0;1;3000;0;;
vs12;ber;4;2;08Feb2013;1214;mixed;500;400;2000;6;7;3.78277140874;True;X;4;a;1;436;None;None;None;None;None;None;None;None;None;A;4646;1;Rouge;0;1;0;0;None;None;0;BER;3000;0;0;0;1;3000;0;;
vs12;ber;4;2;08Feb2013;1214;mixed;500;400;2000;6;2;3.85077705128;False;L;16;a;1;305;None;None;None;None;None;None;None;None;None;B;747;4;Rouge;0;4;0;0;None;None;0;BER;3000;0;0;0;1;3000;0;;
vs12;ber;4;2;08Feb2013;1145;Ent1;500;400;2000;1;3;2.9804989743;False;X;4;a;1;247;None;None;None;None;None;None;None;None;None;None;None;None;Rouge;0;2;0;0;None;None;0;BER;3000;0;0;0;1;3000;0;;
vs12;ber;4;2;08Feb2013;1204;mixed;500;400;2000;3;19;3.5146733788;True;X;16;a;1;532;None;None;None;None;None;None;None;None;None;A;824;3;Rouge;0;1;0;0;None;None;0;BER;3000;0;0;0;1;3000;0;;
vs12;ber;4;2;08Feb2013;1202;mixed;500;400;2000;3;3;2.4410042276;True;L;8;z;1;364;None;None;None;None;None;None;None;None;None;A;1156;3;Vert;0;2;0;0;None;None;0;BER;3000;0;0;0;1;3000;0;;
vs12;ber;4;2;08Feb2013;1222;mixed;500;400;2000;8;7;1.25289079421;True;X;16;a;1;263;None;None;None;None;None;None;None;None;None;B;1013;4;Rouge;0;10;0;0;None;None;0;BER;3000;0;0;0;1;3000;0;;
vs12;ber;4;2;08Feb2013;1215;mixed;500;400;2000;6;17;4.12766591146;True;X;4;z;1;467;None;None;None;None;None;None;None;None;None;A;939;1;Vert;0;4;0;0;None;None;0;BER;3000;0;0;0;1;3000;0;;
vs12;ber;4;2;08Feb2013;1149;Ent2;500;400;2000;1;4;1.7659609331;False;X;4;a;1;644;None;None;None;None;None;None;None;None;None;A;10865;3;Rouge;0;3;0;0;None;None;0;BER;3000;0;0;0;1;3000;0;;
vs12;ber;4;2;08Feb2013;1158;mixed;500;400;2000;2;2;3.37413745588;True;L;4;a;1;264;None;None;None;None;None;None;None;None;None;B;905;4;Rouge;0;2;0;0;None;None;0;BER;3000;0;0;0;1;3000;0;;
vs12;ber;4;2;08Feb2013;1150;Ent2;500;400;2000;1;10;2.90515783949;False;L;8;a;1;688;None;None;None;None;None;None;None;None;None;A;1199;1;Rouge;0;3;0;0;None;None;0;BER;3000;0;0;0;1;3000;0;;
vs12;ber;4;2;08Feb2013;1207;mixed;500;400;2000;4;9;1.95290660119;True;X;4;z;1;257;None;None;None;None;None;None;None;None;None;A;865;1;Vert;0;3;0;0;None;None;0;BER;3000;0;0;0;1;3000;0;;
vs12;ber;4;2;08Feb2013;1150;Ent2;500;400;2000;1;7;2.3130954025;True;X;4;a;1;330;None;None;None;None;None;None;None;None;None;A;2348;3;Rouge;0;1;0;0;None;None;0;BER;3000;0;0;0;1;3000;0;;
vs12;ber;4;2;08Feb2013;1207;mixed;500;400;2000;4;15;3.90604653102;False;L;4;a;1;461;None;None;None;None;None;None;None;None;None;A;801;3;Rouge;0;3;0;0;None;None;0;BER;3000;0;0;0;1;3000;0;;
vs12;ber;4;2;08Feb2013;1215;mixed;500;400;2000;6;10;0.287608183942;False;L;4;a;1;624;None;None;None;None;None;None;None;None;None;A;1497;2;Rouge;0;4;0;0;None;None;0;BER;3000;0;0;0;1;3000;0;;
vs12;ber;4;2;08Feb2013;1221;mixed;500;400;2000;7;33;3.83144511234;True;L;4;z;1;562;None;None;None;None;None;None;None;None;None;A;1074;0;Vert;0;3;0;0;None;None;0;BER;3000;0;0;0;1;3000;0;;
vs12;ber;4;2;08Feb2013;1143;Ent1;500;400;2000;1;3;0.56563489351;False;X;4;a;1;430;None;None;None;None;None;None;None;None;None;None;None;None;Rouge;0;4;0;0;None;None;0;BER;3000;0;0;0;1;3000;0;;
vs12;ber;4;2;08Feb2013;1145;Ent1;500;400;2000;1;1;3.67029762963;False;L;8;z;1;437;None;None;None;None;None;None;None;None;None;None;None;None;Vert;0;5;0;0;None;None;0;BER;3000;0;0;0;1;3000;0;;
vs12;ber;4;2;08Feb2013;1158;mixed;500;400;2000;2;5;4.87847320012;False;L;4;z;1;299;None;None;None;None;None;None;None;None;None;A;711;1;Vert;0;3;0;0;None;None;0;BER;3000;0;0;0;1;3000;0;;
vs12;ber;4;2;08Feb2013;1154;mixed;500;400;2000;1;33;0.141935821646;True;L;16;a;1;274;None;None;None;None;None;None;None;None;None;A;757;3;Rouge;0;9;0;0;None;None;0;BER;3000;0;0;0;1;3000;0;;
vs12;ber;4;2;08Feb2013;1214;mixed;500;400;2000;6;1;3.84226397685;True;L;4;a;1;495;None;None;None;None;None;None;None;None;None;A;1985;1;Rouge;0;3;0;0;None;None;0;BER;3000;0;0;0;1;3000;0;;
vs12;ber;4;2;08Feb2013;1151;mixed;500;400;2000;1;1;1.77852468063;True;X;8;z;1;441;None;None;None;None;None;None;None;None;None;A;1570;0;Vert;0;1;0;0;None;None;0;BER;3000;0;0;0;1;3000;0;;
vs12;ber;4;2;08Feb2013;1202;mixed;500;400;2000;3;2;1.59024706442;True;L;4;z;1;289;None;None;None;None;None;None;None;None;None;A;663;1;Vert;0;1;0;0;None;None;0;BER;3000;0;0;0;1;3000;0;;
vs12;ber;4;2;08Feb2013;1206;mixed;500;400;2000;4;1;5.66279896645;False;X;16;a;1;394;None;None;None;None;None;None;None;None;None;A;786;1;Rouge;0;14;0;0;None;None;0;BER;3000;0;0;0;1;3000;0;;
vs12;ber;4;2;08Feb2013;1200;mixed;500;400;2000;2;32;3.38024901619;True;X;16;z;1;383;None;None;None;None;None;None;None;None;None;A;826;2;Vert;0;15;0;0;None;None;0;BER;3000;0;0;0;1;3000;0;;
vs12;ber;4;2;08Feb2013;1207;mixed;500;400;2000;4;13;3.03415523451;False;X;8;a;1;456;None;None;None;None;None;None;None;None;None;A;613;1;Rouge;0;2;0;0;None;None;0;BER;3000;0;0;0;1;3000;0;;
vs12;ber;4;2;08Feb2013;1159;mixed;500;400;2000;2;18;0.223795310875;False;L;16;a;1;278;None;None;None;None;None;None;None;None;None;A;1002;1;Rouge;0;6;0;0;None;None;0;BER;3000;0;0;0;1;3000;0;;
vs12;ber;4;2;08Feb2013;1213;mixed;500;400;2000;5;35;1.37928912086;False;X;4;a;1;297;None;None;None;None;None;None;None;None;None;A;1017;1;Rouge;0;2;0;0;None;None;0;BER;3000;0;0;0;1;3000;0;;
vs12;ber;4;2;08Feb2013;1216;mixed;500;400;2000;6;23;2.50209238358;True;X;16;a;1;260;None;None;None;None;None;None;None;None;None;A;919;1;Rouge;0;8;0;0;None;None;0;BER;3000;0;0;0;1;3000;0;;
vs12;ber;4;2;08Feb2013;1207;mixed;500;400;2000;4;12;6.12757989832;False;L;16;z;1;422;None;None;None;None;None;None;None;None;None;A;1241;3;Vert;0;5;0;0;None;None;0;BER;3000;0;0;0;1;3000;0;;
vs12;ber;4;2;08Feb2013;1206;mixed;500;400;2000;4;3;4.25185838962;True;X;16;a;1;297;None;None;None;None;None;None;None;None;None;A;1047;3;Rouge;0;3;0;0;None;None;0;BER;3000;0;0;0;1;3000;0;;
vs12;ber;4;2;08Feb2013;1200;mixed;500;400;2000;2;28;3.87561245571;True;X;4;a;1;283;None;None;None;None;None;None;None;None;None;A;1119;1;Rouge;0;2;0;0;None;None;0;BER;3000;0;0;0;1;3000;0;;
vs12;ber;4;2;08Feb2013;1208;mixed;500;400;2000;4;28;1.80195490225;True;X;8;z;1;364;None;None;None;None;None;None;None;None;None;A;1226;1;Vert;0;4;0;0;None;None;0;BER;3000;0;0;0;1;3000;0;;
vs12;ber;4;2;08Feb2013;1207;mixed;500;400;2000;4;17;3.70630198915;True;L;16;z;1;459;None;None;None;None;None;None;None;None;None;A;1133;2;Vert;0;4;0;0;None;None;0;BER;3000;0;0;0;1;3000;0;;
vs12;ber;4;2;08Feb2013;1142;Ent1;500;400;2000;1;5;0.529608561374;True;X;16;0;0;None;None;None;None;None;None;None;None;None;None;None;None;Vert;0;10;0;0;None;None;0;0;BER;117.5;0;0;0;2;639;3;;
vs12;ber;4;2;08Feb2013;1149;Ent2;500;400;2000;1;3;2.47770659396;False;L;4;a;1;421;None;None;None;None;None;None;None;None;None;B;1995;4;Rouge;0;4;0;0;None;None;0;BER;1883.5;0.05;0;0;2;3000;1;;
vs12;ber;4;2;08Feb2013;1223;mixed;500;400;2000;8;18;5.92283346598;True;L;4;z;1;285;None;None;None;None;None;None;None;None;None;A;560;1;Vert;0;1;0;0;None;None;0;BER;535.17;0.05;0;0;6;3000;5;;
vs12;ber;4;2;08Feb2013;1204;mixed;500;400;2000;3;22;2.16722596143;True;X;4;a;1;281;None;None;None;None;None;None;None;None;None;A;792;1;Rouge;0;1;0;0;None;None;0;BER;2180;0.07;0;0;2;3000;1;;
vs12;ber;4;2;08Feb2013;1223;mixed;500;400;2000;8;21;1.94020128837;False;L;16;a;1;249;None;None;None;None;None;None;None;None;None;C;687;7;Rouge;0;10;0;0;None;None;0;BER;1659.5;0.07;0;0;2;3000;1;;
vs12;ber;4;2;08Feb2013;1220;mixed;500;400;2000;7;26;0.241799169578;True;L;8;z;1;496;None;None;None;None;None;None;None;None;None;B;1492;4;Vert;0;8;0;0;None;None;0;BER;398.57;0.07;0;0;7;3000;7;;
vs12;ber;4;2;08Feb2013;1142;Ent1;500;400;2000;1;6;0.0188341609324;False;L;16;0;0;None;None;None;None;None;None;None;None;None;None;None;None;Rouge;0;15;0;0;None;None;0;0;BER;56.6;0.07;0;0;5;642;4;;
vs12;ber;4;2;08Feb2013;1223;mixed;500;400;2000;8;25;2.1187614135;False;X;8;z;1;474;None;None;None;None;None;None;None;None;None;A;643;1;Vert;0;5;0;0;None;None;0;BER;1614;0.09;0;0;2;3000;1;;
vs12;ber;4;2;08Feb2013;1142;Ent1;500;400;2000;1;7;0.247730822822;True;X;8;z;1;289;None;None;None;None;None;None;None;None;None;None;None;None;Vert;0;7;0;0;None;None;0;BER;104.5;0.09;0;0;22;3000;22;;
vs12;ber;4;2;08Feb2013;1208;mixed;500;400;2000;4;29;5.10416484663;True;X;4;z;1;377;None;None;None;None;None;None;None;None;None;A;743;1;Vert;0;1;0;0;None;None;0;BER;2039.5;0.1;0;0;2;3000;1;;
vs12;ber;4;2;08Feb2013;1153;mixed;500;400;2000;1;30;4.41775020561;False;L;16;0;0;None;None;None;None;None;None;None;None;None;A;None;None;Vert;0;6;0;0;None;None;0;0;BER;62.44;0.1;0;0;9;957;9;;
vs12;ber;4;2;08Feb2013;1142;Ent1;500;400;2000;1;11;1.57504894513;True;L;16;0;0;None;None;None;None;None;None;None;None;None;None;None;None;Vert;0;1;0;0;None;None;0;0;BER;1;0.11;0;0;1;642;1;;
vs12;ber;4;2;08Feb2013;1143;Ent1;500;400;2000;1;4;5.89467699538;True;X;4;a;1;294;None;None;None;None;None;None;None;None;None;None;None;None;Rouge;0;2;0;0;None;None;0;BER;1887.5;0.11;0;0;2;3000;1;;
vs12;ber;4;2;08Feb2013;1153;mixed;500;400;2000;1;29;2.90651221862;True;X;4;0;0;None;None;None;None;None;None;None;None;None;A;None;None;Rouge;0;2;0;0;None;None;0;0;BER;83.83;0.11;0;0;12;1645;11;;
vs12;ber;4;2;08Feb2013;1210;mixed;500;400;2000;5;6;0.68124291285;False;X;4;z;1;348;None;None;None;None;None;None;None;None;None;A;1176;1;Vert;0;2;0;0;None;None;0;BER;1691.5;0.12;0;0;2;3000;1;;
vs12;ber;4;2;08Feb2013;1222;mixed;500;400;2000;8;13;2.54485537655;True;L;4;a;1;268;None;None;None;None;None;None;None;None;None;A;1040;1;Rouge;0;2;0;0;None;None;0;BER;550.8;0.12;0;0;5;3000;4;;
vs12;ber;4;2;08Feb2013;1202;mixed;500;400;2000;3;1;1.60672290251;False;X;4;z;1;299;None;None;None;None;None;None;None;None;None;A;1700;1;Vert;0;2;0;0;None;None;0;BER;1966;0.13;0;0;2;3000;1;;
vs12;ber;4;2;08Feb2013;1224;mixed;500;400;2000;8;36;4.32544034024;False;X;4;z;1;384;None;None;None;None;None;None;None;None;None;A;1337;1;Vert;0;2;0;0;None;None;0;BER;1633.5;0.13;0;0;2;3000;1;;
vs12;ber;4;2;08Feb2013;1219;mixed;500;400;2000;7;10;3.85791214393;True;L;8;a;1;413;None;None;None;None;None;None;None;None;None;B;1273;4;Rouge;0;3;0;0;None;None;0;BER;1688.5;0.13;0;0;2;3000;1;;
vs12;ber;4;2;08Feb2013;1158;mixed;500;400;2000;2;3;2.08808518425;False;L;16;z;1;489;None;None;None;None;None;None;None;None;None;C;739;6;Vert;0;1;0;0;None;None;0;BER;1844.5;0.13;0;0;2;3000;1;;
vs12;ber;4;2;08Feb2013;1210;mixed;500;400;2000;5;4;0.906643884809;False;L;4;z;1;340;None;None;None;None;None;None;None;None;None;A;556;3;Vert;0;2;0;0;None;None;0;BER;2002.5;0.13;0;0;2;3000;1;;
vs12;ber;4;2;08Feb2013;1141;Ent1;500;400;2000;1;8;0.437856687086;False;L;4;a;0;759;None;None;None;None;None;None;None;None;None;None;None;None;Vert;0;4;0;0;None;None;0;BER;468;0.14;0;0;5;3000;4;;
vs12;ber;4;2;08Feb2013;1208;mixed;500;400;2000;4;31;3.47389643354;False;L;4;a;1;309;None;None;None;None;None;None;None;None;None;A;1255;1;Rouge;0;1;0;0;None;None;0;BER;803;0.14;0;0;4;3000;3;;
vs12;ber;4;2;08Feb2013;1151;mixed;500;400;2000;1;2;3.74133250237;False;L;4;a;1;460;None;None;None;None;None;None;None;None;None;A;1547;0;Rouge;0;2;0;0;None;None;0;BER;1249.33;0.14;0;0;3;3000;2;;
vs12;ber;4;2;08Feb2013;1152;mixed;500;400;2000;1;14;5.98469065903;False;L;8;z;1;343;None;None;None;None;None;None;None;None;None;A;829;2;Vert;0;3;0;0;None;None;0;BER;179.07;0.14;0;0;14;3000;13;;
vs12;ber;4;2;08Feb2013;1220;mixed;500;400;2000;7;28;6.16836101209;True;X;8;z;1;328;None;None;None;None;None;None;None;None;None;A;2256;2;Vert;0;2;0;0;None;None;0;BER;92.5;0.14;0;0;10;3000;10;;
vs12;ber;4;2;08Feb2013;1211;mixed;500;400;2000;5;11;5.02622144981;False;X;16;z;1;392;None;None;None;None;None;None;None;None;None;A;1507;3;Vert;0;13;0;0;None;None;0;BER;242.56;0.15;0;0;9;3000;8;;
vs12;ber;4;2;08Feb2013;1141;Ent1;500;400;2000;1;2;0.452639206261;False;X;16;z;1;450;None;None;None;None;None;None;None;None;None;None;None;None;Vert;0;8;0;0;None;None;0;BER;546.57;0.15;0;0;7;3000;6;;
vs12;ber;4;2;08Feb2013;1204;mixed;500;400;2000;3;30;2.89236786235;False;L;16;a;1;369;None;None;None;None;None;None;None;None;None;C;1186;7;Rouge;0;9;0;0;None;None;0;BER;800.5;0.15;0;0;4;3000;3;;
vs12;ber;4;2;08Feb2013;1145;Ent1;500;400;2000;1;10;4.74466149982;True;L;4;a;1;351;None;None;None;None;None;None;None;None;None;None;None;None;Rouge;0;1;0;0;None;None;0;BER;1184;0.16;0;0;3;3000;2;;
vs12;ber;4;2;08Feb2013;1219;mixed;500;400;2000;7;18;2.47851420377;False;L;4;z;1;343;None;None;None;None;None;None;None;None;None;A;1858;0;Vert;0;1;0;0;None;None;0;BER;1851;0.16;0;0;2;3000;1;;
vs12;ber;4;2;08Feb2013;1204;mixed;500;400;2000;3;24;1.13987343368;False;X;8;z;1;299;None;None;None;None;None;None;None;None;None;A;818;1;Vert;0;2;0;0;None;None;0;BER;1258.33;0.16;0;0;3;3000;2;;
vs12;ber;4;2;08Feb2013;1159;mixed;500;400;2000;2;23;1.05601304514;False;L;8;a;1;309;None;None;None;None;None;None;None;None;None;A;712;1;Rouge;0;8;0;0;None;None;0;BER;792.8;0.16;0;0;5;3000;4;;
vs12;ber;4;2;08Feb2013;1217;mixed;500;400;2000;6;31;5.16079598532;False;X;16;a;1;542;None;None;None;None;None;None;None;None;None;A;1244;0;Rouge;0;7;0;0;None;None;0;BER;1113;0.17;0;0;3;3000;2;;
vs12;ber;4;2;08Feb2013;1211;mixed;500;400;2000;5;8;4.21526823966;True;X;4;z;1;995;None;None;None;None;None;None;None;None;None;A;1032;1;Vert;0;1;0;0;None;None;0;BER;1663;0.17;0;0;2;3000;1;;
vs12;ber;4;2;08Feb2013;1206;mixed;500;400;2000;4;5;1.68675987726;True;L;8;z;1;362;None;None;None;None;None;None;None;None;None;B;842;4;Vert;0;7;0;0;None;None;0;BER;1671;0.17;0;0;2;3000;1;;
vs12;ber;4;2;08Feb2013;1221;mixed;500;400;2000;7;32;0.692170717543;False;L;8;z;1;304;None;None;None;None;None;None;None;None;None;A;1132;0;Vert;0;3;0;0;None;None;0;BER;1816;0.17;0;0;2;3000;1;;
vs12;ber;4;2;08Feb2013;1153;mixed;500;400;2000;1;27;2.21509811234;False;X;16;a;1;309;None;None;None;None;None;None;None;None;None;A;1927;1;Rouge;0;9;0;0;None;None;0;BER;1011.33;0.17;0;0;3;3000;2;;
vs12;ber;4;2;08Feb2013;1207;mixed;500;400;2000;4;11;1.55819021391;True;L;4;0;0;None;None;None;None;None;None;None;None;None;A;None;None;Rouge;0;2;0;0;None;None;0;0;BER;1103.5;0.17;1;0;2;2451;1;;
vs12;ber;4;2;08Feb2013;1145;Ent1;500;400;2000;1;11;2.73585720807;True;L;16;z;1;233;None;None;None;None;None;None;None;None;None;None;None;None;Vert;0;13;0;0;None;None;0;BER;1600.5;0.17;0;0;2;3000;1;;
vs12;ber;4;2;08Feb2013;1224;mixed;500;400;2000;8;32;0.246697508059;True;L;16;z;1;362;None;None;None;None;None;None;None;None;None;D;973;8;Vert;0;5;0;0;None;None;0;BER;482.33;0.17;0;0;6;3000;5;;
vs12;ber;4;2;08Feb2013;1224;mixed;500;400;2000;8;27;3.85065948138;False;L;4;z;1;311;None;None;None;None;None;None;None;None;None;A;2763;2;Vert;0;1;0;0;None;None;0;BER;761.5;0.17;0;0;4;3000;3;;
vs12;ber;4;2;08Feb2013;1152;mixed;500;400;2000;1;11;0.580313987982;True;L;4;z;1;1038;None;None;None;None;None;None;None;None;None;A;1948;2;Vert;0;4;0;0;None;None;0;BER;811.5;0.17;0;0;4;3000;3;;
vs12;ber;4;2;08Feb2013;1153;mixed;500;400;2000;1;25;3.94327550908;True;X;16;a;1;304;None;None;None;None;None;None;None;None;None;A;1072;1;Rouge;0;16;0;0;None;None;0;BER;1154;0.18;0;0;4;3000;3;;
vs12;ber;4;2;08Feb2013;1212;mixed;500;400;2000;5;26;0.951840415364;False;L;8;z;1;304;None;None;None;None;None;None;None;None;None;C;775;7;Vert;0;7;0;0;None;None;0;BER;1478;0.18;0;0;2;3000;2;;
vs12;ber;4;2;08Feb2013;1224;mixed;500;400;2000;8;35;2.95923452969;True;L;8;a;1;283;None;None;None;None;None;None;None;None;None;A;2066;0;Rouge;0;6;0;0;None;None;0;BER;1082.67;0.18;0;0;3;3000;2;;
vs12;ber;4;2;08Feb2013;1205;mixed;500;400;2000;3;32;0.327494505995;False;X;16;z;1;283;None;None;None;None;None;None;None;None;None;A;855;1;Vert;0;13;0;0;None;None;0;BER;1164.25;0.18;0;0;4;3000;3;;
vs12;ber;4;2;08Feb2013;1222;mixed;500;400;2000;8;6;1.77604360811;False;X;4;z;1;270;None;None;None;None;None;None;None;None;None;A;787;1;Vert;0;2;0;0;None;None;0;BER;1192.33;0.18;0;0;3;3000;2;;
vs12;ber;4;2;08Feb2013;1159;mixed;500;400;2000;2;20;4.16142942973;True;L;16;a;1;299;None;None;None;None;None;None;None;None;None;C;647;6;Rouge;0;15;0;0;None;None;0;BER;1746.5;0.18;0;0;2;3000;1;;
vs12;ber;4;2;08Feb2013;1224;mixed;500;400;2000;8;30;1.4069493245;False;L;16;a;1;293;None;None;None;None;None;None;None;None;None;C;981;7;Rouge;0;15;0;0;None;None;0;BER;315.11;0.18;0;0;9;3000;8;;
vs12;ber;4;2;08Feb2013;1200;mixed;500;400;2000;2;35;0.0906637128455;False;L;8;a;1;332;None;None;None;None;None;None;None;None;None;A;642;1;Rouge;0;7;0;0;None;None;0;BER;979.5;0.18;0;0;4;3000;3;;
vs12;ber;4;2;08Feb2013;1220;mixed;500;400;2000;7;24;4.07451285623;True;L;16;a;1;369;None;None;None;None;None;None;None;None;None;A;1933;3;Rouge;0;3;0;0;None;None;0;BER;1285.33;0.19;0;0;3;3000;2;;
vs12;ber;4;2;08Feb2013;1204;mixed;500;400;2000;3;28;2.88504808663;False;L;4;a;1;332;None;None;None;None;None;None;None;None;None;A;1629;3;Rouge;0;1;0;0;None;None;0;BER;1522.33;0.19;0;0;3;3000;2;;
vs12;ber;4;2;08Feb2013;1206;mixed;500;400;2000;4;4;5.4981145751;False;L;16;z;1;336;None;None;None;None;None;None;None;None;None;C;634;6;Vert;0;7;0;0;None;None;0;BER;1789.5;0.19;0;0;2;3000;1;;
vs12;ber;4;2;08Feb2013;1152;mixed;500;400;2000;1;13;1.5374901579;False;X;8;z;1;540;None;None;None;None;None;None;None;None;None;A;996;1;Vert;0;4;0;0;None;None;0;BER;444.88;0.19;0;0;8;3000;7;;
vs12;ber;4;2;08Feb2013;1209;mixed;500;400;2000;4;33;2.69308323991;False;L;8;z;1;304;None;None;None;None;None;None;None;None;None;A;995;2;Vert;0;4;0;0;None;None;0;BER;1442;0.2;0;0;3;3000;2;;
vs12;ber;4;2;08Feb2013;1151;mixed;500;400;2000;1;5;3.95291729102;False;L;16;a;1;291;None;None;None;None;None;None;None;None;None;A;1465;2;Rouge;0;10;0;0;None;None;0;BER;2991;0.2;0;0;1;3000;1;;
vs12;ber;4;2;08Feb2013;1215;mixed;500;400;2000;6;13;3.60072832731;True;X;16;a;1;418;None;None;None;None;None;None;None;None;None;A;1416;0;Rouge;0;6;0;0;None;None;0;BER;1163.33;0.2;0;0;3;3000;2;;
vs12;ber;4;2;08Feb2013;1154;mixed;500;400;2000;1;36;5.81537721985;True;X;4;z;1;311;None;None;None;None;None;None;None;None;None;A;1443;2;Vert;0;2;0;0;None;None;0;BER;1193.33;0.2;0;0;3;3000;2;;
vs12;ber;4;2;08Feb2013;1142;Ent1;500;400;2000;1;3;0.415207746315;False;X;4;z;1;299;None;None;None;None;None;None;None;None;None;None;None;None;Vert;0;3;0;0;None;None;0;BER;33.12;0.2;0;0;8;3000;8;;
vs12;ber;4;2;08Feb2013;1153;mixed;500;400;2000;1;31;1.57173381624;False;X;4;z;1;352;None;None;None;None;None;None;None;None;None;A;1430;1;Vert;0;2;0;0;None;None;0;BER;40.69;0.2;0;0;16;3000;16;;
vs12;ber;4;2;08Feb2013;1204;mixed;500;400;2000;3;26;3.82252493642;True;X;4;z;1;319;None;None;None;None;None;None;None;None;None;A;1069;1;Vert;0;2;0;0;None;None;0;BER;910;0.21;0;0;5;3000;4;;
vs12;ber;4;2;08Feb2013;1152;mixed;500;400;2000;1;6;3.31061508044;True;X;8;z;1;275;None;None;None;None;None;None;None;None;None;B;1057;4;Vert;0;5;0;0;None;None;0;BER;1235.33;0.21;0;0;3;3000;2;;
vs12;ber;4;2;08Feb2013;1211;mixed;500;400;2000;5;17;4.53638414377;True;L;4;z;1;354;None;None;None;None;None;None;None;None;None;A;868;1;Vert;0;3;0;0;None;None;0;BER;1414.67;0.21;0;0;3;3000;2;;
vs12;ber;4;2;08Feb2013;1209;mixed;500;400;2000;4;36;4.33617924322;True;L;4;z;1;550;None;None;None;None;None;None;None;None;None;A;889;3;Vert;0;3;0;0;None;None;0;BER;1674.5;0.21;0;0;2;3000;1;;
vs12;ber;4;2;08Feb2013;1142;Ent1;500;400;2000;1;4;1.15425104698;True;X;4;z;1;331;None;None;None;None;None;None;None;None;None;None;None;None;Vert;0;1;0;0;None;None;0;BER;336.29;0.21;0;0;7;3000;7;;
vs12;ber;4;2;08Feb2013;1153;mixed;500;400;2000;1;18;4.6806063696;True;X;16;z;1;405;None;None;None;None;None;None;None;None;None;C;1329;6;Vert;0;12;0;0;None;None;0;BER;580.8;0.21;0;0;5;3000;4;;
vs12;ber;4;2;08Feb2013;1205;mixed;500;400;2000;3;34;0.0956222153063;True;X;16;a;1;327;None;None;None;None;None;None;None;None;None;B;677;4;Rouge;0;7;0;0;None;None;0;BER;748.25;0.21;0;0;4;3000;3;;
vs12;ber;4;2;08Feb2013;1143;Ent1;500;400;2000;1;10;4.55254926933;True;L;4;z;1;495;None;None;None;None;None;None;None;None;None;None;None;None;Vert;0;1;0;0;None;None;0;BER;87.94;0.21;0;0;18;3000;17;;
vs12;ber;4;2;08Feb2013;1224;mixed;500;400;2000;8;31;0.373165209101;True;X;4;a;1;261;None;None;None;None;None;None;None;None;None;A;1145;2;Rouge;0;1;0;0;None;None;0;BER;871;0.22;0;0;4;3000;3;;
vs12;ber;4;2;08Feb2013;1222;mixed;500;400;2000;8;14;4.900613554;False;L;4;a;1;276;None;None;None;None;None;None;None;None;None;B;1003;4;Rouge;0;2;0;0;None;None;0;BER;905;0.22;0;0;4;3000;3;;
vs12;ber;4;2;08Feb2013;1200;mixed;500;400;2000;2;29;3.09583508186;True;L;4;z;1;318;None;None;None;None;None;None;None;None;None;B;1640;4;Vert;0;2;0;0;None;None;0;BER;1201;0.22;0;0;3;3000;2;;
vs12;ber;4;2;08Feb2013;1223;mixed;500;400;2000;8;15;2.79983936193;True;L;16;a;1;340;None;None;None;None;None;None;None;None;None;C;728;6;Rouge;0;8;0;0;None;None;0;BER;349.86;0.22;0;0;7;3000;6;;
vs12;ber;4;2;08Feb2013;1142;Ent1;500;400;2000;1;5;5.82392938568;True;X;16;z;1;333;None;None;None;None;None;None;None;None;None;None;None;None;Vert;0;5;0;0;None;None;0;BER;59.35;0.22;0;0;17;3000;16;;
vs12;ber;4;2;08Feb2013;1153;mixed;500;400;2000;1;21;4.58271000083;False;X;4;z;1;277;None;None;None;None;None;None;None;None;None;A;893;1;Vert;0;4;0;0;None;None;0;BER;686;0.23;0;0;5;3000;4;;
vs12;ber;4;2;08Feb2013;1217;mixed;500;400;2000;6;35;3.20523435806;True;L;8;z;1;320;None;None;None;None;None;None;None;None;None;A;1957;2;Vert;0;3;0;0;None;None;0;BER;1662;0.23;0;0;2;3000;1;;
vs12;ber;4;2;08Feb2013;1145;Ent1;500;400;2000;1;2;3.4695733821;False;X;16;a;1;304;None;None;None;None;None;None;None;None;None;None;None;None;Rouge;0;1;0;0;None;None;0;BER;1936;0.23;0;0;2;3000;1;;
vs12;ber;4;2;08Feb2013;1215;mixed;500;400;2000;6;15;5.4783256462;False;X;8;a;1;450;None;None;None;None;None;None;None;None;None;A;1088;0;Rouge;0;4;0;0;None;None;0;BER;1173.67;0.23;0;0;3;3000;2;;
vs12;ber;4;2;08Feb2013;1218;mixed;500;400;2000;7;1;2.07021640199;True;X;16;a;1;368;None;None;None;None;None;None;None;None;None;A;1683;1;Rouge;0;13;0;0;None;None;0;BER;1747.5;0.23;0;0;2;3000;1;;
vs12;ber;4;2;08Feb2013;1200;mixed;500;400;2000;2;24;1.62994471812;True;X;4;a;1;351;None;None;None;None;None;None;None;None;None;A;1326;1;Rouge;0;3;0;0;None;None;0;BER;2205.5;0.23;0;0;2;3000;1;;
vs12;ber;4;2;08Feb2013;1145;Ent1;500;400;2000;1;7;0.19776663068;True;X;8;z;1;307;None;None;None;None;None;None;None;None;None;None;None;None;Vert;0;8;0;0;None;None;0;BER;756.8;0.23;0;0;5;3000;4;;
vs12;ber;4;2;08Feb2013;1208;mixed;500;400;2000;4;26;2.16267564245;True;X;4;z;1;444;None;None;None;None;None;None;None;None;None;A;1165;3;Vert;0;3;0;0;None;None;0;BER;760.75;0.23;0;0;4;3000;3;;
vs12;ber;4;2;08Feb2013;1223;mixed;500;400;2000;8;24;4.1876483716;False;X;16;z;1;295;None;None;None;None;None;None;None;None;None;A;554;1;Vert;0;5;0;0;None;None;0;BER;794.75;0.23;0;0;4;3000;3;;
vs12;ber;4;2;08Feb2013;1215;mixed;500;400;2000;6;16;2.92895977222;False;L;16;z;1;368;None;None;None;None;None;None;None;None;None;B;912;4;Vert;0;5;0;0;None;None;0;BER;950.25;0.23;0;0;4;3000;3;;
vs12;ber;4;2;08Feb2013;1141;Ent1;500;400;2000;1;3;4.85664013455;False;X;4;z;1;944;None;None;None;None;None;None;None;None;None;None;None;None;Vert;0;2;0;0;None;None;0;BER;201;0.24;0;0;5;3000;4;;
vs12;ber;4;2;08Feb2013;1222;mixed;500;400;2000;8;9;2.47604141911;True;X;16;z;1;247;None;None;None;None;None;None;None;None;None;A;1004;1;Vert;0;7;0;0;None;None;0;BER;735;0.24;0;0;4;3000;4;;
vs12;ber;4;2;08Feb2013;1203;mixed;500;400;2000;3;13;5.16881326262;True;X;8;z;1;466;None;None;None;None;None;None;None;None;None;A;1699;1;Vert;0;6;0;0;None;None;0;BER;1006;0.24;0;0;3;3000;2;;
vs12;ber;4;2;08Feb2013;1220;mixed;500;400;2000;7;30;1.07178586719;True;X;4;a;1;291;None;None;None;None;None;None;None;None;None;A;1080;1;Rouge;0;1;0;0;None;None;0;BER;1236;0.24;0;0;3;3000;2;;
vs12;ber;4;2;08Feb2013;1219;mixed;500;400;2000;7;9;4.87903196267;False;X;16;z;1;670;None;None;None;None;None;None;None;None;None;A;1594;2;Vert;0;2;0;0;None;None;0;BER;1538;0.24;0;0;2;3000;1;;
vs12;ber;4;2;08Feb2013;1143;Ent1;500;400;2000;1;6;0.747505593726;False;L;16;N;0;1000;None;None;None;None;None;None;None;None;None;None;None;None;Rouge;0;10;0;0;None;None;0;BER;1558;0.24;0;0;2;3000;1;;
vs12;ber;4;2;08Feb2013;1200;mixed;500;400;2000;2;27;5.66693656984;False;X;4;a;1;253;None;None;None;None;None;None;None;None;None;A;870;1;Rouge;0;4;0;0;None;None;0;BER;1607;0.24;0;0;2;3000;1;;
vs12;ber;4;2;08Feb2013;1212;mixed;500;400;2000;5;28;2.60299135928;True;L;4;z;1;312;None;None;None;None;None;None;None;None;None;A;506;1;Vert;0;4;0;0;None;None;0;BER;1034.25;0.24;0;0;4;3000;3;;
vs12;ber;4;2;08Feb2013;1213;mixed;500;400;2000;5;34;4.05260544003;True;L;8;z;1;352;None;None;None;None;None;None;None;None;None;A;906;3;Vert;0;8;0;0;None;None;0;BER;1040.75;0.24;0;0;4;3000;3;;
vs12;ber;4;2;08Feb2013;1211;mixed;500;400;2000;5;14;1.92064073286;True;X;8;a;1;293;None;None;None;None;None;None;None;None;None;A;1492;1;Rouge;0;5;0;0;None;None;0;BER;1162.33;0.24;0;0;3;3000;2;;
vs12;ber;4;2;08Feb2013;1219;mixed;500;400;2000;7;13;2.64510266333;False;L;8;a;1;264;None;None;None;None;None;None;None;None;None;A;921;1;Rouge;0;7;0;0;None;None;0;BER;1659.5;0.24;0;0;2;3000;1;;
vs12;ber;4;2;08Feb2013;1214;mixed;500;400;2000;6;4;4.97326507538;True;L;4;z;1;384;None;None;None;None;None;None;None;None;None;A;1634;2;Vert;0;4;0;0;None;None;0;BER;1978.5;0.24;0;0;2;3000;1;;
vs12;ber;4;2;08Feb2013;1224;mixed;500;400;2000;8;33;2.69788198729;False;X;16;a;1;287;None;None;None;None;None;None;None;None;None;A;1056;0;Rouge;0;16;0;0;None;None;0;BER;488.17;0.24;0;0;6;3000;5;;
vs12;ber;4;2;08Feb2013;1211;mixed;500;400;2000;5;18;0.411887402258;False;L;8;a;1;283;None;None;None;None;None;None;None;None;None;A;793;3;Rouge;0;4;0;0;None;None;0;BER;533.29;0.24;0;0;7;3000;6;;
vs12;ber;4;2;08Feb2013;1216;mixed;500;400;2000;6;26;1.29268233294;False;X;16;z;1;304;None;None;None;None;None;None;None;None;None;A;832;0;Vert;0;14;0;0;None;None;0;BER;615.67;0.24;0;0;6;3000;5;;
vs12;ber;4;2;08Feb2013;1205;mixed;500;400;2000;3;35;0.217450102038;True;L;16;z;1;389;None;None;None;None;None;None;None;None;None;B;1038;5;Vert;0;5;0;0;None;None;0;BER;720.4;0.24;0;0;5;3000;4;;
vs12;ber;4;2;08Feb2013;1159;mixed;500;400;2000;2;17;1.46818035292;False;X;4;z;1;275;None;None;None;None;None;None;None;None;None;A;697;1;Vert;0;1;0;0;None;None;0;BER;965;0.25;0;0;4;3000;3;;
vs12;ber;4;2;08Feb2013;1142;Ent1;500;400;2000;1;4;5.10083571852;True;X;4;a;1;542;None;None;None;None;None;None;None;None;None;None;None;None;Rouge;0;1;0;0;None;None;0;BER;142.43;0.25;0;0;7;3000;7;;
vs12;ber;4;2;08Feb2013;1153;mixed;500;400;2000;1;24;6.20081204953;True;L;8;a;1;390;None;None;None;None;None;None;None;None;None;B;1285;5;Rouge;0;4;0;0;None;None;0;BER;257.36;0.25;0;0;11;3000;10;;
vs12;ber;4;2;08Feb2013;1159;mixed;500;400;2000;2;11;3.75213014657;True;X;8;a;1;258;None;None;None;None;None;None;None;None;None;A;798;3;Rouge;0;6;0;0;None;None;0;BER;698;0.26;0;0;5;3000;4;;
vs12;ber;4;2;08Feb2013;1217;mixed;500;400;2000;6;33;2.02252943305;True;X;4;a;1;328;None;None;None;None;None;None;None;None;None;A;1672;0;Rouge;0;3;0;0;None;None;0;BER;977;0.26;0;0;3;3000;3;;
vs12;ber;4;2;08Feb2013;1220;mixed;500;400;2000;7;22;3.95412914716;False;X;4;a;1;294;None;None;None;None;None;None;None;None;None;A;777;1;Rouge;0;3;0;0;None;None;0;BER;1177;0.26;0;0;3;3000;2;;
