manip subject session order mm tm trialType iti fixDur stimDur nBlock nTrial alpha present targType nItems resp acc rt confidence estNItems estTime confidenceRT estNItemsRT estTimeRT RecRT Erreur REC Rec2Type RecRT2 Rec2 couleur
vs12 amelie 4 4 09Nov2011 1026 pTMix 500 503 8000 1 1 2.77697918918 False X 8 z 1 17223 None None None None None None None None None None None None Vert
vs12 amelie 4 4 09Nov2011 1026 pTMix 500 581 8000 1 2 3.24942886118 False X 4 a 1 2384 None None None None None None None None None None None None Rouge
vs12 amelie 4 4 09Nov2011 1026 pTMix 500 562 8000 1 3 0.591489556241 True X 4 a 1 1284 None None None None None None None None None None None None Rouge
vs12 amelie 4 4 09Nov2011 1026 pTMix 500 567 8000 1 4 1.17644304337 False L 8 z 0 2285 None None None None None None None None None None None None Rouge
vs12 amelie 4 4 09Nov2011 1026 pTMix 500 445 8000 1 5 4.41801795443 False L 4 z 1 5747 None None None None None None None None None None None None Vert
vs12 amelie 4 4 09Nov2011 1026 pTMix 500 575 8000 1 6 3.27467136464 True X 8 z 1 1484 None None None None None None None None None None None None Vert
vs12 amelie 4 4 09Nov2011 1027 pTMix 500 637 8000 1 7 2.28627558523 False L 16 z 1 4197 None None None None None None None None None None None None Vert
vs12 amelie 4 4 09Nov2011 1027 pTMix 500 560 8000 1 8 4.23496904442 False X 16 z 1 1086 None None None None None None None None None None None None Vert
vs12 amelie 4 4 09Nov2011 1027 pTMix 500 632 8000 1 9 4.42448078839 True L 4 a 1 1617 None None None None None None None None None None None None Rouge
vs12 amelie 4 4 09Nov2011 1027 pTMix 500 481 8000 1 10 5.82813640842 False X 4 z 0 1184 None None None None None None None None None None None None Rouge
vs12 amelie 4 4 09Nov2011 1027 pTMix 500 471 8000 1 11 3.42126778296 True L 8 z 1 4378 None None None None None None None None None None None None Vert
vs12 amelie 4 4 09Nov2011 1027 pTMix 500 458 8000 1 12 5.10414391386 True X 8 a 1 2018 None None None None None None None None None None None None Rouge
vs12 amelie 4 4 09Nov2011 1027 pTMix 500 587 8000 1 13 1.82852593444 True L 16 a 1 2463 None None None None None None None None None None None None Rouge
vs12 amelie 4 4 09Nov2011 1027 pTMix 500 620 8000 1 14 3.66725097613 True L 16 z 1 1435 None None None None None None None None None None None None Vert
vs12 amelie 4 4 09Nov2011 1027 pTMix 500 666 8000 1 15 1.98812023442 True X 16 z 1 1702 None None None None None None None None None None None None Vert
vs12 amelie 4 4 09Nov2011 1027 pTMix 500 545 8000 1 16 0.0687882586583 False X 16 z 1 1468 None None None None None None None None None None None None Vert
vs12 amelie 4 4 09Nov2011 1027 pTMix 500 607 8000 1 17 3.15345427609 True L 4 a 1 1467 None None None None None None None None None None None None Rouge
vs12 amelie 4 4 09Nov2011 1027 pTMix 500 557 8000 1 18 6.07575968498 False X 8 z 1 1019 None None None None None None None None None None None None Vert
vs12 amelie 4 4 09Nov2011 1027 pTMix 500 448 8000 1 19 3.20611937223 False L 8 a 1 1817 None None None None None None None None None None None None Rouge
vs12 amelie 4 4 09Nov2011 1027 pTMix 500 663 8000 1 20 0.305122059816 False L 16 z 1 2932 None None None None None None None None None None None None Vert
vs12 amelie 4 4 09Nov2011 1027 pTMix 500 508 8000 1 21 1.49695525958 True X 16 a 1 1101 None None None None None None None None None None None None Rouge
vs12 amelie 4 4 09Nov2011 1027 pTMix 500 607 8000 1 22 2.59080033977 False L 4 z 1 1451 None None None None None None None None None None None None Vert
vs12 amelie 4 4 09Nov2011 1027 pTMix 500 428 8000 1 23 5.66578655252 True X 4 z 1 1401 None None None None None None None None None None None None Vert
vs12 amelie 4 4 09Nov2011 1027 pTMix 500 512 8000 1 24 0.523661449331 True L 8 z 1 1084 None None None None None None None None None None None None Vert
vs12 amelie 4 4 09Nov2011 1028 tMix 500 632 8000 1 1 2.75677344482 False X 8 a 1 1585 None None None None None None None None None A 5229 1 Rouge
vs12 amelie 4 4 09Nov2011 1028 tMix 500 578 8000 1 2 2.61107302099 True X 4 z 1 1900 None None None None None None None None None A 2198 1 Vert
vs12 amelie 4 4 09Nov2011 1029 tMix 500 580 8000 1 3 0.0356717911486 True X 8 a 1 1183 None None None None None None None None None A 4598 1 Rouge
vs12 amelie 4 4 09Nov2011 1029 tMix 500 573 8000 1 4 0.528478925399 False L 8 a 1 2735 None None None None None None None None None B 1517 4 Rouge
vs12 amelie 4 4 09Nov2011 1029 tMix 500 484 8000 1 5 2.43496135061 False X 8 a 1 3034 None None None None None None None None None A 1467 1 Rouge
vs12 amelie 4 4 09Nov2011 1029 tMix 500 627 8000 1 6 4.28616626213 True X 8 z 1 2282 None None None None None None None None None A 2100 3 Vert
vs12 amelie 4 4 09Nov2011 1029 tMix 500 515 8000 1 7 2.57086561096 False X 4 z 1 801 None None None None None None None None None A 2184 1 Vert
vs12 amelie 4 4 09Nov2011 1029 tMix 500 635 8000 1 8 1.72732171254 False X 16 z 1 752 None None None None None None None None None A 2399 1 Vert
vs12 amelie 4 4 09Nov2011 1029 tMix 500 487 8000 1 9 2.89521062695 False X 4 a 1 1748 None None None None None None None None None A 16856 1 Rouge
vs12 amelie 4 4 09Nov2011 1029 tMix 500 700 8000 1 10 4.90549360824 True X 16 z 1 919 None None None None None None None None None A 5230 2 Vert
vs12 amelie 4 4 09Nov2011 1030 tMix 500 435 8000 1 11 3.19829265293 False X 16 z 1 702 None None None None None None None None None A 3016 1 Vert
vs12 amelie 4 4 09Nov2011 1030 tMix 500 440 8000 1 12 5.38043464908 True L 8 z 1 2168 None None None None None None None None None B 1733 4 Vert
vs12 amelie 4 4 09Nov2011 1030 tMix 500 587 8000 1 13 4.08706192498 False L 16 z 1 2832 None None None None None None None None None B 2883 5 Vert
vs12 amelie 4 4 09Nov2011 1030 tMix 500 493 8000 1 14 5.69407675434 True L 8 z 1 1501 None None None None None None None None None B 2697 4 Vert
vs12 amelie 4 4 09Nov2011 1030 tMix 500 501 8000 1 15 1.02618405636 False L 8 a 1 1167 None None None None None None None None None A 3529 3 Rouge
vs12 amelie 4 4 09Nov2011 1030 tMix 500 454 8000 1 16 3.54471542317 True X 4 a 1 2250 None None None None None None None None None A 2617 2 Rouge
vs12 amelie 4 4 09Nov2011 1030 tMix 500 441 8000 1 17 2.15169271932 True L 4 a 1 1833 None None None None None None None None None A 1235 2 Rouge
vs12 amelie 4 4 09Nov2011 1030 tMix 500 658 8000 1 18 5.02021921415 True L 16 a 1 2997 None None None None None None None None None C 2550 6 Rouge
vs12 amelie 4 4 09Nov2011 1030 tMix 500 599 8000 1 19 3.07575012052 False L 4 a 1 1151 None None None None None None None None None B 1301 4 Rouge
vs12 amelie 4 4 09Nov2011 1030 tMix 500 663 8000 1 20 5.49493713441 True L 16 a 1 3601 None None None None None None None None None D 1350 8 Rouge
vs12 amelie 4 4 09Nov2011 1031 tMix 500 419 8000 1 21 0.559284405999 True L 4 z 1 1129 None None None None None None None None None B 1616 4 Vert
vs12 amelie 4 4 09Nov2011 1031 tMix 500 573 8000 1 22 4.03995744157 False L 4 a 1 1650 None None None None None None None None None A 1583 3 Rouge
vs12 amelie 4 4 09Nov2011 1031 tMix 500 429 8000 1 23 0.622155287724 False L 16 a 0 1085 None None None None None None None None None B 3065 4 Vert
vs12 amelie 4 4 09Nov2011 1031 tMix 500 554 8000 1 24 5.01777839321 True X 16 z 0 1167 None None None None None None None None None B 2633 4 Rouge
vs12 amelie 4 4 09Nov2011 1031 mixed 500 552 8000 1 1 1.95329949351 False L 4 a 1 2663 None None None None None None None None None A 3566 2 Rouge
vs12 amelie 4 4 09Nov2011 1032 mixed 500 500 8000 1 2 0.732725633762 True L 16 a 1 3881 None None None None None None None None None B 1333 5 Rouge
vs12 amelie 4 4 09Nov2011 1032 mixed 500 511 8000 1 3 3.66751227801 True X 4 z 1 1084 None None None None None None None None None A 1049 1 Vert
vs12 amelie 4 4 09Nov2011 1032 mixed 500 557 8000 1 4 1.01159228851 False X 16 z 1 685 None None None None None None None None None A 3015 1 Vert
vs12 amelie 4 4 09Nov2011 1032 mixed 500 514 8000 1 5 1.07235280112 True X 4 a 1 935 None None None None None None None None None A 1184 2 Rouge
vs12 amelie 4 4 09Nov2011 1032 mixed 500 653 8000 1 6 4.90876959075 False L 8 z 1 1701 None None None None None None None None None A 2661 3 Vert
vs12 amelie 4 4 09Nov2011 1032 mixed 500 452 8000 1 7 3.42147823496 True L 16 z 1 1270 None None None None None None None None None A 2999 3 Vert
vs12 amelie 4 4 09Nov2011 1032 mixed 500 587 8000 1 8 1.86789731124 True X 4 a 1 1033 None None None None None None None None None A 1298 2 Rouge
vs12 amelie 4 4 09Nov2011 1032 mixed 500 457 8000 1 9 5.93809872963 False X 16 z 1 786 None None None None None None None None None A 1583 1 Vert
vs12 amelie 4 4 09Nov2011 1032 mixed 500 547 8000 1 10 2.72145932192 True L 16 a 1 2085 None None None None None None None None None A 1513 3 Rouge
vs12 amelie 4 4 09Nov2011 1032 mixed 500 438 8000 1 11 4.98408339847 False L 4 a 1 1083 None None None None None None None None None B 6864 4 Rouge
vs12 amelie 4 4 09Nov2011 1032 mixed 500 427 8000 1 12 6.21189680618 False X 4 a 1 901 None None None None None None None None None A 1368 1 Rouge
vs12 amelie 4 4 09Nov2011 1032 mixed 500 440 8000 1 13 2.93674130672 False X 16 a 1 701 None None None None None None None None None A 1417 2 Rouge
vs12 amelie 4 4 09Nov2011 1032 mixed 500 570 8000 1 14 2.58643737209 True X 4 z 1 784 None None None None None None None None None A 1184 1 Vert
vs12 amelie 4 4 09Nov2011 1032 mixed 500 495 8000 1 15 3.52415537852 True X 8 z 1 668 None None None None None None None None None A 1367 2 Vert
vs12 amelie 4 4 09Nov2011 1032 mixed 500 592 8000 1 16 5.82647424137 True L 4 z 1 1066 None None None None None None None None None A 1600 2 Vert
vs12 amelie 4 4 09Nov2011 1032 mixed 500 512 8000 1 17 2.86161313662 True L 8 a 1 2666 None None None None None None None None None B 2368 4 Rouge
vs12 amelie 4 4 09Nov2011 1033 mixed 500 518 8000 1 18 1.49805398151 True L 8 a 1 2430 None None None None None None None None None B 1432 4 Rouge
vs12 amelie 4 4 09Nov2011 1033 mixed 500 409 8000 1 19 6.2517415503 True L 4 a 1 2167 None None None None None None None None None D 1318 8 Rouge
vs12 amelie 4 4 09Nov2011 1033 mixed 500 599 8000 1 20 2.23217114372 False X 4 a 1 1334 None None None None None None None None None A 1248 1 Rouge
vs12 amelie 4 4 09Nov2011 1033 mixed 500 527 8000 1 21 0.584328278603 True X 8 z 1 701 None None None None None None None None None A 1034 2 Vert
vs12 amelie 4 4 09Nov2011 1033 mixed 500 452 8000 1 22 0.458554006372 True L 8 z 1 2534 None None None None None None None None None A 1084 3 Vert
vs12 amelie 4 4 09Nov2011 1033 mixed 500 641 8000 1 23 3.18197291336 True X 16 a 1 934 None None None None None None None None None A 1050 1 Rouge
vs12 amelie 4 4 09Nov2011 1033 mixed 500 416 8000 1 24 0.221318520576 False X 8 a 1 868 None None None None None None None None None A 1518 1 Rouge
vs12 amelie 4 4 09Nov2011 1033 mixed 500 474 8000 1 25 1.99801639284 True L 4 a 1 1033 None None None None None None None None None A 1248 1 Rouge
vs12 amelie 4 4 09Nov2011 1033 mixed 500 661 8000 1 26 0.732101630828 True X 8 z 0 917 None None None None None None None None None A 3850 3 Rouge
vs12 amelie 4 4 09Nov2011 1033 mixed 500 577 8000 1 27 4.62490612008 False X 8 a 1 951 None None None None None None None None None A 2145 2 Rouge
vs12 amelie 4 4 09Nov2011 1033 mixed 500 672 8000 1 28 2.89148639756 False L 8 a 1 2434 None None None None None None None None None B 2915 4 Rouge
vs12 amelie 4 4 09Nov2011 1033 mixed 500 594 8000 1 29 1.21355774805 True X 16 a 1 1318 None None None None None None None None None A 2482 2 Rouge
vs12 amelie 4 4 09Nov2011 1033 mixed 500 450 8000 1 30 5.65820704203 False L 4 a 1 2183 None None None None None None None None None D 1095 8 Rouge
vs12 amelie 4 4 09Nov2011 1033 mixed 500 595 8000 1 31 1.1267278479 True X 8 z 1 1085 None None None None None None None None None A 1034 2 Vert
vs12 amelie 4 4 09Nov2011 1033 mixed 500 552 8000 1 32 4.10632772706 True L 16 a 1 3052 None None None None None None None None None C 1464 6 Rouge
vs12 amelie 4 4 09Nov2011 1034 mixed 500 588 8000 1 33 3.96968496445 True L 16 a 1 5736 None None None None None None None None None C 1645 7 Rouge
vs12 amelie 4 4 09Nov2011 1034 mixed 500 600 8000 1 34 2.76552500358 False X 16 z 1 1451 None None None None None None None None None A 1032 2 Vert
vs12 amelie 4 4 09Nov2011 1034 mixed 500 679 8000 1 35 3.09556645248 False X 4 a 1 601 None None None None None None None None None A 1550 1 Rouge
vs12 amelie 4 4 09Nov2011 1034 mixed 500 580 8000 1 36 3.97380565143 False L 4 z 1 1799 None None None None None None None None None A 1700 3 Vert
vs12 amelie 4 4 09Nov2011 1034 mixed 500 442 8000 1 37 0.355550403795 True X 16 a 1 718 None None None None None None None None None A 4312 1 Rouge
vs12 amelie 4 4 09Nov2011 1034 mixed 500 594 8000 1 38 5.8562446537 False L 16 z 1 3884 None None None None None None None None None C 1101 7 Vert
vs12 amelie 4 4 09Nov2011 1034 mixed 500 650 8000 1 39 5.75913711347 True L 8 z 1 1483 None None None None None None None None None B 2266 4 Vert
vs12 amelie 4 4 09Nov2011 1034 mixed 500 618 8000 1 40 3.59763473696 True L 8 z 1 985 None None None None None None None None None A 1067 1 Vert
vs12 amelie 4 4 09Nov2011 1034 mixed 500 634 8000 1 41 6.06189035068 False L 16 z 1 1464 None None None None None None None None None A 834 3 Vert
vs12 amelie 4 4 09Nov2011 1034 mixed 500 513 8000 1 42 2.10689585996 True X 16 a 1 1168 None None None None None None None None None A 1417 3 Rouge
vs12 amelie 4 4 09Nov2011 1034 mixed 500 562 8000 1 43 5.34488318093 True L 4 a 1 1268 None None None None None None None None None A 1233 3 Rouge
vs12 amelie 4 4 09Nov2011 1034 mixed 500 689 8000 1 44 0.0971515363843 False X 4 z 1 883 None None None None None None None None None A 1867 1 Vert
vs12 amelie 4 4 09Nov2011 1034 mixed 500 538 8000 1 45 6.2104248248 True L 4 z 1 1051 None None None None None None None None None A 1150 2 Vert
vs12 amelie 4 4 09Nov2011 1034 mixed 500 468 8000 1 46 3.58384334915 False L 16 a 1 1795 None None None None None None None None None A 1399 3 Rouge
vs12 amelie 4 4 09Nov2011 1034 mixed 500 587 8000 1 47 1.96653469636 True X 8 a 1 1034 None None None None None None None None None A 1066 1 Rouge
vs12 amelie 4 4 09Nov2011 1034 mixed 500 521 8000 1 48 4.01508249821 False X 16 a 1 752 None None None None None None None None None A 900 1 Rouge
vs12 amelie 4 4 09Nov2011 1035 mixed 500 509 8000 1 49 2.42549069579 True X 4 z 1 801 None None None None None None None None None A 934 1 Vert
vs12 amelie 4 4 09Nov2011 1035 mixed 500 444 8000 1 50 5.10185348803 False X 8 a 0 467 None None None None None None None None None A 1700 2 Vert
vs12 amelie 4 4 09Nov2011 1035 mixed 500 546 8000 1 51 2.6909983923 False X 4 a 1 1551 None None None None None None None None None A 1930 1 Rouge
vs12 amelie 4 4 09Nov2011 1035 mixed 500 576 8000 1 52 1.69691175557 False L 8 a 1 2084 None None None None None None None None None B 1466 4 Rouge
vs12 amelie 4 4 09Nov2011 1035 mixed 500 546 8000 1 53 2.53947805768 True X 16 a 1 1169 None None None None None None None None None A 1381 2 Rouge
vs12 amelie 4 4 09Nov2011 1035 mixed 500 645 8000 1 54 2.029037185 False L 8 z 1 3050 None None None None None None None None None B 1866 4 Vert
vs12 amelie 4 4 09Nov2011 1035 mixed 500 558 8000 1 55 4.8134629186 False X 8 z 1 784 None None None None None None None None None A 1063 1 Vert
vs12 amelie 4 4 09Nov2011 1035 mixed 500 442 8000 1 56 2.22479977219 False L 4 a 1 1934 None None None None None None None None None C 1266 6 Rouge
vs12 amelie 4 4 09Nov2011 1035 mixed 500 434 8000 1 57 2.92306787437 False L 8 z 1 1468 None None None None None None None None None B 1234 4 Vert
vs12 amelie 4 4 09Nov2011 1035 mixed 500 586 8000 1 58 3.79597476746 False L 16 z 1 3668 None None None None None None None None None C 984 6 Vert
vs12 amelie 4 4 09Nov2011 1035 mixed 500 446 8000 1 59 0.527492381647 False X 8 a 1 917 None None None None None None None None None A 1281 1 Rouge
vs12 amelie 4 4 09Nov2011 1035 mixed 500 552 8000 1 60 4.74666567783 False L 16 a 1 5034 None None None None None None None None None B 1100 5 Rouge
vs12 amelie 4 4 09Nov2011 1036 mixed 500 461 8000 2 1 4.53022617224 True X 8 a 1 1685 None None None None None None None None None A 1383 0 Rouge
vs12 amelie 4 4 09Nov2011 1036 mixed 500 475 8000 2 2 5.29015458317 True L 8 a 1 1185 None None None None None None None None None A 895 2 Rouge
vs12 amelie 4 4 09Nov2011 1036 mixed 500 567 8000 2 3 4.02789231726 True X 8 a 1 1384 None None None None None None None None None A 1283 1 Rouge
vs12 amelie 4 4 09Nov2011 1036 mixed 500 651 8000 2 4 6.16206371299 True L 16 z 1 1751 None None None None None None None None None B 901 4 Vert
vs12 amelie 4 4 09Nov2011 1036 mixed 500 433 8000 2 5 1.49436841955 False L 8 z 1 1765 None None None None None None None None None B 1000 4 Vert
vs12 amelie 4 4 09Nov2011 1036 mixed 500 554 8000 2 6 4.85314583436 False X 4 a 1 835 None None None None None None None None None A 750 2 Rouge
vs12 amelie 4 4 09Nov2011 1036 mixed 500 571 8000 2 7 0.723359936252 False L 8 a 1 1251 None None None None None None None None None A 1118 1 Rouge
vs12 amelie 4 4 09Nov2011 1036 mixed 500 594 8000 2 8 3.0366256165 False L 4 a 1 1267 None None None None None None None None None A 1134 2 Rouge
vs12 amelie 4 4 09Nov2011 1036 mixed 500 511 8000 2 9 3.27772289375 False L 4 z 1 1283 None None None None None None None None None A 1083 3 Vert
vs12 amelie 4 4 09Nov2011 1036 mixed 500 478 8000 2 10 1.84165801166 False X 4 a 1 901 None None None None None None None None None A 1066 1 Rouge
vs12 amelie 4 4 09Nov2011 1036 mixed 500 672 8000 2 11 1.95816025598 True L 16 a 1 2918 None None None None None None None None None B 2650 4 Rouge
vs12 amelie 4 4 09Nov2011 1036 mixed 500 481 8000 2 12 4.79116977186 True X 4 z 1 997 None None None None None None None None None A 1067 1 Vert
vs12 amelie 4 4 09Nov2011 1036 mixed 500 648 8000 2 13 2.61700527927 True X 16 a 1 1169 None None None None None None None None None A 983 3 Rouge
vs12 amelie 4 4 09Nov2011 1036 mixed 500 452 8000 2 14 3.87190225875 True L 8 z 1 1834 None None None None None None None None None A 1245 3 Vert
vs12 amelie 4 4 09Nov2011 1036 mixed 500 558 8000 2 15 4.36519799812 False L 8 a 1 1068 None None None None None None None None None A 1250 2 Rouge
vs12 amelie 4 4 09Nov2011 1037 mixed 500 538 8000 2 16 1.90246669533 True L 4 z 1 2167 None None None None None None None None None B 1200 4 Vert
vs12 amelie 4 4 09Nov2011 1037 mixed 500 616 8000 2 17 0.256398221829 False X 4 a 1 701 None None None None None None None None None A 801 1 Rouge
vs12 amelie 4 4 09Nov2011 1037 mixed 500 699 8000 2 18 3.14241134535 True L 16 z 1 2568 None None None None None None None None None B 1266 4 Vert
vs12 amelie 4 4 09Nov2011 1037 mixed 500 618 8000 2 19 5.97717133881 True X 8 a 1 800 None None None None None None None None None A 749 1 Rouge
vs12 amelie 4 4 09Nov2011 1037 mixed 500 416 8000 2 20 0.0832484305819 True X 16 a 1 836 None None None None None None None None None A 533 1 Rouge
vs12 amelie 4 4 09Nov2011 1037 mixed 500 519 8000 2 21 1.92510588176 False L 4 z 1 1084 None None None None None None None None None A 967 3 Vert
vs12 amelie 4 4 09Nov2011 1037 mixed 500 650 8000 2 22 5.19526016459 False L 16 a 1 1351 None None None None None None None None None A 645 2 Rouge
vs12 amelie 4 4 09Nov2011 1037 mixed 500 510 8000 2 23 4.77910537523 False X 4 z 1 766 None None None None None None None None None A 1184 3 Vert
vs12 amelie 4 4 09Nov2011 1037 mixed 500 535 8000 2 24 1.2032877703 False L 4 a 1 850 None None None None None None None None None A 1116 1 Rouge
vs12 amelie 4 4 09Nov2011 1037 mixed 500 565 8000 2 25 2.09521658823 True L 4 z 1 884 None None None None None None None None None A 818 3 Vert
vs12 amelie 4 4 09Nov2011 1037 mixed 500 673 8000 2 26 2.12312693406 False L 16 a 1 3085 None None None None None None None None None B 1483 5 Rouge
vs12 amelie 4 4 09Nov2011 1037 mixed 500 427 8000 2 27 5.05123629382 False X 8 a 1 1134 None None None None None None None None None A 1480 0 Rouge
vs12 amelie 4 4 09Nov2011 1037 mixed 500 568 8000 2 28 3.41759846889 False L 16 a 1 2852 None None None None None None None None None A 2033 0 Rouge
vs12 amelie 4 4 09Nov2011 1037 mixed 500 544 8000 2 29 2.2448194917 True L 4 z 1 1682 None None None None None None None None None A 1767 2 Vert
vs12 amelie 4 4 09Nov2011 1037 mixed 500 499 8000 2 30 3.68779404322 True X 4 z 1 2167 None None None None None None None None None A 1933 0 Vert
vs12 amelie 4 4 09Nov2011 1037 mixed 500 473 8000 2 31 3.60700807656 False L 8 a 1 1811 None None None None None None None None None A 1267 2 Rouge
vs12 amelie 4 4 09Nov2011 1037 mixed 500 404 8000 2 32 3.74139502717 True X 16 z 1 1535 None None None None None None None None None A 1233 2 Vert
vs12 amelie 4 4 09Nov2011 1038 mixed 500 644 8000 2 33 4.09310345875 False X 8 a 1 1016 None None None None None None None None None A 1285 0 Rouge
vs12 amelie 4 4 09Nov2011 1038 mixed 500 484 8000 2 34 5.46534106244 False X 16 a 1 1068 None None None None None None None None None A 1249 0 Rouge
vs12 amelie 4 4 09Nov2011 1038 mixed 500 458 8000 2 35 0.749786308448 True L 8 z 1 734 None None None None None None None None None A 1750 2 Vert
vs12 amelie 4 4 09Nov2011 1038 mixed 500 639 8000 2 36 1.1254718676 False L 16 a 1 2668 None None None None None None None None None A 2682 3 Rouge
vs12 amelie 4 4 09Nov2011 1038 mixed 500 498 8000 2 37 4.01440198784 True L 16 a 1 4882 None None None None None None None None None C 1433 7 Rouge
vs12 amelie 4 4 09Nov2011 1038 mixed 500 495 8000 2 38 4.69817572322 True X 16 a 1 735 None None None None None None None None None A 1893 0 Rouge
vs12 amelie 4 4 09Nov2011 1038 mixed 500 402 8000 2 39 5.24168308893 False X 16 z 1 702 None None None None None None None None None A 1199 0 Vert
vs12 amelie 4 4 09Nov2011 1038 mixed 500 653 8000 2 40 4.37847048237 False L 4 a 1 1266 None None None None None None None None None A 1649 2 Rouge
vs12 amelie 4 4 09Nov2011 1038 mixed 500 474 8000 2 41 4.88584904169 True X 8 z 1 751 None None None None None None None None None A 1980 0 Vert
vs12 amelie 4 4 09Nov2011 1038 mixed 500 442 8000 2 42 0.354336489897 False X 16 z 1 551 None None None None None None None None None A 1116 0 Vert
vs12 amelie 4 4 09Nov2011 1038 mixed 500 444 8000 2 43 0.642230423748 False L 8 a 1 1867 None None None None None None None None None A 1333 2 Rouge
vs12 amelie 4 4 09Nov2011 1038 mixed 500 680 8000 2 44 0.148204821238 True X 4 z 1 785 None None None None None None None None None A 1267 0 Vert
vs12 amelie 4 4 09Nov2011 1038 mixed 500 499 8000 2 45 3.71740216571 False X 4 z 1 818 None None None None None None None None None A 1984 0 Vert
vs12 amelie 4 4 09Nov2011 1038 mixed 500 685 8000 2 46 2.55755238215 True L 8 z 1 1565 None None None None None None None None None A 1966 2 Vert
vs12 amelie 4 4 09Nov2011 1038 mixed 500 645 8000 2 47 0.761211320633 True L 8 a 1 1751 None None None None None None None None None A 983 2 Rouge
vs12 amelie 4 4 09Nov2011 1038 mixed 500 662 8000 2 48 5.31104745669 True X 4 z 1 1001 None None None None None None None None None A 2295 2 Vert
vs12 amelie 4 4 09Nov2011 1038 mixed 500 557 8000 2 49 3.71394926204 False X 16 a 1 1002 None None None None None None None None None A 1333 0 Rouge
vs12 amelie 4 4 09Nov2011 1039 mixed 500 641 8000 2 50 2.61971869418 True X 16 z 1 752 None None None None None None None None None A 1083 0 Vert
vs12 amelie 4 4 09Nov2011 1039 mixed 500 474 8000 2 51 0.449290106918 True X 8 z 1 668 None None None None None None None None None A 1384 0 Vert
vs12 amelie 4 4 09Nov2011 1039 mixed 500 570 8000 2 52 4.86234848768 False X 16 z 1 619 None None None None None None None None None A 1151 0 Vert
vs12 amelie 4 4 09Nov2011 1039 mixed 500 464 8000 2 53 0.316349920598 True L 16 a 1 1735 None None None None None None None None None A 1465 2 Rouge
vs12 amelie 4 4 09Nov2011 1039 mixed 500 459 8000 2 54 3.93381175589 False X 8 z 1 834 None None None None None None None None None A 1383 0 Vert
vs12 amelie 4 4 09Nov2011 1039 mixed 500 452 8000 2 55 0.650789888042 False X 8 z 1 668 None None None None None None None None None A 1799 0 Vert
vs12 amelie 4 4 09Nov2011 1039 mixed 500 524 8000 2 56 1.0376480439 True X 4 z 1 550 None None None None None None None None None A 1045 0 Vert
vs12 amelie 4 4 09Nov2011 1039 mixed 500 677 8000 2 57 3.00369582937 True L 4 a 1 1250 None None None None None None None None None A 1450 2 Rouge
vs12 amelie 4 4 09Nov2011 1039 mixed 500 660 8000 2 58 6.20417151616 True L 4 a 1 817 None None None None None None None None None A 817 2 Rouge
vs12 amelie 4 4 09Nov2011 1039 mixed 500 583 8000 2 59 2.22158419178 False L 16 z 1 6111 None None None None None None None None None D 1700 8 Vert
vs12 amelie 4 4 09Nov2011 1039 mixed 500 677 8000 2 60 1.12664866213 False X 8 z 1 802 None None None None None None None None None A 1201 0 Vert
vs12 amelie 4 4 09Nov2011 1040 mixed 500 691 8000 3 1 4.6866816693 False X 16 a 1 2485 None None None None None None None None None A 1317 2 Rouge
vs12 amelie 4 4 09Nov2011 1040 mixed 500 525 8000 3 2 1.98685394556 False L 16 z 1 2802 None None None None None None None None None B 1215 4 Vert
vs12 amelie 4 4 09Nov2011 1040 mixed 500 485 8000 3 3 3.54729488697 True L 4 a 1 816 None None None None None None None None None A 2300 0 Rouge
vs12 amelie 4 4 09Nov2011 1040 mixed 500 497 8000 3 4 1.90700969494 False X 4 a 0 751 None None None None None None None None None A 4361 2 Vert
vs12 amelie 4 4 09Nov2011 1040 mixed 500 660 8000 3 5 3.13893539491 False X 16 z 0 1186 None None None None None None None None None A 1750 1 Rouge
vs12 amelie 4 4 09Nov2011 1040 mixed 500 458 8000 3 6 0.766720731373 True L 4 z 1 1893 None None None None None None None None None A 2399 0 Vert
vs12 amelie 4 4 09Nov2011 1040 mixed 500 422 8000 3 7 2.79354584009 False L 16 a 1 5899 None None None None None None None None None C 1965 6 Rouge
vs12 amelie 4 4 09Nov2011 1040 mixed 500 693 8000 3 8 1.17637159421 False L 4 a 1 1467 None None None None None None None None None A 1733 0 Rouge
vs12 amelie 4 4 09Nov2011 1040 mixed 500 661 8000 3 9 3.68127458615 False L 8 z 1 935 None None None None None None None None None A 1383 0 Vert
vs12 amelie 4 4 09Nov2011 1040 mixed 500 568 8000 3 10 3.19598072625 False X 8 a 1 1334 None None None None None None None None None A 1234 0 Rouge
vs12 amelie 4 4 09Nov2011 1040 mixed 500 688 8000 3 11 2.78862508076 True X 16 a 1 618 None None None None None None None None None A 1280 0 Rouge
vs12 amelie 4 4 09Nov2011 1040 mixed 500 625 8000 3 12 1.99229028371 True X 16 a 1 652 None None None None None None None None None A 1250 0 Rouge
vs12 amelie 4 4 09Nov2011 1040 mixed 500 553 8000 3 13 4.87803799128 True X 4 a 1 684 None None None None None None None None None A 867 0 Rouge
vs12 amelie 4 4 09Nov2011 1040 mixed 500 657 8000 3 14 3.73799766913 True X 16 z 1 668 None None None None None None None None None A 1513 0 Vert
vs12 amelie 4 4 09Nov2011 1041 mixed 500 424 8000 3 15 6.18910294699 True L 16 a 1 3319 None None None None None None None None None A 2050 3 Rouge
vs12 amelie 4 4 09Nov2011 1041 mixed 500 458 8000 3 16 1.63581923991 False L 16 z 1 1199 None None None None None None None None None A 1018 3 Vert
vs12 amelie 4 4 09Nov2011 1041 mixed 500 631 8000 3 17 1.27537018168 True L 16 a 1 2419 None None None None None None None None None A 1366 3 Rouge
vs12 amelie 4 4 09Nov2011 1041 mixed 500 698 8000 3 18 3.22997863313 False L 16 a 1 2461 None None None None None None None None None A 2218 2 Rouge
vs12 amelie 4 4 09Nov2011 1041 mixed 500 431 8000 3 19 4.59546280467 True L 8 a 1 1218 None None None None None None None None None A 1368 3 Rouge
vs12 amelie 4 4 09Nov2011 1041 mixed 500 667 8000 3 20 3.2063457871 False L 4 z 1 1348 None None None None None None None None None A 1633 2 Vert
vs12 amelie 4 4 09Nov2011 1041 mixed 500 581 8000 3 21 2.15415861608 True X 4 a 1 884 None None None None None None None None None A 1433 0 Rouge
vs12 amelie 4 4 09Nov2011 1041 mixed 500 479 8000 3 22 3.42938967141 False X 4 a 1 550 None None None None None None None None None A 1060 0 Rouge
vs12 amelie 4 4 09Nov2011 1041 mixed 500 458 8000 3 23 0.605158019629 False X 16 z 1 686 None None None None None None None None None A 1432 0 Vert
vs12 amelie 4 4 09Nov2011 1041 mixed 500 539 8000 3 24 4.14730651465 True X 8 a 1 584 None None None None None None None None None A 1467 0 Rouge
vs12 amelie 4 4 09Nov2011 1041 mixed 500 408 8000 3 25 3.94597323186 True X 8 z 1 551 None None None None None None None None None A 1598 0 Vert
vs12 amelie 4 4 09Nov2011 1041 mixed 500 558 8000 3 26 4.47720343508 False L 8 a 1 1218 None None None None None None None None None A 1451 1 Rouge
vs12 amelie 4 4 09Nov2011 1041 mixed 500 498 8000 3 27 5.99344325826 True L 16 a 1 2918 None None None None None None None None None B 1460 4 Rouge
vs12 amelie 4 4 09Nov2011 1041 mixed 500 620 8000 3 28 1.97931522891 False L 4 z 1 733 None None None None None None None None None A 1949 0 Vert
vs12 amelie 4 4 09Nov2011 1041 mixed 500 691 8000 3 29 6.09195028025 True L 8 a 1 1118 None None None None None None None None None A 1734 2 Rouge
vs12 amelie 4 4 09Nov2011 1041 mixed 500 489 8000 3 30 5.51900485647 False L 8 a 1 1217 None None None None None None None None None A 1283 1 Rouge
vs12 amelie 4 4 09Nov2011 1042 mixed 500 627 8000 3 31 1.01141145805 True X 16 a 1 2702 None None None None None None None None None A 1050 3 Rouge
vs12 amelie 4 4 09Nov2011 1042 mixed 500 402 8000 3 32 1.01523662584 False X 8 z 1 900 None None None None None None None None None A 1316 0 Vert
vs12 amelie 4 4 09Nov2011 1042 mixed 500 627 8000 3 33 0.960276113366 True L 4 a 1 1733 None None None None None None None None None B 1649 4 Rouge
vs12 amelie 4 4 09Nov2011 1042 mixed 500 613 8000 3 34 3.91803642209 True L 8 a 1 1697 None None None None None None None None None B 1784 4 Rouge
vs12 amelie 4 4 09Nov2011 1042 mixed 500 699 8000 3 35 3.88539256412 True L 8 a 1 2135 None None None None None None None None None A 934 3 Rouge
vs12 amelie 4 4 09Nov2011 1042 mixed 500 590 8000 3 36 4.58502093529 True L 16 z 1 3299 None None None None None None None None None D 1600 9 Vert
vs12 amelie 4 4 09Nov2011 1042 mixed 500 660 8000 3 37 2.25788155745 True X 4 z 1 1183 None None None None None None None None None A 1300 0 Vert
vs12 amelie 4 4 09Nov2011 1042 mixed 500 466 8000 3 38 4.83804644943 True X 8 z 1 634 None None None None None None None None None A 1449 0 Vert
vs12 amelie 4 4 09Nov2011 1042 mixed 500 582 8000 3 39 3.47311480624 True X 8 z 1 719 None None None None None None None None None A 1798 0 Vert
vs12 amelie 4 4 09Nov2011 1042 mixed 500 448 8000 3 40 2.23242439393 True L 8 a 1 2647 None None None None None None None None None A 851 2 Rouge
vs12 amelie 4 4 09Nov2011 1042 mixed 500 553 8000 3 41 3.94744126793 False X 16 z 1 886 None None None None None None None None None A 1233 0 Vert
vs12 amelie 4 4 09Nov2011 1042 mixed 500 454 8000 3 42 0.731645758842 False L 4 a 1 1317 None None None None None None None None None A 1764 2 Rouge
vs12 amelie 4 4 09Nov2011 1042 mixed 500 401 8000 3 43 3.68585920349 True L 4 z 1 1233 None None None None None None None None None A 1433 0 Vert
vs12 amelie 4 4 09Nov2011 1042 mixed 500 693 8000 3 44 0.630126175625 False X 8 a 1 834 None None None None None None None None None A 1217 0 Rouge
vs12 amelie 4 4 09Nov2011 1042 mixed 500 593 8000 3 45 4.24735529054 True X 8 a 1 617 None None None None None None None None None A 1048 0 Rouge
vs12 amelie 4 4 09Nov2011 1042 mixed 500 514 8000 3 46 2.44521583717 False X 4 z 1 601 None None None None None None None None None A 1417 0 Vert
vs12 amelie 4 4 09Nov2011 1043 mixed 500 528 8000 3 47 3.71837469217 True L 16 a 1 7012 None None None None None None None None None D 1300 8 Rouge
vs12 amelie 4 4 09Nov2011 1043 mixed 500 470 8000 3 48 2.43134928361 False L 8 z 1 1984 None None None None None None None None None A 982 3 Vert
vs12 amelie 4 4 09Nov2011 1043 mixed 500 469 8000 3 49 6.22688287112 False L 4 a 1 1051 None None None None None None None None None A 1167 0 Rouge
vs12 amelie 4 4 09Nov2011 1043 mixed 500 444 8000 3 50 1.88038443632 True X 4 a 1 801 None None None None None None None None None A 1199 0 Rouge
vs12 amelie 4 4 09Nov2011 1043 mixed 500 599 8000 3 51 1.92727071634 False X 4 z 1 634 None None None None None None None None None A 1279 0 Vert
vs12 amelie 4 4 09Nov2011 1043 mixed 500 647 8000 3 52 2.83896977998 True L 4 a 1 1101 None None None None None None None None None A 1466 1 Rouge
vs12 amelie 4 4 09Nov2011 1043 mixed 500 418 8000 3 53 4.08521051034 False X 4 z 1 851 None None None None None None None None None A 1617 0 Vert
vs12 amelie 4 4 09Nov2011 1043 mixed 500 696 8000 3 54 5.07688522064 False L 16 a 1 2650 None None None None None None None None None A 1033 3 Rouge
vs12 amelie 4 4 09Nov2011 1043 mixed 500 576 8000 3 55 6.1655071617 True X 16 z 1 1085 None None None None None None None None None A 1233 0 Vert
vs12 amelie 4 4 09Nov2011 1043 mixed 500 607 8000 3 56 2.44760173392 False X 8 z 1 651 None None None None None None None None None A 1914 0 Vert
vs12 amelie 4 4 09Nov2011 1043 mixed 500 460 8000 3 57 2.33306736809 False X 16 z 1 819 None None None None None None None None None A 1366 0 Vert
vs12 amelie 4 4 09Nov2011 1043 mixed 500 633 8000 3 58 2.55748526126 True X 4 a 1 550 None None None None None None None None None A 1200 0 Rouge
vs12 amelie 4 4 09Nov2011 1043 mixed 500 674 8000 3 59 3.29983220984 False L 8 a 1 3567 None None None None None None None None None C 750 6 Rouge
vs12 amelie 4 4 09Nov2011 1043 mixed 500 482 8000 3 60 0.497359838393 False X 8 z 0 768 None None None None None None None None None A 1934 0 Rouge
vs12 amelie 4 4 09Nov2011 1044 mixed 500 645 8000 4 1 0.338547879204 False L 4 z 1 1831 None None None None None None None None None A 1483 0 Vert
vs12 amelie 4 4 09Nov2011 1044 mixed 500 478 8000 4 2 4.06850345184 False X 16 z 1 985 None None None None None None None None None A 4028 0 Vert
vs12 amelie 4 4 09Nov2011 1044 mixed 500 405 8000 4 3 3.12952398405 True X 8 z 1 600 None None None None None None None None None A 949 0 Vert
vs12 amelie 4 4 09Nov2011 1044 mixed 500 556 8000 4 4 2.19471201225 False L 8 a 1 1318 None None None None None None None None None A 1034 2 Rouge
vs12 amelie 4 4 09Nov2011 1044 mixed 500 590 8000 4 5 4.1118102704 True X 4 a 1 1068 None None None None None None None None None A 1214 0 Rouge
vs12 amelie 4 4 09Nov2011 1044 mixed 500 502 8000 4 6 0.0109320114895 False X 4 a 1 651 None None None None None None None None None A 1217 0 Rouge
vs12 amelie 4 4 09Nov2011 1044 mixed 500 637 8000 4 7 0.580143637389 False L 16 z 1 3451 None None None None None None None None None B 1214 4 Vert
vs12 amelie 4 4 09Nov2011 1044 mixed 500 605 8000 4 8 2.88130728676 False L 4 z 1 801 None None None None None None None None None A 1301 0 Vert
vs12 amelie 4 4 09Nov2011 1044 mixed 500 507 8000 4 9 3.17049036193 False X 16 z 1 719 None None None None None None None None None A 1399 0 Vert
vs12 amelie 4 4 09Nov2011 1044 mixed 500 662 8000 4 10 2.66031078264 False L 16 z 1 2514 None None None None None None None None None A 1183 3 Vert
vs12 amelie 4 4 09Nov2011 1044 mixed 500 611 8000 4 11 5.33421084273 False X 16 z 1 802 None None None None None None None None None A 1384 0 Vert
vs12 amelie 4 4 09Nov2011 1045 mixed 500 572 8000 4 12 1.45846336653 True L 8 z 1 1582 None None None None None None None None None A 1167 0 Vert
vs12 amelie 4 4 09Nov2011 1045 mixed 500 638 8000 4 13 2.76898909874 False L 8 a 1 1317 None None None None None None None None None A 1149 0 Rouge
vs12 amelie 4 4 09Nov2011 1045 mixed 500 534 8000 4 14 4.17868134615 True X 4 a 1 834 None None None None None None None None None A 1033 0 Rouge
vs12 amelie 4 4 09Nov2011 1045 mixed 500 515 8000 4 15 6.2827544283 False X 16 z 1 796 None None None None None None None None None A 1266 0 Vert
vs12 amelie 4 4 09Nov2011 1045 mixed 500 468 8000 4 16 2.36914732878 True L 16 z 1 1535 None None None None None None None None None A 1633 2 Vert
vs12 amelie 4 4 09Nov2011 1045 mixed 500 536 8000 4 17 5.29386966089 True L 8 a 1 1351 None None None None None None None None None A 1464 0 Rouge
vs12 amelie 4 4 09Nov2011 1045 mixed 500 670 8000 4 18 0.451168229885 False L 16 a 1 1052 None None None None None None None None None A 1166 0 Rouge
vs12 amelie 4 4 09Nov2011 1045 mixed 500 616 8000 4 19 4.77427592865 False X 4 z 0 902 None None None None None None None None None A 1567 2 Rouge
vs12 amelie 4 4 09Nov2011 1045 mixed 500 620 8000 4 20 0.423779404706 False L 8 z 1 2567 None None None None None None None None None A 2017 3 Vert
vs12 amelie 4 4 09Nov2011 1045 mixed 500 682 8000 4 21 5.77301432365 False X 4 a 1 667 None None None None None None None None None A 1250 0 Rouge
vs12 amelie 4 4 09Nov2011 1045 mixed 500 502 8000 4 22 6.11577821357 True X 16 a 1 836 None None None None None None None None None A 1566 0 Rouge
vs12 amelie 4 4 09Nov2011 1045 mixed 500 657 8000 4 23 5.33443709336 True L 4 z 1 1683 None None None None None None None None None A 1000 3 Vert
vs12 amelie 4 4 09Nov2011 1045 mixed 500 644 8000 4 24 0.844991691681 True X 8 a 1 784 None None None None None None None None None A 1394 0 Rouge
vs12 amelie 4 4 09Nov2011 1045 mixed 500 447 8000 4 25 1.16092264594 False X 8 a 1 518 None None None None None None None None None A 1317 0 Rouge
vs12 amelie 4 4 09Nov2011 1045 mixed 500 613 8000 4 26 1.55480379287 False L 4 a 1 1234 None None None None None None None None None A 1483 3 Rouge
vs12 amelie 4 4 09Nov2011 1045 mixed 500 535 8000 4 27 4.69827226367 False L 16 z 1 3015 None None None None None None None None None B 1716 4 Vert
vs12 amelie 4 4 09Nov2011 1045 mixed 500 546 8000 4 28 0.313402190027 False X 4 z 1 683 None None None None None None None None None A 1001 0 Vert
vs12 amelie 4 4 09Nov2011 1045 mixed 500 564 8000 4 29 3.55847094351 True L 8 a 1 1346 None None None None None None None None None A 933 2 Rouge
vs12 amelie 4 4 09Nov2011 1046 mixed 500 424 8000 4 30 0.501288665281 True X 4 z 1 633 None None None None None None None None None A 1233 0 Vert
vs12 amelie 4 4 09Nov2011 1046 mixed 500 544 8000 4 31 1.49917074729 True L 4 a 1 1917 None None None None None None None None None A 1431 2 Rouge
vs12 amelie 4 4 09Nov2011 1046 mixed 500 502 8000 4 32 5.0210016655 False L 8 a 1 1400 None None None None None None None None None B 1449 4 Rouge
vs12 amelie 4 4 09Nov2011 1046 mixed 500 556 8000 4 33 0.693055077122 True L 16 a 1 1136 None None None None None None None None None A 1034 2 Rouge
vs12 amelie 4 4 09Nov2011 1046 mixed 500 596 8000 4 34 4.91410113625 True X 8 a 1 847 None None None None None None None None None A 1433 0 Rouge
vs12 amelie 4 4 09Nov2011 1046 mixed 500 503 8000 4 35 0.74208604836 False L 4 a 1 1634 None None None None None None None None None A 983 3 Rouge
vs12 amelie 4 4 09Nov2011 1046 mixed 500 487 8000 4 36 5.65773217501 True X 16 z 1 1002 None None None None None None None None None A 1448 0 Vert
vs12 amelie 4 4 09Nov2011 1046 mixed 500 638 8000 4 37 0.910962804993 True X 16 z 1 635 None None None None None None None None None A 1250 0 Vert
vs12 amelie 4 4 09Nov2011 1046 mixed 500 627 8000 4 38 1.96525085751 True L 4 z 1 1367 None None None None None None None None None A 967 3 Vert
vs12 amelie 4 4 09Nov2011 1046 mixed 500 583 8000 4 39 4.49196283411 True L 16 a 1 5599 None None None None None None None None None D 1283 9 Rouge
vs12 amelie 4 4 09Nov2011 1046 mixed 500 492 8000 4 40 3.82971522367 False X 8 a 1 918 None None None None None None None None None A 1712 0 Rouge
vs12 amelie 4 4 09Nov2011 1046 mixed 500 689 8000 4 41 0.123464964229 True X 8 z 1 752 None None None None None None None None None A 1766 0 Vert
vs12 amelie 4 4 09Nov2011 1046 mixed 500 639 8000 4 42 3.9604791506 True X 4 z 1 968 None None None None None None None None None A 2881 0 Vert
vs12 amelie 4 4 09Nov2011 1046 mixed 500 516 8000 4 43 0.113837675854 True L 8 z 1 1685 None None None None None None None None None B 1550 4 Vert
vs12 amelie 4 4 09Nov2011 1046 mixed 500 646 8000 4 44 3.30225843067 True L 4 z 1 1084 None None None None None None None None None A 898 3 Vert
vs12 amelie 4 4 09Nov2011 1046 mixed 500 660 8000 4 45 5.57842904282 False L 16 a 1 2769 None None None None None None None None None B 1000 4 Rouge
vs12 amelie 4 4 09Nov2011 1046 mixed 500 465 8000 4 46 4.89388762231 False L 8 z 1 1168 None None None None None None None None None A 917 2 Vert
vs12 amelie 4 4 09Nov2011 1047 mixed 500 572 8000 4 47 2.31451205648 False L 4 a 1 830 None None None None None None None None None A 1833 0 Rouge
vs12 amelie 4 4 09Nov2011 1047 mixed 500 401 8000 4 48 4.13830131582 True L 4 z 1 1600 None None None None None None None None None B 850 4 Vert
vs12 amelie 4 4 09Nov2011 1047 mixed 500 670 8000 4 49 1.66504409772 False X 4 a 1 783 None None None None None None None None None A 1079 0 Rouge
vs12 amelie 4 4 09Nov2011 1047 mixed 500 607 8000 4 50 2.44546686566 True L 16 z 1 3602 None None None None None None None None None C 1166 6 Vert
vs12 amelie 4 4 09Nov2011 1047 mixed 500 440 8000 4 51 3.00709826679 True X 16 z 1 785 None None None None None None None None None A 1096 0 Vert
vs12 amelie 4 4 09Nov2011 1047 mixed 500 669 8000 4 52 2.42412535126 True X 16 z 1 685 None None None None None None None None None A 1816 0 Vert
vs12 amelie 4 4 09Nov2011 1047 mixed 500 457 8000 4 53 0.680707401899 False X 8 a 1 518 None None None None None None None None None A 1099 0 Rouge
vs12 amelie 4 4 09Nov2011 1047 mixed 500 512 8000 4 54 4.46094290525 False X 8 a 1 634 None None None None None None None None None A 1365 0 Rouge
vs12 amelie 4 4 09Nov2011 1047 mixed 500 689 8000 4 55 4.63773710492 False X 8 a 1 667 None None None None None None None None None A 1167 0 Rouge
vs12 amelie 4 4 09Nov2011 1047 mixed 500 692 8000 4 56 2.18036330986 False X 16 z 1 768 None None None None None None None None None A 1166 0 Vert
vs12 amelie 4 4 09Nov2011 1047 mixed 500 663 8000 4 57 3.61268179131 True L 16 a 0 3581 None None None None None None None None None A 1851 3 Vert
vs12 amelie 4 4 09Nov2011 1047 mixed 500 610 8000 4 58 4.19710801668 True L 8 z 1 2417 None None None None None None None None None A 1163 2 Vert
vs12 amelie 4 4 09Nov2011 1047 mixed 500 688 8000 4 59 0.273738931679 True X 8 a 1 952 None None None None None None None None None A 1551 0 Rouge
vs12 amelie 4 4 09Nov2011 1047 mixed 500 419 8000 4 60 1.37207114329 True X 4 z 1 617 None None None None None None None None None A 1300 0 Vert
vs12 amelie 4 4 09Nov2011 1048 mixed 500 432 8000 5 1 1.54569399835 True L 16 a 1 1635 None None None None None None None None None A 1846 0 Rouge
vs12 amelie 4 4 09Nov2011 1048 mixed 500 588 8000 5 2 2.34607553333 False X 8 z 1 668 None None None None None None None None None A 1916 0 Vert
vs12 amelie 4 4 09Nov2011 1048 mixed 500 677 8000 5 3 0.25124396474 True X 8 z 1 551 None None None None None None None None None A 1384 0 Vert
vs12 amelie 4 4 09Nov2011 1048 mixed 500 539 8000 5 4 4.24324533208 False X 8 a 1 548 None None None None None None None None None A 983 0 Rouge
vs12 amelie 4 4 09Nov2011 1048 mixed 500 621 8000 5 5 0.0902988661248 True L 16 z 1 3618 None None None None None None None None None C 1416 6 Vert
vs12 amelie 4 4 09Nov2011 1048 mixed 500 567 8000 5 6 2.30224771388 True X 4 z 1 929 None None None None None None None None None A 1666 0 Vert
vs12 amelie 4 4 09Nov2011 1048 mixed 500 579 8000 5 7 2.21482723969 True L 4 a 1 1801 None None None None None None None None None D 1200 9 Rouge
vs12 amelie 4 4 09Nov2011 1048 mixed 500 462 8000 5 8 3.12747311654 False L 16 z 1 2799 None None None None None None None None None B 1483 4 Vert
vs12 amelie 4 4 09Nov2011 1048 mixed 500 634 8000 5 9 1.92215763027 False X 16 z 1 685 None None None None None None None None None A 1632 0 Vert
vs12 amelie 4 4 09Nov2011 1048 mixed 500 571 8000 5 10 0.782067012415 False L 8 a 1 2265 None None None None None None None None None B 1017 5 Rouge
vs12 amelie 4 4 09Nov2011 1048 mixed 500 626 8000 5 11 4.33379090614 True L 16 a 1 2335 None None None None None None None None None B 916 4 Rouge
vs12 amelie 4 4 09Nov2011 1048 mixed 500 665 8000 5 12 0.688131568834 True L 8 a 1 2297 None None None None None None None None None B 2117 4 Rouge
vs12 amelie 4 4 09Nov2011 1048 mixed 500 415 8000 5 13 0.0310370594833 True L 4 z 1 867 None None None None None None None None None A 1250 0 Vert
vs12 amelie 4 4 09Nov2011 1048 mixed 500 470 8000 5 14 5.18935058974 True L 8 a 1 1366 None None None None None None None None None A 2201 2 Rouge
vs12 amelie 4 4 09Nov2011 1049 mixed 500 453 8000 5 15 4.12078341049 True L 8 z 1 1734 None None None None None None None None None A 1333 0 Vert
vs12 amelie 4 4 09Nov2011 1049 mixed 500 612 8000 5 16 5.56741422328 False L 4 z 1 1049 None None None None None None None None None A 1350 0 Vert
vs12 amelie 4 4 09Nov2011 1049 mixed 500 503 8000 5 17 5.559261165 False X 8 a 1 2101 None None None None None None None None None A 1216 2 Rouge
vs12 amelie 4 4 09Nov2011 1049 mixed 500 672 8000 5 18 4.53098253665 True X 8 a 1 601 None None None None None None None None None A 1029 0 Rouge
vs12 amelie 4 4 09Nov2011 1049 mixed 500 417 8000 5 19 4.47741561777 False L 4 z 1 834 None None None None None None None None None A 1717 1 Vert
vs12 amelie 4 4 09Nov2011 1049 mixed 500 666 8000 5 20 0.215968127329 False L 8 z 1 1168 None None None None None None None None None A 2600 0 Vert
vs12 amelie 4 4 09Nov2011 1049 mixed 500 538 8000 5 21 3.25385268721 True L 4 z 1 817 None None None None None None None None None A 1366 0 Vert
vs12 amelie 4 4 09Nov2011 1049 mixed 500 610 8000 5 22 1.91683939997 True X 16 z 1 1403 None None None None None None None None None A 1400 0 Vert
vs12 amelie 4 4 09Nov2011 1049 mixed 500 400 8000 5 23 6.27820377312 False L 8 z 1 1217 None None None None None None None None None A 1096 0 Vert
vs12 amelie 4 4 09Nov2011 1049 mixed 500 561 8000 5 24 6.18596739263 False L 4 z 1 1268 None None None None None None None None None A 1700 2 Vert
vs12 amelie 4 4 09Nov2011 1049 mixed 500 556 8000 5 25 3.19048157201 True L 16 z 1 1819 None None None None None None None None None A 1310 2 Vert
vs12 amelie 4 4 09Nov2011 1049 mixed 500 606 8000 5 26 3.2407400146 False X 4 z 1 1301 None None None None None None None None None A 1167 0 Vert
vs12 amelie 4 4 09Nov2011 1049 mixed 500 525 8000 5 27 4.7526975657 False L 16 a 1 4782 None None None None None None None None None C 1616 7 Rouge
vs12 amelie 4 4 09Nov2011 1049 mixed 500 612 8000 5 28 0.43653137745 True X 16 a 1 718 None None None None None None None None None A 1066 0 Rouge
vs12 amelie 4 4 09Nov2011 1049 mixed 500 694 8000 5 29 5.63176525009 False X 4 a 1 534 None None None None None None None None None A 1398 0 Rouge
vs12 amelie 4 4 09Nov2011 1049 mixed 500 415 8000 5 30 6.19336898434 False L 8 a 1 1168 None None None None None None None None None A 1166 2 Rouge
vs12 amelie 4 4 09Nov2011 1049 mixed 500 623 8000 5 31 5.77095870102 True L 4 a 1 934 None None None None None None None None None A 1133 2 Rouge
vs12 amelie 4 4 09Nov2011 1049 mixed 500 542 8000 5 32 4.13128858433 False X 4 z 1 750 None None None None None None None None None A 1414 0 Vert
vs12 amelie 4 4 09Nov2011 1050 mixed 500 536 8000 5 33 4.03617108084 True L 8 a 1 2285 None None None None None None None None None B 1516 4 Rouge
vs12 amelie 4 4 09Nov2011 1050 mixed 500 531 8000 5 34 0.908071127171 True X 8 z 1 984 None None None None None None None None None A 1162 0 Vert
vs12 amelie 4 4 09Nov2011 1050 mixed 500 641 8000 5 35 0.360847396266 True X 8 z 1 568 None None None None None None None None None A 1316 0 Vert
vs12 amelie 4 4 09Nov2011 1050 mixed 500 595 8000 5 36 1.84419728634 False L 16 z 1 5099 None None None None None None None None None D 1883 10 Vert
vs12 amelie 4 4 09Nov2011 1050 mixed 500 609 8000 5 37 1.42618619853 True X 4 z 1 1333 None None None None None None None None None A 1416 0 Vert
vs12 amelie 4 4 09Nov2011 1050 mixed 500 454 8000 5 38 5.25713892242 False X 16 a 1 553 None None None None None None None None None A 1013 0 Rouge
vs12 amelie 4 4 09Nov2011 1050 mixed 500 410 8000 5 39 0.740363239408 True X 4 z 1 885 None None None None None None None None None A 1118 0 Vert
vs12 amelie 4 4 09Nov2011 1050 mixed 500 441 8000 5 40 0.932348170132 False X 4 a 1 567 None None None None None None None None None A 1334 0 Rouge
vs12 amelie 4 4 09Nov2011 1050 mixed 500 480 8000 5 41 1.40710864201 False L 8 a 1 1767 None None None None None None None None None A 985 3 Rouge
vs12 amelie 4 4 09Nov2011 1050 mixed 500 408 8000 5 42 2.90895157105 False L 4 z 0 935 None None None None None None None None None A 1183 1 Rouge
vs12 amelie 4 4 09Nov2011 1050 mixed 500 670 8000 5 43 2.69040306033 True X 4 z 1 950 None None None None None None None None None A 1167 0 Vert
vs12 amelie 4 4 09Nov2011 1050 mixed 500 624 8000 5 44 4.67725866828 False X 16 a 1 697 None None None None None None None None None A 1301 0 Rouge
vs12 amelie 4 4 09Nov2011 1050 mixed 500 591 8000 5 45 0.0789852268862 True L 16 z 1 2486 None None None None None None None None None B 1182 4 Vert
vs12 amelie 4 4 09Nov2011 1050 mixed 500 697 8000 5 46 4.34053657335 True L 8 a 1 2515 None None None None None None None None None D 1300 9 Rouge
vs12 amelie 4 4 09Nov2011 1050 mixed 500 415 8000 5 47 5.38028831509 False X 8 z 1 784 None None None None None None None None None A 1250 0 Vert
vs12 amelie 4 4 09Nov2011 1050 mixed 500 650 8000 5 48 5.36440849946 True X 16 z 1 618 None None None None None None None None None A 1578 0 Vert
vs12 amelie 4 4 09Nov2011 1050 mixed 500 529 8000 5 49 0.238288807025 False X 8 z 1 617 None None None None None None None None None A 1050 0 Vert
vs12 amelie 4 4 09Nov2011 1050 mixed 500 649 8000 5 50 5.44578947291 False X 4 a 0 650 None None None None None None None None None A 1016 0 Vert
vs12 amelie 4 4 09Nov2011 1051 mixed 500 572 8000 5 51 4.99051169506 True L 4 z 1 2067 None None None None None None None None None C 2230 6 Vert
vs12 amelie 4 4 09Nov2011 1051 mixed 500 448 8000 5 52 2.44490745602 False X 16 a 1 1018 None None None None None None None None None A 1733 0 Rouge
vs12 amelie 4 4 09Nov2011 1051 mixed 500 524 8000 5 53 5.27431313366 False X 16 z 1 618 None None None None None None None None None A 2332 0 Vert
vs12 amelie 4 4 09Nov2011 1051 mixed 500 633 8000 5 54 0.663840190612 False L 16 a 1 2085 None None None None None None None None None A 899 2 Rouge
vs12 amelie 4 4 09Nov2011 1051 mixed 500 446 8000 5 55 0.467241494264 False L 16 a 1 6797 None None None None None None None None None D 1484 10 Rouge
vs12 amelie 4 4 09Nov2011 1051 mixed 500 566 8000 5 56 5.27587743218 True X 8 a 1 1302 None None None None None None None None None A 1330 0 Rouge
vs12 amelie 4 4 09Nov2011 1051 mixed 500 560 8000 5 57 5.64037925614 True X 4 a 1 567 None None None None None None None None None A 2034 0 Rouge
vs12 amelie 4 4 09Nov2011 1051 mixed 500 576 8000 5 58 1.42445545539 False L 4 z 1 1467 None None None None None None None None None A 1380 0 Vert
vs12 amelie 4 4 09Nov2011 1051 mixed 500 679 8000 5 59 3.34577504977 True X 16 z 1 768 None None None None None None None None None A 1450 0 Vert
vs12 amelie 4 4 09Nov2011 1051 mixed 500 545 8000 5 60 1.02330625029 True X 16 a 1 653 None None None None None None None None None A 1934 0 Rouge
vs12 amelie 4 4 09Nov2011 1053 mixed 500 505 8000 6 1 4.69436265398 True L 8 z 1 2867 None None None None None None None None None A 1966 2 Vert
vs12 amelie 4 4 09Nov2011 1053 mixed 500 469 8000 6 2 3.48283003055 True L 4 z 1 1417 None None None None None None None None None A 1231 2 Vert
vs12 amelie 4 4 09Nov2011 1053 mixed 500 422 8000 6 3 4.01782133892 False X 8 a 1 668 None None None None None None None None None A 2618 0 Rouge
vs12 amelie 4 4 09Nov2011 1053 mixed 500 658 8000 6 4 4.24091996197 False L 8 a 1 2151 None None None None None None None None None A 2145 2 Rouge
vs12 amelie 4 4 09Nov2011 1053 mixed 500 627 8000 6 5 0.474460543109 True X 4 z 1 784 None None None None None None None None None A 1167 0 Vert
vs12 amelie 4 4 09Nov2011 1053 mixed 500 416 8000 6 6 0.897021882724 True X 16 a 1 869 None None None None None None None None None A 1233 0 Rouge
vs12 amelie 4 4 09Nov2011 1053 mixed 500 492 8000 6 7 1.22011297651 False L 16 a 1 2534 None None None None None None None None None A 1067 2 Rouge
vs12 amelie 4 4 09Nov2011 1053 mixed 500 568 8000 6 8 0.998322241279 True X 8 z 1 618 None None None None None None None None None A 1100 0 Vert
vs12 amelie 4 4 09Nov2011 1053 mixed 500 685 8000 6 9 2.63567852837 False L 8 a 1 1864 None None None None None None None None None A 1050 1 Rouge
vs12 amelie 4 4 09Nov2011 1053 mixed 500 640 8000 6 10 1.89556190557 False X 16 z 1 885 None None None None None None None None None A 1251 0 Vert
vs12 amelie 4 4 09Nov2011 1053 mixed 500 608 8000 6 11 6.09516758145 False L 8 z 1 2234 None None None None None None None None None B 1228 5 Vert
vs12 amelie 4 4 09Nov2011 1053 mixed 500 614 8000 6 12 3.11584788306 False X 16 a 1 651 None None None None None None None None None A 1167 0 Rouge
vs12 amelie 4 4 09Nov2011 1053 mixed 500 458 8000 6 13 4.24065156226 True L 8 a 1 900 None None None None None None None None None A 1334 0 Rouge
vs12 amelie 4 4 09Nov2011 1054 mixed 500 513 8000 6 14 0.133625103557 True L 16 a 1 1329 None None None None None None None None None A 917 2 Rouge
vs12 amelie 4 4 09Nov2011 1054 mixed 500 419 8000 6 15 3.86261404369 True L 16 z 1 1935 None None None None None None None None None C 1100 6 Vert
vs12 amelie 4 4 09Nov2011 1054 mixed 500 699 8000 6 16 2.70367087107 True X 16 a 1 636 None None None None None None None None None A 1200 0 Rouge
vs12 amelie 4 4 09Nov2011 1054 mixed 500 527 8000 6 17 4.91974868848 False X 8 z 1 618 None None None None None None None None None A 1067 0 Vert
vs12 amelie 4 4 09Nov2011 1054 mixed 500 687 8000 6 18 4.00479009599 False L 4 z 1 1551 None None None None None None None None None A 1300 2 Vert
vs12 amelie 4 4 09Nov2011 1054 mixed 500 419 8000 6 19 3.04808708766 False L 4 a 1 985 None None None None None None None None None A 1180 3 Rouge
vs12 amelie 4 4 09Nov2011 1054 mixed 500 546 8000 6 20 3.28627421803 True X 4 a 1 934 None None None None None None None None None A 1416 0 Rouge
vs12 amelie 4 4 09Nov2011 1054 mixed 500 544 8000 6 21 4.33108876056 False L 4 a 1 1000 None None None None None None None None None B 1450 4 Rouge
vs12 amelie 4 4 09Nov2011 1054 mixed 500 585 8000 6 22 2.71479355055 False X 4 z 0 617 None None None None None None None None None A 1245 0 Rouge
vs12 amelie 4 4 09Nov2011 1054 mixed 500 418 8000 6 23 3.15250113816 False X 8 a 1 1119 None None None None None None None None None A 1151 0 Rouge
vs12 amelie 4 4 09Nov2011 1054 mixed 500 488 8000 6 24 3.86556663256 False L 8 z 1 1834 None None None None None None None None None B 1084 4 Vert
vs12 amelie 4 4 09Nov2011 1054 mixed 500 691 8000 6 25 5.05286942588 True X 4 z 1 734 None None None None None None None None None A 1466 0 Vert
vs12 amelie 4 4 09Nov2011 1054 mixed 500 588 8000 6 26 3.85496200779 False L 16 a 1 2335 None None None None None None None None None B 1967 5 Rouge
vs12 amelie 4 4 09Nov2011 1054 mixed 500 650 8000 6 27 4.84909384326 True L 4 a 1 1667 None None None None None None None None None C 1149 7 Rouge
vs12 amelie 4 4 09Nov2011 1054 mixed 500 694 8000 6 28 5.79727578914 True L 4 a 1 633 None None None None None None None None None A 1533 0 Rouge
vs12 amelie 4 4 09Nov2011 1054 mixed 500 594 8000 6 29 5.74481367799 True L 16 z 1 2799 None None None None None None None None None C 1417 6 Vert
vs12 amelie 4 4 09Nov2011 1054 mixed 500 583 8000 6 30 2.13840207125 False X 4 z 1 1084 None None None None None None None None None A 1233 0 Vert
vs12 amelie 4 4 09Nov2011 1054 mixed 500 685 8000 6 31 0.981188958164 True X 4 a 1 534 None None None None None None None None None A 1662 0 Rouge
vs12 amelie 4 4 09Nov2011 1055 mixed 500 471 8000 6 32 2.28502416225 False L 16 z 1 1186 None None None None None None None None None A 1801 2 Vert
vs12 amelie 4 4 09Nov2011 1055 mixed 500 432 8000 6 33 3.53616687598 True X 16 z 1 885 None None None None None None None None None A 1316 0 Vert
vs12 amelie 4 4 09Nov2011 1055 mixed 500 511 8000 6 34 2.75924359728 False L 4 a 1 934 None None None None None None None None None A 1816 2 Rouge
vs12 amelie 4 4 09Nov2011 1055 mixed 500 466 8000 6 35 5.92879247143 False L 16 z 1 1919 None None None None None None None None None A 1299 0 Vert
vs12 amelie 4 4 09Nov2011 1055 mixed 500 530 8000 6 36 0.451298719896 True X 16 z 1 729 None None None None None None None None None A 1250 0 Vert
vs12 amelie 4 4 09Nov2011 1055 mixed 500 542 8000 6 37 6.27467484136 False X 4 a 1 668 None None None None None None None None None A 1500 0 Rouge
vs12 amelie 4 4 09Nov2011 1055 mixed 500 458 8000 6 38 0.12745508644 True L 16 z 1 2385 None None None None None None None None None B 2397 4 Vert
vs12 amelie 4 4 09Nov2011 1055 mixed 500 616 8000 6 39 3.30228551978 False X 8 a 1 901 None None None None None None None None None A 1283 0 Rouge
vs12 amelie 4 4 09Nov2011 1055 mixed 500 632 8000 6 40 4.09804028823 True L 8 a 1 1784 None None None None None None None None None A 1164 2 Rouge
vs12 amelie 4 4 09Nov2011 1055 mixed 500 654 8000 6 41 0.583347966323 False L 16 z 1 1135 None None None None None None None None None B 967 4 Vert
vs12 amelie 4 4 09Nov2011 1055 mixed 500 663 8000 6 42 4.33417621789 True X 8 a 1 484 None None None None None None None None None A 1183 0 Rouge
vs12 amelie 4 4 09Nov2011 1055 mixed 500 614 8000 6 43 0.918524275326 True X 8 a 1 635 None None None None None None None None None A 1015 0 Rouge
vs12 amelie 4 4 09Nov2011 1055 mixed 500 485 8000 6 44 1.04873262566 True L 16 a 1 1701 None None None None None None None None None A 834 2 Rouge
vs12 amelie 4 4 09Nov2011 1055 mixed 500 493 8000 6 45 2.87704625253 False X 16 z 1 1202 None None None None None None None None None A 916 0 Vert
vs12 amelie 4 4 09Nov2011 1055 mixed 500 523 8000 6 46 0.258434939061 False X 8 a 1 747 None None None None None None None None None A 1268 0 Rouge
vs12 amelie 4 4 09Nov2011 1055 mixed 500 536 8000 6 47 1.81267044203 False X 16 a 0 635 None None None None None None None None None A 1451 0 Vert
vs12 amelie 4 4 09Nov2011 1055 mixed 500 428 8000 6 48 2.26972841388 True L 4 z 1 1716 None None None None None None None None None A 966 2 Vert
vs12 amelie 4 4 09Nov2011 1055 mixed 500 414 8000 6 49 2.07022470392 True L 8 a 1 1316 None None None None None None None None None A 851 3 Rouge
vs12 amelie 4 4 09Nov2011 1055 mixed 500 453 8000 6 50 5.02057764522 False X 4 z 1 750 None None None None None None None None None A 1150 0 Vert
vs12 amelie 4 4 09Nov2011 1055 mixed 500 644 8000 6 51 1.51913181432 True X 8 a 1 601 None None None None None None None None None A 1068 0 Rouge
vs12 amelie 4 4 09Nov2011 1056 mixed 500 533 8000 6 52 1.64616305757 False X 16 a 1 667 None None None None None None None None None A 1699 0 Rouge
vs12 amelie 4 4 09Nov2011 1056 mixed 500 498 8000 6 53 0.687053894934 True L 8 z 1 1218 None None None None None None None None None A 933 2 Vert
vs12 amelie 4 4 09Nov2011 1056 mixed 500 610 8000 6 54 1.2289117188 True X 16 z 1 869 None None None None None None None None None A 999 0 Vert
vs12 amelie 4 4 09Nov2011 1056 mixed 500 471 8000 6 55 0.274725680767 False X 4 a 1 667 None None None None None None None None None A 1200 0 Rouge
vs12 amelie 4 4 09Nov2011 1056 mixed 500 638 8000 6 56 2.38756355371 True L 4 a 1 1284 None None None None None None None None None A 1450 3 Rouge
vs12 amelie 4 4 09Nov2011 1056 mixed 500 635 8000 6 57 3.92068694993 True X 4 z 1 768 None None None None None None None None None A 1414 0 Vert
vs12 amelie 4 4 09Nov2011 1056 mixed 500 571 8000 6 58 3.22194577415 False L 8 a 1 1418 None None None None None None None None None B 1817 4 Rouge
vs12 amelie 4 4 09Nov2011 1056 mixed 500 601 8000 6 59 1.78390025483 True X 8 z 0 717 None None None None None None None None None A 1699 0 Rouge
vs12 amelie 4 4 09Nov2011 1056 mixed 500 465 8000 6 60 2.92442109214 False L 4 a 1 1518 None None None None None None None None None A 884 2 Rouge
vs12 amelie 4 4 09Nov2011 1057 mixed 500 449 8000 7 1 3.31313170379 True X 16 z 1 934 None None None None None None None None None A 1250 0 Vert
vs12 amelie 4 4 09Nov2011 1057 mixed 500 518 8000 7 2 0.157585567911 True X 4 z 1 567 None None None None None None None None None A 1217 0 Vert
vs12 amelie 4 4 09Nov2011 1057 mixed 500 565 8000 7 3 2.97791892052 False L 8 a 1 1268 None None None None None None None None None A 967 1 Rouge
vs12 amelie 4 4 09Nov2011 1057 mixed 500 592 8000 7 4 4.18793180338 False L 4 a 1 694 None None None None None None None None None A 1001 0 Rouge
vs12 amelie 4 4 09Nov2011 1057 mixed 500 641 8000 7 5 5.16862443994 False L 4 a 1 967 None None None None None None None None None A 1133 0 Rouge
vs12 amelie 4 4 09Nov2011 1057 mixed 500 416 8000 7 6 5.44256048356 False L 16 a 1 2835 None None None None None None None None None B 1097 5 Rouge
vs12 amelie 4 4 09Nov2011 1057 mixed 500 676 8000 7 7 2.34439757657 False X 4 a 1 718 None None None None None None None None None A 966 0 Rouge
vs12 amelie 4 4 09Nov2011 1057 mixed 500 562 8000 7 8 4.85085829727 True X 4 a 1 501 None None None None None None None None None A 982 0 Rouge
vs12 amelie 4 4 09Nov2011 1057 mixed 500 443 8000 7 9 3.91363706181 False X 8 z 1 618 None None None None None None None None None A 1231 0 Vert
vs12 amelie 4 4 09Nov2011 1057 mixed 500 481 8000 7 10 2.81088886599 False X 4 z 1 584 None None None None None None None None None A 1333 0 Vert
vs12 amelie 4 4 09Nov2011 1057 mixed 500 579 8000 7 11 4.96054023744 True L 16 z 1 3101 None None None None None None None None None C 1745 7 Vert
vs12 amelie 4 4 09Nov2011 1057 mixed 500 597 8000 7 12 5.80239801724 False X 16 z 1 785 None None None None None None None None None A 1116 0 Vert
vs12 amelie 4 4 09Nov2011 1058 mixed 500 624 8000 7 13 1.49191944317 True L 8 z 1 1218 None None None None None None None None None A 950 3 Vert
vs12 amelie 4 4 09Nov2011 1058 mixed 500 403 8000 7 14 2.55055116355 False X 4 z 1 884 None None None None None None None None None A 1114 0 Vert
vs12 amelie 4 4 09Nov2011 1058 mixed 500 692 8000 7 15 1.30416914036 True L 4 z 1 1033 None None None None None None None None None A 850 3 Vert
vs12 amelie 4 4 09Nov2011 1058 mixed 500 614 8000 7 16 5.69746025499 True L 8 z 1 1267 None None None None None None None None None A 1199 2 Vert
vs12 amelie 4 4 09Nov2011 1058 mixed 500 655 8000 7 17 1.09299528646 True X 8 a 1 882 None None None None None None None None None A 1150 0 Rouge
vs12 amelie 4 4 09Nov2011 1058 mixed 500 619 8000 7 18 0.75669169914 True L 16 z 1 3634 None None None None None None None None None C 950 6 Vert
vs12 amelie 4 4 09Nov2011 1058 mixed 500 511 8000 7 19 3.55607284351 False L 8 z 1 1061 None None None None None None None None None B 1633 4 Vert
vs12 amelie 4 4 09Nov2011 1058 mixed 500 556 8000 7 20 4.5216273949 False L 16 a 1 1851 None None None None None None None None None A 1350 2 Rouge
vs12 amelie 4 4 09Nov2011 1058 mixed 500 540 8000 7 21 1.7774043119 True X 16 a 1 702 None None None None None None None None None A 1114 0 Rouge
vs12 amelie 4 4 09Nov2011 1058 mixed 500 571 8000 7 22 4.48672410497 False X 16 z 1 719 None None None None None None None None None A 1050 0 Vert
vs12 amelie 4 4 09Nov2011 1058 mixed 500 555 8000 7 23 3.58263875706 False X 4 a 1 884 None None None None None None None None None A 1634 0 Rouge
vs12 amelie 4 4 09Nov2011 1058 mixed 500 409 8000 7 24 0.172104303347 False X 8 a 0 635 None None None None None None None None None A 1513 0 Vert
vs12 amelie 4 4 09Nov2011 1058 mixed 500 480 8000 7 25 1.59789277381 True X 16 z 1 669 None None None None None None None None None A 1149 0 Vert
vs12 amelie 4 4 09Nov2011 1058 mixed 500 520 8000 7 26 2.25603855128 False L 4 a 1 2284 None None None None None None None None None D 1467 10 Rouge
vs12 amelie 4 4 09Nov2011 1058 mixed 500 513 8000 7 27 5.09719038351 False X 16 a 1 1119 None None None None None None None None None A 1349 0 Rouge
vs12 amelie 4 4 09Nov2011 1058 mixed 500 499 8000 7 28 0.0440304406954 True L 16 z 1 2051 None None None None None None None None None B 1500 4 Vert
vs12 amelie 4 4 09Nov2011 1058 mixed 500 539 8000 7 29 2.22032275512 True L 16 z 1 1334 None None None None None None None None None A 1699 2 Vert
vs12 amelie 4 4 09Nov2011 1058 mixed 500 408 8000 7 30 5.95241559181 False L 4 a 1 1150 None None None None None None None None None A 1716 3 Rouge
vs12 amelie 4 4 09Nov2011 1059 mixed 500 479 8000 7 31 4.00443732645 True L 16 a 1 3783 None None None None None None None None None C 1016 6 Rouge
vs12 amelie 4 4 09Nov2011 1059 mixed 500 580 8000 7 32 5.0965205308 True L 8 z 1 1384 None None None None None None None None None A 1167 2 Vert
vs12 amelie 4 4 09Nov2011 1059 mixed 500 632 8000 7 33 4.67545622327 False L 8 a 1 1012 None None None None None None None None None A 1033 1 Rouge
vs12 amelie 4 4 09Nov2011 1059 mixed 500 648 8000 7 34 4.18165466498 True L 8 a 1 1885 None None None None None None None None None A 1018 2 Rouge
vs12 amelie 4 4 09Nov2011 1059 mixed 500 557 8000 7 35 3.41719688118 True X 16 a 1 768 None None None None None None None None None A 1113 0 Rouge
vs12 amelie 4 4 09Nov2011 1059 mixed 500 566 8000 7 36 2.51797017876 True X 4 a 1 567 None None None None None None None None None A 1082 0 Rouge
vs12 amelie 4 4 09Nov2011 1059 mixed 500 417 8000 7 37 1.50121321048 False L 16 a 1 1869 None None None None None None None None None A 868 3 Rouge
vs12 amelie 4 4 09Nov2011 1059 mixed 500 638 8000 7 38 3.22055978462 False L 8 a 1 1665 None None None None None None None None None B 1650 5 Rouge
vs12 amelie 4 4 09Nov2011 1059 mixed 500 514 8000 7 39 3.56756487328 True L 4 a 1 851 None None None None None None None None None A 1167 0 Rouge
vs12 amelie 4 4 09Nov2011 1059 mixed 500 492 8000 7 40 4.74344818754 True X 8 z 1 600 None None None None None None None None None A 1234 0 Vert
vs12 amelie 4 4 09Nov2011 1059 mixed 500 618 8000 7 41 0.71180519277 True X 16 z 1 614 None None None None None None None None None A 982 0 Vert
vs12 amelie 4 4 09Nov2011 1059 mixed 500 529 8000 7 42 1.42331775349 True X 8 z 1 535 None None None None None None None None None A 1133 0 Vert
vs12 amelie 4 4 09Nov2011 1059 mixed 500 513 8000 7 43 4.36076779073 False X 16 a 1 686 None None None None None None None None None A 1183 0 Rouge
vs12 amelie 4 4 09Nov2011 1059 mixed 500 558 8000 7 44 2.05602771514 True L 4 z 1 982 None None None None None None None None None A 1033 2 Vert
vs12 amelie 4 4 09Nov2011 1059 mixed 500 531 8000 7 45 4.423404951 False X 4 a 1 717 None None None None None None None None None A 1216 0 Rouge
vs12 amelie 4 4 09Nov2011 1059 mixed 500 586 8000 7 46 0.872476942652 False X 8 a 1 618 None None None None None None None None None A 1283 0 Rouge
vs12 amelie 4 4 09Nov2011 1059 mixed 500 625 8000 7 47 2.52314185715 True L 8 z 0 734 None None None None None None None None None A 1398 0 Rouge
vs12 amelie 4 4 09Nov2011 1059 mixed 500 557 8000 7 48 4.22931091558 False L 16 a 1 3635 None None None None None None None None None B 1432 5 Rouge
vs12 amelie 4 4 09Nov2011 1059 mixed 500 474 8000 7 49 5.3202301157 True X 8 z 1 1081 None None None None None None None None None A 1117 0 Vert
vs12 amelie 4 4 09Nov2011 1059 mixed 500 461 8000 7 50 4.63780945597 False L 16 a 1 2701 None None None None None None None None None C 966 6 Rouge
vs12 amelie 4 4 09Nov2011 1100 mixed 500 597 8000 7 51 3.22098600164 False X 8 a 1 915 None None None None None None None None None A 1100 0 Rouge
vs12 amelie 4 4 09Nov2011 1100 mixed 500 657 8000 7 52 1.73495686856 True X 4 z 1 784 None None None None None None None None None A 1118 0 Vert
vs12 amelie 4 4 09Nov2011 1100 mixed 500 626 8000 7 53 3.72435718698 True L 4 a 1 1433 None None None None None None None None None A 1315 2 Rouge
vs12 amelie 4 4 09Nov2011 1100 mixed 500 482 8000 7 54 5.17649905156 False X 16 z 1 784 None None None None None None None None None A 1166 0 Vert
vs12 amelie 4 4 09Nov2011 1100 mixed 500 521 8000 7 55 1.8031859287 True X 4 a 1 567 None None None None None None None None None A 1301 0 Rouge
vs12 amelie 4 4 09Nov2011 1100 mixed 500 683 8000 7 56 5.62022436409 False L 8 a 1 2068 None None None None None None None None None B 1529 5 Rouge
vs12 amelie 4 4 09Nov2011 1100 mixed 500 675 8000 7 57 1.39707957573 False X 8 z 1 951 None None None None None None None None None A 1667 0 Vert
vs12 amelie 4 4 09Nov2011 1100 mixed 500 632 8000 7 58 1.77401517426 True X 8 a 1 784 None None None None None None None None None A 1116 0 Rouge
vs12 amelie 4 4 09Nov2011 1100 mixed 500 476 8000 7 59 3.28654613708 False L 4 a 0 630 None None None None None None None None None A 1450 0 Vert
vs12 amelie 4 4 09Nov2011 1100 mixed 500 490 8000 7 60 4.86107062119 True L 4 a 1 2300 None None None None None None None None None C 1766 7 Rouge
vs12 amelie 4 4 09Nov2011 1101 mixed 500 688 8000 8 1 1.3882870508 False X 8 a 1 1351 None None None None None None None None None A 1416 0 Rouge
vs12 amelie 4 4 09Nov2011 1101 mixed 500 662 8000 8 2 3.26959814897 False X 16 z 1 703 None None None None None None None None None A 1433 0 Vert
vs12 amelie 4 4 09Nov2011 1101 mixed 500 670 8000 8 3 5.78325401063 False X 16 a 1 699 None None None None None None None None None A 1266 0 Rouge
vs12 amelie 4 4 09Nov2011 1101 mixed 500 601 8000 8 4 5.00492527949 True L 4 a 1 1701 None None None None None None None None None C 1733 7 Rouge
vs12 amelie 4 4 09Nov2011 1101 mixed 500 476 8000 8 5 6.16446545326 False X 8 z 1 685 None None None None None None None None None A 1047 0 Vert
vs12 amelie 4 4 09Nov2011 1101 mixed 500 650 8000 8 6 5.75273999564 True X 16 z 1 586 None None None None None None None None None A 1366 0 Vert
vs12 amelie 4 4 09Nov2011 1101 mixed 500 621 8000 8 7 0.83583572548 True L 4 z 1 1150 None None None None None None None None None B 1384 4 Vert
vs12 amelie 4 4 09Nov2011 1101 mixed 500 574 8000 8 8 1.87388801405 True X 8 a 1 751 None None None None None None None None None A 1144 0 Rouge
vs12 amelie 4 4 09Nov2011 1101 mixed 500 406 8000 8 9 2.74139912808 False X 16 z 1 701 None None None None None None None None None A 1367 0 Vert
vs12 amelie 4 4 09Nov2011 1101 mixed 500 629 8000 8 10 0.482288877361 True L 16 z 1 2219 None None None None None None None None None B 1698 4 Vert
vs12 amelie 4 4 09Nov2011 1101 mixed 500 613 8000 8 11 0.157272078618 False L 4 a 1 768 None None None None None None None None None A 1034 0 Rouge
vs12 amelie 4 4 09Nov2011 1101 mixed 500 406 8000 8 12 3.47032457347 False L 16 z 1 1851 None None None None None None None None None B 1400 5 Vert
vs12 amelie 4 4 09Nov2011 1102 mixed 500 694 8000 8 13 1.05941389669 True L 8 a 1 1946 None None None None None None None None None A 1733 2 Rouge
vs12 amelie 4 4 09Nov2011 1102 mixed 500 666 8000 8 14 0.238805784277 False X 16 a 1 835 None None None None None None None None None A 1334 0 Rouge
vs12 amelie 4 4 09Nov2011 1102 mixed 500 557 8000 8 15 4.04457676476 False X 8 a 1 685 None None None None None None None None None A 1147 0 Rouge
vs12 amelie 4 4 09Nov2011 1102 mixed 500 432 8000 8 16 5.17074055924 False L 16 a 1 2018 None None None None None None None None None B 1250 4 Rouge
vs12 amelie 4 4 09Nov2011 1102 mixed 500 481 8000 8 17 5.10692134697 False L 16 a 1 1018 None None None None None None None None None A 1083 0 Rouge
vs12 amelie 4 4 09Nov2011 1102 mixed 500 474 8000 8 18 4.74943320473 True X 16 a 1 865 None None None None None None None None None A 1149 0 Rouge
vs12 amelie 4 4 09Nov2011 1102 mixed 500 602 8000 8 19 3.08253782985 False L 8 z 1 2850 None None None None None None None None None C 1200 6 Vert
vs12 amelie 4 4 09Nov2011 1102 mixed 500 608 8000 8 20 0.472211977671 True L 16 a 1 1550 None None None None None None None None None B 1966 4 Rouge
vs12 amelie 4 4 09Nov2011 1102 mixed 500 685 8000 8 21 5.90425244669 True X 16 z 1 785 None None None None None None None None None A 1082 0 Vert
vs12 amelie 4 4 09Nov2011 1102 mixed 500 683 8000 8 22 4.51963788648 False L 8 z 1 1416 None None None None None None None None None A 1251 3 Vert
vs12 amelie 4 4 09Nov2011 1102 mixed 500 444 8000 8 23 2.12277552043 True L 4 a 1 833 None None None None None None None None None A 1000 0 Rouge
vs12 amelie 4 4 09Nov2011 1102 mixed 500 456 8000 8 24 0.80719172671 True X 4 a 1 700 None None None None None None None None None A 1417 0 Rouge
vs12 amelie 4 4 09Nov2011 1102 mixed 500 568 8000 8 25 5.27639806935 True L 16 z 1 2729 None None None None None None None None None B 2717 5 Vert
vs12 amelie 4 4 09Nov2011 1102 mixed 500 515 8000 8 26 2.93599313116 False X 4 a 1 784 None None None None None None None None None A 1600 0 Rouge
vs12 amelie 4 4 09Nov2011 1102 mixed 500 587 8000 8 27 3.99902091015 True X 4 a 1 634 None None None None None None None None None A 1400 0 Rouge
vs12 amelie 4 4 09Nov2011 1102 mixed 500 485 8000 8 28 0.987361011395 True X 8 z 1 702 None None None None None None None None None A 1417 0 Vert
vs12 amelie 4 4 09Nov2011 1102 mixed 500 623 8000 8 29 3.19044054846 True X 4 z 1 651 None None None None None None None None None A 1067 0 Vert
vs12 amelie 4 4 09Nov2011 1102 mixed 500 571 8000 8 30 0.143838036724 True X 8 a 1 701 None None None None None None None None None A 1250 0 Rouge
vs12 amelie 4 4 09Nov2011 1102 mixed 500 491 8000 8 31 1.54964952389 False L 8 z 0 2902 None None None None None None None None None C 1400 7 Rouge
vs12 amelie 4 4 09Nov2011 1103 mixed 500 489 8000 8 32 2.37833725286 True L 8 z 1 1468 None None None None None None None None None A 1533 2 Vert
vs12 amelie 4 4 09Nov2011 1103 mixed 500 643 8000 8 33 3.47381475367 False X 16 a 1 835 None None None None None None None None None A 1233 0 Rouge
vs12 amelie 4 4 09Nov2011 1103 mixed 500 630 8000 8 34 2.77210211967 True X 16 z 1 1019 None None None None None None None None None A 1147 0 Vert
vs12 amelie 4 4 09Nov2011 1103 mixed 500 523 8000 8 35 3.70328430118 True L 16 a 1 1969 None None None None None None None None None A 1050 3 Rouge
vs12 amelie 4 4 09Nov2011 1103 mixed 500 586 8000 8 36 6.23855930633 False L 16 a 1 3315 None None None None None None None None None D 1001 9 Rouge
vs12 amelie 4 4 09Nov2011 1103 mixed 500 562 8000 8 37 5.33573021531 False X 8 z 1 985 None None None None None None None None None A 1382 0 Vert
vs12 amelie 4 4 09Nov2011 1103 mixed 500 555 8000 8 38 6.02125914421 True L 16 a 1 4599 None None None None None None None None None C 868 7 Rouge
vs12 amelie 4 4 09Nov2011 1103 mixed 500 468 8000 8 39 3.33167550305 False L 4 a 1 1884 None None None None None None None None None D 1183 10 Rouge
vs12 amelie 4 4 09Nov2011 1103 mixed 500 686 8000 8 40 2.56745097463 False X 4 z 1 1112 None None None None None None None None None A 2367 2 Vert
vs12 amelie 4 4 09Nov2011 1103 mixed 500 700 8000 8 41 1.49539219346 False X 4 a 1 750 None None None None None None None None None A 1251 0 Rouge
vs12 amelie 4 4 09Nov2011 1103 mixed 500 566 8000 8 42 4.93056304054 True L 4 z 1 1349 None None None None None None None None None A 884 3 Vert
vs12 amelie 4 4 09Nov2011 1103 mixed 500 477 8000 8 43 2.60974021807 False L 4 z 1 1183 None None None None None None None None None B 950 4 Vert
vs12 amelie 4 4 09Nov2011 1103 mixed 500 626 8000 8 44 2.59957795008 False L 16 z 1 901 None None None None None None None None None A 1466 0 Vert
vs12 amelie 4 4 09Nov2011 1103 mixed 500 527 8000 8 45 5.27943603422 True X 8 a 1 850 None None None None None None None None None A 1050 0 Rouge
vs12 amelie 4 4 09Nov2011 1103 mixed 500 561 8000 8 46 2.83880833528 False L 4 a 1 1400 None None None None None None None None None A 1200 2 Rouge
vs12 amelie 4 4 09Nov2011 1103 mixed 500 605 8000 8 47 1.25692454543 False L 8 z 1 2929 None None None None None None None None None B 984 5 Vert
vs12 amelie 4 4 09Nov2011 1103 mixed 500 614 8000 8 48 0.859907912407 True X 4 a 0 717 None None None None None None None None None A 1484 0 Vert
vs12 amelie 4 4 09Nov2011 1104 mixed 500 611 8000 8 49 3.05527609209 True L 8 z 1 1385 None None None None None None None None None B 1499 4 Vert
vs12 amelie 4 4 09Nov2011 1104 mixed 500 415 8000 8 50 4.87416117705 True X 8 a 1 752 None None None None None None None None None A 1084 0 Rouge
vs12 amelie 4 4 09Nov2011 1104 mixed 500 576 8000 8 51 3.77742549886 True L 8 z 1 1051 None None None None None None None None None A 1584 3 Vert
vs12 amelie 4 4 09Nov2011 1104 mixed 500 608 8000 8 52 2.06444215994 True X 16 z 1 769 None None None None None None None None None A 1562 0 Vert
vs12 amelie 4 4 09Nov2011 1104 mixed 500 499 8000 8 53 0.534299979367 False X 8 z 1 618 None None None None None None None None None A 967 0 Vert
vs12 amelie 4 4 09Nov2011 1104 mixed 500 605 8000 8 54 2.97463182172 False X 4 z 1 617 None None None None None None None None None A 1218 0 Vert
vs12 amelie 4 4 09Nov2011 1104 mixed 500 410 8000 8 55 2.52555640995 True X 4 a 1 550 None None None None None None None None None A 1182 0 Rouge
vs12 amelie 4 4 09Nov2011 1104 mixed 500 482 8000 8 56 1.8490566377 False L 4 a 1 818 None None None None None None None None None A 1983 0 Rouge
vs12 amelie 4 4 09Nov2011 1104 mixed 500 412 8000 8 57 6.00704913645 True L 4 a 1 717 None None None None None None None None None A 1000 0 Rouge
vs12 amelie 4 4 09Nov2011 1104 mixed 500 467 8000 8 58 6.27005329424 False X 4 a 1 1565 None None None None None None None None None A 1450 2 Rouge
vs12 amelie 4 4 09Nov2011 1104 mixed 500 507 8000 8 59 5.51040341552 True L 8 z 1 1067 None None None None None None None None None A 950 3 Vert
vs12 amelie 4 4 09Nov2011 1104 mixed 500 662 8000 8 60 5.1426958295 False L 8 z 1 1367 None None None None None None None None None B 883 4 Vert
vs12 ariane 4 4 09Nov2011 1721 pTMix 500 480 8000 1 1 2.85038980612 True L 16 a 1 7879 None None None None None None None None None None None None Rouge
vs12 ariane 4 4 09Nov2011 1721 pTMix 500 619 8000 1 2 0.797760762467 True L 8 z 1 1451 None None None None None None None None None None None None Vert
vs12 ariane 4 4 09Nov2011 1721 pTMix 500 461 8000 1 3 2.54535850316 False L 16 a 1 3734 None None None None None None None None None None None None Rouge
vs12 ariane 4 4 09Nov2011 1721 pTMix 500 512 8000 1 4 2.28110568307 True L 16 z 1 1530 None None None None None None None None None None None None Vert
vs12 ariane 4 4 09Nov2011 1721 pTMix 500 531 8000 1 5 6.26076596842 True X 8 a 1 2285 None None None None None None None None None None None None Rouge
vs12 ariane 4 4 09Nov2011 1721 pTMix 500 528 8000 1 6 2.25486741787 False L 8 a 1 1268 None None None None None None None None None None None None Rouge
vs12 ariane 4 4 09Nov2011 1721 pTMix 500 410 8000 1 7 5.57853783849 False X 8 a 1 868 None None None None None None None None None None None None Rouge
vs12 ariane 4 4 09Nov2011 1721 pTMix 500 427 8000 1 8 1.35927540667 False L 8 a 1 1246 None None None None None None None None None None None None Rouge
vs12 ariane 4 4 09Nov2011 1721 pTMix 500 446 8000 1 9 1.01535541172 False X 16 z 1 1536 None None None None None None None None None None None None Vert
vs12 ariane 4 4 09Nov2011 1721 pTMix 500 596 8000 1 10 4.8909407974 True L 4 a 1 1434 None None None None None None None None None None None None Rouge
vs12 ariane 4 4 09Nov2011 1721 pTMix 500 584 8000 1 11 3.5933308272 True X 8 z 1 1284 None None None None None None None None None None None None Vert
vs12 ariane 4 4 09Nov2011 1721 pTMix 500 563 8000 1 12 2.94224204298 True X 16 a 1 1267 None None None None None None None None None None None None Rouge
vs12 ariane 4 4 09Nov2011 1721 pTMix 500 532 8000 1 13 1.24718200532 False L 4 a 1 1284 None None None None None None None None None None None None Rouge
vs12 ariane 4 4 09Nov2011 1721 pTMix 500 696 8000 1 14 0.236991881846 False L 16 z 1 2352 None None None None None None None None None None None None Vert
vs12 ariane 4 4 09Nov2011 1721 pTMix 500 487 8000 1 15 1.45435028859 False X 4 z 1 1100 None None None None None None None None None None None None Vert
vs12 ariane 4 4 09Nov2011 1721 pTMix 500 562 8000 1 16 5.13437796067 False X 16 z 1 899 None None None None None None None None None None None None Vert
vs12 ariane 4 4 09Nov2011 1721 pTMix 500 425 8000 1 17 1.85430357051 True X 4 z 1 901 None None None None None None None None None None None None Vert
vs12 ariane 4 4 09Nov2011 1721 pTMix 500 404 8000 1 18 0.41214056405 False X 8 z 1 751 None None None None None None None None None None None None Vert
vs12 ariane 4 4 09Nov2011 1721 pTMix 500 531 8000 1 19 2.8763947094 True X 16 a 1 1252 None None None None None None None None None None None None Rouge
vs12 ariane 4 4 09Nov2011 1721 pTMix 500 676 8000 1 20 5.23401061817 True L 4 z 1 1317 None None None None None None None None None None None None Vert
vs12 ariane 4 4 09Nov2011 1721 pTMix 500 509 8000 1 21 3.85538303403 False X 4 a 1 1081 None None None None None None None None None None None None Rouge
vs12 ariane 4 4 09Nov2011 1721 pTMix 500 507 8000 1 22 2.99100209038 True L 8 z 1 2501 None None None None None None None None None None None None Vert
vs12 ariane 4 4 09Nov2011 1721 pTMix 500 425 8000 1 23 4.42767607576 True X 4 a 1 1301 None None None None None None None None None None None None Rouge
vs12 ariane 4 4 09Nov2011 1721 pTMix 500 695 8000 1 24 3.41510773256 False L 4 z 0 1778 None None None None None None None None None None None None Rouge
vs12 ariane 4 4 09Nov2011 1724 tMix 500 621 8000 1 1 0.753924804416 True L 8 a 1 3818 None None None None None None None None None A 10309 2 Rouge
vs12 ariane 4 4 09Nov2011 1724 tMix 500 527 8000 1 2 1.92994334324 False L 4 a 1 1450 None None None None None None None None None A 5262 1 Rouge
vs12 ariane 4 4 09Nov2011 1726 tMix 500 505 8000 1 3 4.86257910104 False X 4 a 1 1300 None None None None None None None None None A 80901 1 Rouge
vs12 ariane 4 4 09Nov2011 1726 tMix 500 641 8000 1 4 1.21381756332 True L 16 a 1 5485 None None None None None None None None None D 1750 9 Rouge
vs12 ariane 4 4 09Nov2011 1726 tMix 500 688 8000 1 5 4.35852294347 True L 16 a 1 2469 None None None None None None None None None C 2996 6 Rouge
vs12 ariane 4 4 09Nov2011 1726 tMix 500 654 8000 1 6 4.0074560745 True X 4 z 1 1400 None None None None None None None None None A 4015 2 Vert
vs12 ariane 4 4 09Nov2011 1726 tMix 500 670 8000 1 7 1.20193691385 False X 8 a 1 1885 None None None None None None None None None A 2333 1 Rouge
vs12 ariane 4 4 09Nov2011 1726 tMix 500 627 8000 1 8 5.5486813274 True L 4 z 1 1667 None None None None None None None None None A 2601 0 Vert
vs12 ariane 4 4 09Nov2011 1727 tMix 500 464 8000 1 9 4.66494926167 False X 8 z 1 950 None None None None None None None None None A 1848 2 Vert
vs12 ariane 4 4 09Nov2011 1727 tMix 500 594 8000 1 10 5.87301279209 False X 16 z 1 735 None None None None None None None None None A 1234 2 Vert
vs12 ariane 4 4 09Nov2011 1727 tMix 500 635 8000 1 11 4.23005740193 True X 8 a 1 868 None None None None None None None None None A 2495 1 Rouge
vs12 ariane 4 4 09Nov2011 1727 tMix 500 561 8000 1 12 4.94894234139 False X 16 z 1 951 None None None None None None None None None A 1515 0 Vert
vs12 ariane 4 4 09Nov2011 1727 tMix 500 453 8000 1 13 1.29722567262 True X 16 a 1 950 None None None None None None None None None A 2016 0 Rouge
vs12 ariane 4 4 09Nov2011 1727 tMix 500 652 8000 1 14 4.22844499774 False L 16 a 1 4098 None None None None None None None None None C 2618 7 Rouge
vs12 ariane 4 4 09Nov2011 1727 tMix 500 567 8000 1 15 3.86803785981 True X 16 z 1 1218 None None None None None None None None None A 2197 1 Vert
vs12 ariane 4 4 09Nov2011 1727 tMix 500 628 8000 1 16 3.43323424292 True L 4 z 1 2333 None None None None None None None None None A 1683 3 Vert
vs12 ariane 4 4 09Nov2011 1727 tMix 500 578 8000 1 17 0.0184914730808 False X 4 a 1 1717 None None None None None None None None None A 2316 1 Rouge
vs12 ariane 4 4 09Nov2011 1727 tMix 500 484 8000 1 18 3.56610738614 False L 4 z 1 1668 None None None None None None None None None A 3277 1 Vert
vs12 ariane 4 4 09Nov2011 1727 tMix 500 647 8000 1 19 1.73830936412 False L 8 a 1 1734 None None None None None None None None None A 1963 3 Rouge
vs12 ariane 4 4 09Nov2011 1728 tMix 500 506 8000 1 20 0.141323530678 True X 4 a 1 1267 None None None None None None None None None A 2167 2 Rouge
vs12 ariane 4 4 09Nov2011 1728 tMix 500 530 8000 1 21 1.15353444074 False L 16 a 1 1848 None None None None None None None None None B 1450 4 Rouge
vs12 ariane 4 4 09Nov2011 1728 tMix 500 575 8000 1 22 2.16759535375 True L 8 z 1 1751 None None None None None None None None None A 1897 2 Vert
vs12 ariane 4 4 09Nov2011 1728 tMix 500 612 8000 1 23 3.14434361374 True X 8 a 1 2850 None None None None None None None None None A 2434 3 Rouge
vs12 ariane 4 4 09Nov2011 1728 tMix 500 589 8000 1 24 0.684071926266 False L 8 z 1 2301 None None None None None None None None None A 2917 1 Vert
vs12 ariane 4 4 09Nov2011 1729 mixed 500 695 8000 1 1 2.49450644182 False L 4 a 1 1267 None None None None None None None None None A 2979 2 Rouge
vs12 ariane 4 4 09Nov2011 1729 mixed 500 627 8000 1 2 5.47597918908 True X 8 z 1 1367 None None None None None None None None None A 3513 2 Vert
vs12 ariane 4 4 09Nov2011 1729 mixed 500 669 8000 1 3 3.02793154872 True X 16 a 1 1819 None None None None None None None None None A 1933 1 Rouge
vs12 ariane 4 4 09Nov2011 1729 mixed 500 463 8000 1 4 5.60550901114 False X 8 z 1 1385 None None None None None None None None None A 2430 0 Vert
vs12 ariane 4 4 09Nov2011 1729 mixed 500 526 8000 1 5 3.32437202201 False L 16 a 1 1735 None None None None None None None None None A 2816 2 Rouge
vs12 ariane 4 4 09Nov2011 1729 mixed 500 529 8000 1 6 5.47573272521 False L 16 z 1 1881 None None None None None None None None None A 2800 2 Vert
vs12 ariane 4 4 09Nov2011 1729 mixed 500 596 8000 1 7 4.74820467911 True X 16 a 1 3616 None None None None None None None None None A 3199 1 Rouge
vs12 ariane 4 4 09Nov2011 1729 mixed 500 530 8000 1 8 4.46603499483 False L 4 a 1 1183 None None None None None None None None None A 2961 2 Rouge
vs12 ariane 4 4 09Nov2011 1729 mixed 500 521 8000 1 9 4.42719637051 True L 8 a 1 1018 None None None None None None None None None A 1882 2 Rouge
vs12 ariane 4 4 09Nov2011 1729 mixed 500 592 8000 1 10 1.03072799181 True X 8 a 1 1752 None None None None None None None None None A 2731 0 Rouge
vs12 ariane 4 4 09Nov2011 1729 mixed 500 477 8000 1 11 3.37255916065 False X 16 z 1 1103 None None None None None None None None None A 2133 0 Vert
vs12 ariane 4 4 09Nov2011 1729 mixed 500 641 8000 1 12 1.82788578031 False L 4 a 1 2347 None None None None None None None None None A 3966 2 Rouge
vs12 ariane 4 4 09Nov2011 1730 mixed 500 489 8000 1 13 3.2846769115 True L 16 z 1 1853 None None None None None None None None None A 5459 2 Vert
vs12 ariane 4 4 09Nov2011 1730 mixed 500 540 8000 1 14 3.97967975638 False L 8 z 1 4180 None None None None None None None None None A 5484 2 Vert
vs12 ariane 4 4 09Nov2011 1730 mixed 500 616 8000 1 15 1.46079520899 True L 16 a 1 1886 None None None None None None None None None A 1699 3 Rouge
vs12 ariane 4 4 09Nov2011 1730 mixed 500 453 8000 1 16 0.15182259615 False L 4 a 1 2634 None None None None None None None None None A 4913 1 Rouge
vs12 ariane 4 4 09Nov2011 1730 mixed 500 660 8000 1 17 0.117784923115 True L 4 a 1 1950 None None None None None None None None None A 1596 2 Rouge
vs12 ariane 4 4 09Nov2011 1730 mixed 500 698 8000 1 18 1.50274312426 False X 4 a 1 1317 None None None None None None None None None A 1867 0 Rouge
vs12 ariane 4 4 09Nov2011 1730 mixed 500 534 8000 1 19 3.53407612081 True L 4 z 1 1100 None None None None None None None None None A 2029 0 Vert
vs12 ariane 4 4 09Nov2011 1730 mixed 500 453 8000 1 20 5.03861672943 True X 16 a 1 1553 None None None None None None None None None A 2116 0 Rouge
vs12 ariane 4 4 09Nov2011 1730 mixed 500 518 8000 1 21 0.276946537074 True X 16 z 1 2102 None None None None None None None None None A 3528 0 Vert
vs12 ariane 4 4 09Nov2011 1730 mixed 500 481 8000 1 22 2.94722356409 False L 16 a 1 3719 None None None None None None None None None C 1480 7 Rouge
vs12 ariane 4 4 09Nov2011 1730 mixed 500 697 8000 1 23 6.08973192146 True X 16 a 1 1469 None None None None None None None None None A 1650 1 Rouge
vs12 ariane 4 4 09Nov2011 1731 mixed 500 695 8000 1 24 4.49955372235 True L 4 z 1 1632 None None None None None None None None None A 6491 2 Vert
vs12 ariane 4 4 09Nov2011 1731 mixed 500 452 8000 1 25 2.70078082131 True X 8 a 1 1431 None None None None None None None None None A 2116 1 Rouge
vs12 ariane 4 4 09Nov2011 1731 mixed 500 531 8000 1 26 3.93973699358 True L 16 a 1 2835 None None None None None None None None None A 6392 1 Rouge
vs12 ariane 4 4 09Nov2011 1731 mixed 500 671 8000 1 27 1.37440047247 True L 8 a 1 5147 None None None None None None None None None B 3166 5 Rouge
vs12 ariane 4 4 09Nov2011 1731 mixed 500 417 8000 1 28 2.58811540743 True L 8 a 1 2215 None None None None None None None None None B 3199 5 Rouge
vs12 ariane 4 4 09Nov2011 1731 mixed 500 498 8000 1 29 3.33666480342 False L 8 a 1 1884 None None None None None None None None None A 2111 3 Rouge
vs12 ariane 4 4 09Nov2011 1731 mixed 500 645 8000 1 30 4.11225509059 True X 8 a 1 2451 None None None None None None None None None A 2001 3 Rouge
vs12 ariane 4 4 09Nov2011 1731 mixed 500 609 8000 1 31 4.79841480992 False X 16 a 1 1186 None None None None None None None None None A 1780 2 Rouge
vs12 ariane 4 4 09Nov2011 1731 mixed 500 461 8000 1 32 4.55709653686 False L 8 z 1 1601 None None None None None None None None None A 2567 3 Vert
vs12 ariane 4 4 09Nov2011 1732 mixed 500 528 8000 1 33 4.10122162892 True X 4 z 1 1279 None None None None None None None None None A 3667 2 Vert
vs12 ariane 4 4 09Nov2011 1732 mixed 500 692 8000 1 34 0.0946878452378 False X 4 a 1 1233 None None None None None None None None None A 1950 0 Rouge
vs12 ariane 4 4 09Nov2011 1732 mixed 500 558 8000 1 35 3.39870854041 False L 16 z 1 2086 None None None None None None None None None B 3033 4 Vert
vs12 ariane 4 4 09Nov2011 1732 mixed 500 496 8000 1 36 5.95662920662 True L 8 a 1 2614 None None None None None None None None None A 2783 3 Rouge
vs12 ariane 4 4 09Nov2011 1732 mixed 500 654 8000 1 37 4.21841609651 False X 16 a 1 1452 None None None None None None None None None A 1699 0 Rouge
vs12 ariane 4 4 09Nov2011 1732 mixed 500 660 8000 1 38 1.09189167943 True X 4 z 1 1651 None None None None None None None None None A 1833 2 Vert
vs12 ariane 4 4 09Nov2011 1732 mixed 500 493 8000 1 39 0.846314529272 False X 8 z 1 1451 None None None None None None None None None A 2481 0 Vert
vs12 ariane 4 4 09Nov2011 1732 mixed 500 683 8000 1 40 1.14680223689 False X 4 a 1 1233 None None None None None None None None None A 1667 0 Rouge
vs12 ariane 4 4 09Nov2011 1732 mixed 500 652 8000 1 41 4.62228639941 True X 4 z 1 1700 None None None None None None None None None A 2082 0 Vert
vs12 ariane 4 4 09Nov2011 1732 mixed 500 449 8000 1 42 4.12284689532 False L 8 a 1 1368 None None None None None None None None None A 3333 2 Rouge
vs12 ariane 4 4 09Nov2011 1732 mixed 500 569 8000 1 43 2.58518649719 True L 16 z 1 2699 None None None None None None None None None A 2600 3 Vert
vs12 ariane 4 4 09Nov2011 1732 mixed 500 562 8000 1 44 4.34815397277 False X 8 a 1 1035 None None None None None None None None None A 4795 0 Rouge
vs12 ariane 4 4 09Nov2011 1732 mixed 500 580 8000 1 45 4.38006111019 True X 8 a 1 667 None None None None None None None None None A 1750 0 Rouge
vs12 ariane 4 4 09Nov2011 1733 mixed 500 457 8000 1 46 0.295942975222 False X 16 z 1 1214 None None None None None None None None None A 2283 2 Vert
vs12 ariane 4 4 09Nov2011 1733 mixed 500 650 8000 1 47 5.49462163827 True L 4 z 1 1500 None None None None None None None None None A 1983 2 Vert
vs12 ariane 4 4 09Nov2011 1733 mixed 500 609 8000 1 48 5.35263142982 False L 4 a 1 1579 None None None None None None None None None A 1566 2 Rouge
vs12 ariane 4 4 09Nov2011 1733 mixed 500 688 8000 1 49 0.275630723087 True L 8 z 1 2218 None None None None None None None None None A 2379 2 Vert
vs12 ariane 4 4 09Nov2011 1733 mixed 500 489 8000 1 50 2.48434679827 True L 16 z 1 1702 None None None None None None None None None A 3217 2 Vert
vs12 ariane 4 4 09Nov2011 1733 mixed 500 516 8000 1 51 2.26499157777 True X 4 a 1 2426 None None None None None None None None None A 1350 0 Rouge
vs12 ariane 4 4 09Nov2011 1733 mixed 500 545 8000 1 52 5.5883833045 False X 8 a 1 1768 None None None None None None None None None A 1518 2 Rouge
vs12 ariane 4 4 09Nov2011 1733 mixed 500 590 8000 1 53 3.92463327738 True L 4 a 1 2082 None None None None None None None None None A 1299 1 Rouge
vs12 ariane 4 4 09Nov2011 1733 mixed 500 593 8000 1 54 0.537154113851 False X 4 a 1 2884 None None None None None None None None None A 1583 0 Rouge
vs12 ariane 4 4 09Nov2011 1733 mixed 500 468 8000 1 55 1.10468632698 False X 8 a 1 819 None None None None None None None None None A 1300 0 Rouge
vs12 ariane 4 4 09Nov2011 1733 mixed 500 521 8000 1 56 0.199229456168 False X 4 z 1 1284 None None None None None None None None None A 1316 2 Vert
vs12 ariane 4 4 09Nov2011 1733 mixed 500 647 8000 1 57 0.73831180031 False X 16 z 1 1649 None None None None None None None None None A 1401 2 Vert
vs12 ariane 4 4 09Nov2011 1733 mixed 500 516 8000 1 58 0.645418616048 False L 8 a 1 1402 None None None None None None None None None A 1617 2 Rouge
vs12 ariane 4 4 09Nov2011 1733 mixed 500 617 8000 1 59 1.04949408006 True X 4 z 1 1812 None None None None None None None None None A 3350 2 Vert
vs12 ariane 4 4 09Nov2011 1734 mixed 500 546 8000 1 60 2.45570217462 False L 16 z 1 2002 None None None None None None None None None A 1864 3 Vert
vs12 ariane 4 4 09Nov2011 1734 mixed 500 691 8000 2 1 5.97013249226 False X 8 z 1 1651 None None None None None None None None None A 1966 3 Vert
vs12 ariane 4 4 09Nov2011 1734 mixed 500 475 8000 2 2 3.81484768568 True X 4 z 1 817 None None None None None None None None None A 2198 3 Vert
vs12 ariane 4 4 09Nov2011 1734 mixed 500 404 8000 2 3 4.9479862422 False X 4 z 1 701 None None None None None None None None None A 2233 2 Vert
vs12 ariane 4 4 09Nov2011 1734 mixed 500 501 8000 2 4 3.68135502608 True X 4 z 1 701 None None None None None None None None None A 1966 0 Vert
vs12 ariane 4 4 09Nov2011 1735 mixed 500 687 8000 2 5 3.82434780728 False X 4 a 1 799 None None None None None None None None None A 1967 0 Rouge
vs12 ariane 4 4 09Nov2011 1735 mixed 500 612 8000 2 6 2.09350723002 False X 8 z 1 1817 None None None None None None None None None A 1467 1 Vert
vs12 ariane 4 4 09Nov2011 1735 mixed 500 546 8000 2 7 0.898471178031 False X 8 z 1 783 None None None None None None None None None A 1800 1 Vert
vs12 ariane 4 4 09Nov2011 1735 mixed 500 507 8000 2 8 1.20400049015 True X 16 a 1 835 None None None None None None None None None A 1484 0 Rouge
vs12 ariane 4 4 09Nov2011 1735 mixed 500 569 8000 2 9 4.21035234235 False L 8 z 1 4763 None None None None None None None None None A 4466 0 Vert
vs12 ariane 4 4 09Nov2011 1735 mixed 500 651 8000 2 10 5.30680479661 True L 16 a 1 4616 None None None None None None None None None D 3359 8 Rouge
vs12 ariane 4 4 09Nov2011 1735 mixed 500 477 8000 2 11 4.30519727174 False L 4 z 1 2617 None None None None None None None None None A 1482 0 Vert
vs12 ariane 4 4 09Nov2011 1735 mixed 500 439 8000 2 12 5.14339219027 False L 8 a 1 3965 None None None None None None None None None B 2234 5 Rouge
vs12 ariane 4 4 09Nov2011 1735 mixed 500 552 8000 2 13 0.0394739720932 True L 8 z 1 1318 None None None None None None None None None A 1934 3 Vert
vs12 ariane 4 4 09Nov2011 1735 mixed 500 682 8000 2 14 2.95751787654 True X 16 z 1 1935 None None None None None None None None None A 1615 2 Vert
vs12 ariane 4 4 09Nov2011 1735 mixed 500 628 8000 2 15 4.75563037072 True X 4 z 1 985 None None None None None None None None None A 1517 0 Vert
vs12 ariane 4 4 09Nov2011 1735 mixed 500 672 8000 2 16 1.72532918095 True X 4 z 1 700 None None None None None None None None None A 999 0 Vert
vs12 ariane 4 4 09Nov2011 1735 mixed 500 626 8000 2 17 1.1628362687 True X 4 a 1 1567 None None None None None None None None None A 1734 1 Rouge
vs12 ariane 4 4 09Nov2011 1736 mixed 500 419 8000 2 18 1.64160479772 True L 16 a 1 1797 None None None None None None None None None A 2065 2 Rouge
vs12 ariane 4 4 09Nov2011 1736 mixed 500 431 8000 2 19 5.16906369819 False X 16 z 1 1869 None None None None None None None None None A 2167 2 Vert
vs12 ariane 4 4 09Nov2011 1736 mixed 500 472 8000 2 20 1.64948534039 False X 8 z 1 1813 None None None None None None None None None A 3199 2 Vert
vs12 ariane 4 4 09Nov2011 1736 mixed 500 543 8000 2 21 5.52757333846 True X 8 a 1 851 None None None None None None None None None A 2662 2 Rouge
vs12 ariane 4 4 09Nov2011 1736 mixed 500 658 8000 2 22 2.20449847922 False X 16 a 1 1386 None None None None None None None None None A 2149 2 Rouge
vs12 ariane 4 4 09Nov2011 1736 mixed 500 622 8000 2 23 4.58406668684 True L 8 z 1 1568 None None None None None None None None None A 1179 3 Vert
vs12 ariane 4 4 09Nov2011 1736 mixed 500 508 8000 2 24 5.16951971425 False X 4 z 1 1650 None None None None None None None None None A 2550 1 Vert
vs12 ariane 4 4 09Nov2011 1736 mixed 500 678 8000 2 25 5.58947588068 True L 4 a 1 2460 None None None None None None None None None A 5083 2 Rouge
vs12 ariane 4 4 09Nov2011 1736 mixed 500 461 8000 2 26 4.08419245256 True L 4 z 1 5044 None None None None None None None None None A 4260 2 Vert
vs12 ariane 4 4 09Nov2011 1736 mixed 500 599 8000 2 27 2.90600005795 False L 4 z 1 1767 None None None None None None None None None A 1600 2 Vert
vs12 ariane 4 4 09Nov2011 1736 mixed 500 413 8000 2 28 1.75258980108 False L 8 z 1 1218 None None None None None None None None None A 1915 0 Vert
vs12 ariane 4 4 09Nov2011 1736 mixed 500 622 8000 2 29 5.87391754435 False X 16 a 1 1485 None None None None None None None None None A 1367 2 Rouge
vs12 ariane 4 4 09Nov2011 1737 mixed 500 578 8000 2 30 3.77914059185 True L 16 a 1 2785 None None None None None None None None None C 1281 6 Rouge
vs12 ariane 4 4 09Nov2011 1737 mixed 500 545 8000 2 31 2.26166747523 False X 4 z 1 1234 None None None None None None None None None A 1267 0 Vert
vs12 ariane 4 4 09Nov2011 1737 mixed 500 589 8000 2 32 1.86232476288 False L 4 a 1 2583 None None None None None None None None None A 1480 3 Rouge
vs12 ariane 4 4 09Nov2011 1737 mixed 500 427 8000 2 33 0.568235827844 False L 4 z 1 4384 None None None None None None None None None A 2062 3 Vert
vs12 ariane 4 4 09Nov2011 1737 mixed 500 440 8000 2 34 0.215214595688 False X 16 a 1 2518 None None None None None None None None None A 1234 3 Rouge
vs12 ariane 4 4 09Nov2011 1737 mixed 500 548 8000 2 35 2.12280949743 False X 16 z 1 902 None None None None None None None None None A 2462 1 Vert
vs12 ariane 4 4 09Nov2011 1737 mixed 500 659 8000 2 36 2.73650410021 True X 16 a 1 1619 None None None None None None None None None A 1717 0 Rouge
vs12 ariane 4 4 09Nov2011 1737 mixed 500 505 8000 2 37 4.40110965023 False L 8 z 1 2284 None None None None None None None None None A 2745 3 Vert
