manip;subject;session;order;mm;tm;trialType;iti;fixDur;stimDur;nBlock;nTrial;alpha;present;targType;nItems;resp;acc;rt;confidence;estNItems;estTime;confidenceRT;estNItemsRT;estTimeRT
vs12;benlakhal;1;0;13Dec2010;1334;pTSer;500;567;200;1;1;4.863653024;False;L;2;a;1;2457;None;None;None;None;None;None
vs12;benlakhal;1;0;13Dec2010;1334;pTSer;500;436;200;1;2;0.808050006;True;L;2;z;1;2015;None;None;None;None;None;None
vs12;benlakhal;1;0;13Dec2010;1334;pTSer;500;471;200;1;3;2.388601574;False;L;8;a;1;2298;None;None;None;None;None;None
vs12;benlakhal;1;0;13Dec2010;1334;pTSer;500;433;200;1;4;3.878255691;False;L;4;z;0;2016;None;None;None;None;None;None
vs12;benlakhal;1;0;13Dec2010;1334;pTSer;500;514;200;1;5;5.215360266;True;L;8;a;0;2016;None;None;None;None;None;None
vs12;benlakhal;1;0;13Dec2010;1334;pTSer;500;452;200;1;6;5.097141253;True;L;12;z;1;2014;None;None;None;None;None;None
vs12;benlakhal;1;0;13Dec2010;1334;pTSer;500;435;200;1;7;3.55623356;True;L;4;a;0;2016;None;None;None;None;None;None
vs12;benlakhal;1;0;13Dec2010;1334;pTSer;500;683;200;1;8;6.193518726;False;L;2;a;1;2025;None;None;None;None;None;None
vs12;benlakhal;1;0;13Dec2010;1335;pTSer;500;564;200;1;9;0.948491963;False;L;4;z;0;2016;None;None;None;None;None;None
vs12;benlakhal;1;0;13Dec2010;1335;pTSer;500;455;200;1;10;5.939433129;False;L;12;z;0;16444;None;None;None;None;None;None
vs12;benlakhal;1;0;13Dec2010;1335;pTSer;500;455;200;1;11;2.06634235;False;L;12;z;0;15102;None;None;None;None;None;None
vs12;benlakhal;1;0;13Dec2010;1335;pTSer;500;619;200;1;12;5.218969212;True;L;12;a;0;2041;None;None;None;None;None;None
vs12;benlakhal;1;0;13Dec2010;1335;pTSer;500;698;200;1;13;0.520599399;False;L;8;a;1;2016;None;None;None;None;None;None
vs12;benlakhal;1;0;13Dec2010;1335;pTSer;500;599;200;1;14;3.182945315;True;L;2;z;1;2016;None;None;None;None;None;None
vs12;benlakhal;1;0;13Dec2010;1335;pTSer;500;623;200;1;15;2.569733376;True;L;4;z;1;2016;None;None;None;None;None;None
vs12;benlakhal;1;0;13Dec2010;1335;pTSer;500;488;200;1;16;5.473886362;True;L;8;z;1;2015;None;None;None;None;None;None
vs12;benlakhal;1;0;13Dec2010;1335;pTSer;500;418;200;1;1;0.499428887;False;L;2;a;1;2015;None;None;None;None;None;None
vs12;benlakhal;1;0;13Dec2010;1335;pTSer;500;493;200;1;2;3.238291159;True;L;2;z;1;2016;None;None;None;None;None;None
vs12;benlakhal;1;0;13Dec2010;1336;pTSer;500;553;200;1;3;0.144209705;False;L;8;a;1;2015;None;None;None;None;None;None
vs12;benlakhal;1;0;13Dec2010;1336;pTSer;500;573;200;1;4;0.214613215;False;L;4;a;1;2016;None;None;None;None;None;None
vs12;benlakhal;1;0;13Dec2010;1336;pTSer;500;563;200;1;5;1.457475735;True;L;8;z;1;2012;None;None;None;None;None;None
vs12;benlakhal;1;0;13Dec2010;1336;pTSer;500;442;200;1;6;0.781927047;True;L;12;z;1;2016;None;None;None;None;None;None
vs12;benlakhal;1;0;13Dec2010;1336;pTSer;500;434;200;1;7;3.041644023;True;L;4;z;1;2016;None;None;None;None;None;None
vs12;benlakhal;1;0;13Dec2010;1336;pTSer;500;511;200;1;8;5.640675952;False;L;2;a;1;2016;None;None;None;None;None;None
vs12;benlakhal;1;0;13Dec2010;1336;pTSer;500;472;200;1;9;6.062604063;False;L;4;a;1;2015;None;None;None;None;None;None
vs12;benlakhal;1;0;13Dec2010;1336;pTSer;500;685;200;1;10;2.358666475;False;L;12;z;0;2013;None;None;None;None;None;None
vs12;benlakhal;1;0;13Dec2010;1336;pTSer;500;457;200;1;11;6.137386186;False;L;12;a;1;2016;None;None;None;None;None;None
vs12;benlakhal;1;0;13Dec2010;1336;pTSer;500;676;200;1;12;0.801278173;True;L;12;z;1;2015;None;None;None;None;None;None
vs12;benlakhal;1;0;13Dec2010;1336;pTSer;500;480;200;1;13;0.858602569;False;L;8;a;1;2016;None;None;None;None;None;None
vs12;benlakhal;1;0;13Dec2010;1336;pTSer;500;518;200;1;14;1.753198607;True;L;2;z;1;2015;None;None;None;None;None;None
vs12;benlakhal;1;0;13Dec2010;1336;pTSer;500;426;200;1;15;3.918156327;True;L;4;z;1;2014;None;None;None;None;None;None
vs12;benlakhal;1;0;13Dec2010;1336;pTSer;500;684;200;1;16;4.487232485;True;L;8;z;1;2015;None;None;None;None;None;None
vs12;benlakhal;1;0;13Dec2010;1341;tSerial;500;512;200;1;1;5.555687789;True;L;12;a;0;3146;0;35.352;711;7584;13762;18109
vs12;benlakhal;1;0;13Dec2010;1342;tSerial;500;605;200;1;2;3.052677476;False;L;2;z;0;12385;1;24.37;623;13226;14313;15571
vs12;benlakhal;1;0;13Dec2010;1342;tSerial;500;654;200;1;3;2.349884528;False;L;4;a;1;557;0;1.428;866;7052;12302;19996
vs12;benlakhal;1;0;13Dec2010;1343;tSerial;500;446;200;1;4;3.633869386;False;L;12;a;1;469;3;3.228;902;8213;5486;9843
vs12;benlakhal;1;0;13Dec2010;1343;tSerial;500;483;200;1;5;4.494985034;False;L;8;a;1;213;0;0.104;870;6511;7999;8856
vs12;benlakhal;1;0;13Dec2010;1343;tSerial;500;470;200;1;6;3.871954192;False;L;8;a;1;379;4;1.432;686;3910;2552;5411
vs12;benlakhal;1;0;13Dec2010;1343;tSerial;500;468;200;1;7;3.434647739;True;L;8;a;0;726;1;4.208;542;3009;4138;5182
vs12;benlakhal;1;0;13Dec2010;1343;tSerial;500;647;200;1;8;6.16538117;True;L;2;a;0;442;9;0.484;387;12521;4526;14180
vs12;benlakhal;1;0;13Dec2010;1344;tSerial;500;541;200;1;9;5.304071993;True;L;2;z;1;499;9;0.598;358;4211;8685;9800
vs12;benlakhal;1;0;13Dec2010;1344;tSerial;500;591;200;1;10;5.326280982;False;L;12;z;0;413;1;2.556;461;7112;5926;8656
vs12;benlakhal;1;0;13Dec2010;1344;tSerial;500;494;200;1;11;0.799560513;True;L;4;z;1;399;3;0.796;350;9858;4940;13792
vs12;benlakhal;1;0;13Dec2010;1344;tSerial;500;547;200;1;12;3.753243625;True;L;12;z;1;384;2;2.208;425;6296;4053;7267
vs12;benlakhal;1;0;13Dec2010;1344;tSerial;500;544;200;1;13;3.406092797;True;L;4;z;1;399;1;0.796;362;3659;2379;6248
vs12;benlakhal;1;0;13Dec2010;1345;tSerial;500;485;200;1;14;2.09116631;False;L;4;z;0;342;6;0.568;391;2906;2079;10770
vs12;benlakhal;1;0;13Dec2010;1345;tSerial;500;514;200;1;15;2.10090616;False;L;2;z;0;499;10;0.598;336;4167;2651;5766
vs12;benlakhal;1;0;13Dec2010;1345;tSerial;500;457;200;1;16;4.066239883;True;L;8;z;1;385;2;3;462;5707;4367;1894
vs12;benlakhal;1;0;13Dec2010;1347;serial;500;532;200;1;1;5.236817371;True;L;4;a;0;586;0;2;355;7283;5498;8356
vs12;benlakhal;1;0;13Dec2010;1347;serial;500;695;200;1;2;2.777235602;True;L;8;z;1;414;5;3;398;5837;17151;18480
vs12;benlakhal;1;0;13Dec2010;1348;serial;500;636;200;1;3;1.834195376;False;L;4;z;0;370;4;2;457;2351;3595;5168
vs12;benlakhal;1;0;13Dec2010;1348;serial;500;624;200;1;4;2.758523468;True;L;4;z;1;356;1;1;401;3121;1948;4808
vs12;benlakhal;1;0;13Dec2010;1348;serial;500;562;200;1;5;4.70023508;False;L;12;z;0;428;1;2;348;3533;2347;4506
vs12;benlakhal;1;0;13Dec2010;1348;serial;500;616;200;1;6;3.306826793;True;L;8;z;1;471;8;0;328;4824;3610;8085
vs12;benlakhal;1;0;13Dec2010;1348;serial;500;626;200;1;7;6.042892464;True;L;2;z;1;500;9;1;326;6077;4389;7421
vs12;benlakhal;1;0;13Dec2010;1348;serial;500;424;200;1;8;5.912679899;True;L;12;z;1;442;9;2;355;5510;3651;6997
vs12;benlakhal;1;0;13Dec2010;1348;serial;500;483;200;1;9;4.350114862;True;L;12;z;1;399;8;1;317;2876;1203;3920
vs12;benlakhal;1;0;13Dec2010;1348;serial;500;624;200;1;10;2.819724286;False;L;4;z;0;442;2;1;367;3348;2193;4550
vs12;benlakhal;1;0;13Dec2010;1349;serial;500;678;200;1;11;5.995927616;True;L;12;z;1;484;9;1;361;4449;2996;8597
vs12;benlakhal;1;0;13Dec2010;1349;serial;500;692;200;1;12;3.132085526;True;L;2;z;1;428;9;2;405;5367;2107;6568
vs12;benlakhal;1;0;13Dec2010;1349;serial;500;532;200;1;13;5.369994761;False;L;12;z;0;371;5;2;341;12230;3821;14934
vs12;benlakhal;1;0;13Dec2010;1349;serial;500;430;200;1;14;5.919738872;True;L;4;a;0;399;9;1;377;3749;2777;4892
vs12;benlakhal;1;0;13Dec2010;1349;serial;500;472;200;1;15;4.414757558;False;L;8;z;0;400;1;3;372;3877;2692;5136
vs12;benlakhal;1;0;13Dec2010;1349;serial;500;664;200;1;16;3.561853046;False;L;8;z;0;413;8;2;346;5737;2651;7239
vs12;benlakhal;1;0;13Dec2010;1350;serial;500;465;200;1;17;4.219527057;False;L;4;z;0;427;9;2;392;7353;9226;10397
vs12;benlakhal;1;0;13Dec2010;1350;serial;500;677;200;1;18;5.911240639;False;L;4;z;0;757;9;1;370;2238;3009;4368
vs12;benlakhal;1;0;13Dec2010;1350;serial;500;523;200;1;19;4.153535106;False;L;12;z;0;653;2;2;415;3910;2866;4897
vs12;benlakhal;1;0;13Dec2010;1350;serial;500;619;200;1;20;2.586096207;True;L;4;z;1;514;9;1;393;4952;3079;7255
vs12;benlakhal;1;0;13Dec2010;1350;serial;500;498;200;1;21;4.762274264;False;L;12;z;0;426;9;4;356;6056;1794;7214
vs12;benlakhal;1;0;13Dec2010;1350;serial;500;546;200;1;22;0.189360804;False;L;8;z;0;657;9;2;390;4954;2609;5941
vs12;benlakhal;1;0;13Dec2010;1350;serial;500;624;200;1;23;3.997630761;True;L;4;z;1;384;8;2;416;2536;1363;5368
vs12;benlakhal;1;0;13Dec2010;1350;serial;500;568;200;1;24;4.960213722;False;L;2;z;0;522;9;2;317;2951;1950;4081
vs12;benlakhal;1;0;13Dec2010;1351;serial;500;629;200;1;25;5.187935014;True;L;8;z;1;486;8;3;418;3120;1336;4378
vs12;benlakhal;1;0;13Dec2010;1351;serial;500;661;200;1;26;2.705027057;True;L;2;z;1;513;9;1;357;3008;1736;4165
vs12;benlakhal;1;0;13Dec2010;1351;serial;500;496;200;1;27;3.215144567;True;L;12;z;1;357;9;4;385;9227;4355;6825
vs12;benlakhal;1;0;13Dec2010;1351;serial;500;599;200;1;28;5.169133861;False;L;8;z;0;456;9;3;387;2836;1507;4250
vs12;benlakhal;1;0;13Dec2010;1351;serial;500;401;200;1;29;0.968129034;False;L;2;z;0;499;6;1;317;4196;3152;17824
vs12;benlakhal;1;0;13Dec2010;1351;serial;500;585;200;1;30;1.293361145;True;L;8;z;1;357;9;2;423;2730;1816;3860
vs12;benlakhal;1;0;13Dec2010;1351;serial;500;405;200;1;31;3.155043784;False;L;12;z;0;499;8;4;348;2536;1478;4092
vs12;benlakhal;1;0;13Dec2010;1352;serial;500;457;200;1;32;3.283403717;True;L;12;z;1;414;9;5;336;5900;7784;8840
vs12;benlakhal;1;0;13Dec2010;1352;serial;500;642;200;1;33;3.69829661;True;L;2;z;1;428;9;2;282;2779;1964;3678
vs12;benlakhal;1;0;13Dec2010;1352;serial;500;556;200;1;34;4.954566876;False;L;2;z;0;527;4;2;356;3252;2352;4553
vs12;benlakhal;1;0;13Dec2010;1352;serial;500;597;200;1;35;3.796683;False;L;2;z;0;483;1;1;293;14424;2894;15634
vs12;benlakhal;1;0;13Dec2010;1352;serial;500;425;200;1;36;0.087553707;True;L;2;a;0;400;4;2;341;4482;1864;5811
vs12;benlakhal;1;0;13Dec2010;1352;serial;500;630;200;1;37;5.971875968;False;L;2;z;0;399;7;1;326;8885;13562;15033
vs12;benlakhal;1;0;13Dec2010;1353;serial;500;613;200;1;38;0.926892549;False;L;4;a;1;442;0;1;291;15794;12620;16881
vs12;benlakhal;1;0;13Dec2010;1353;serial;500;572;200;1;39;0.842314015;False;L;8;z;0;399;1;4;336;3705;2709;4420
vs12;benlakhal;1;0;13Dec2010;1353;serial;500;602;200;1;40;0.058197957;True;L;8;z;1;413;9;2;367;5897;2452;6926
vs12;benlakhal;1;0;13Dec2010;1354;serial;500;541;200;2;1;4.511343615;True;L;8;a;0;442;0;2;333;4135;3134;5351
vs12;benlakhal;1;0;13Dec2010;1354;serial;500;677;200;2;2;3.628911263;False;L;4;z;0;428;1;2;360;5606;4633;6663
vs12;benlakhal;1;0;13Dec2010;1354;serial;500;561;200;2;3;1.861365003;False;L;2;z;0;484;8;1;333;6926;6398;8242
vs12;benlakhal;1;0;13Dec2010;1354;serial;500;659;200;2;4;0.795441266;False;L;8;z;0;456;4;3;321;3637;2508;5368
vs12;benlakhal;1;0;13Dec2010;1355;serial;500;671;200;2;5;1.535765189;False;L;4;z;0;529;2;2;332;6557;5599;7897
vs12;benlakhal;1;0;13Dec2010;1355;serial;500;649;200;2;6;5.021490329;True;L;4;a;0;456;1;2;326;12432;6367;14460
vs12;benlakhal;1;0;13Dec2010;1355;serial;500;632;200;2;7;1.530433668;True;L;2;z;1;428;9;1;363;3224;2051;17409
vs12;benlakhal;1;0;13Dec2010;1355;serial;500;440;200;2;8;1.843360567;True;L;2;z;1;399;9;1;348;2506;1679;4222
vs12;benlakhal;1;0;13Dec2010;1355;serial;500;537;200;2;9;5.146980365;False;L;2;z;0;427;9;2;342;2722;2036;5981
vs12;benlakhal;1;0;13Dec2010;1355;serial;500;501;200;2;10;0.245860529;True;L;4;a;0;427;9;3;402;2994;2193;5379
vs12;benlakhal;1;0;13Dec2010;1356;serial;500;600;200;2;11;5.221777508;False;L;12;z;0;484;8;2;365;3980;2795;5049
vs12;benlakhal;1;0;13Dec2010;1356;serial;500;547;200;2;12;3.59376365;True;L;4;z;1;456;9;2;393;3638;2352;7910
vs12;benlakhal;1;0;13Dec2010;1356;serial;500;474;200;2;13;3.212353367;False;L;4;z;0;456;9;2;396;5110;4211;6153
vs12;benlakhal;1;0;13Dec2010;1356;serial;500;562;200;2;14;2.040983868;True;L;2;z;1;499;9;2;377;3194;2565;5977
vs12;benlakhal;1;0;13Dec2010;1356;serial;500;587;200;2;15;4.555758171;True;L;8;z;1;413;9;3;412;2794;1937;3853
vs12;benlakhal;1;0;13Dec2010;1356;serial;500;477;200;2;16;2.507207847;False;L;12;a;1;454;9;3;398;3137;2180;4066
vs12;benlakhal;1;0;13Dec2010;1356;serial;500;437;200;2;17;3.6695977;True;L;4;z;1;428;9;3;383;2728;2013;3714
vs12;benlakhal;1;0;13Dec2010;1356;serial;500;506;200;2;18;5.79612468;False;L;12;z;0;384;9;3;333;2350;1336;3480
vs12;benlakhal;1;0;13Dec2010;1356;serial;500;609;200;2;19;5.174246811;False;L;2;z;0;496;9;1;393;2764;1821;4037
vs12;benlakhal;1;0;13Dec2010;1357;serial;500;611;200;2;20;4.648221159;True;L;12;z;1;413;7;3;376;3146;1816;5506
vs12;benlakhal;1;0;13Dec2010;1357;serial;500;589;200;2;21;0.428302436;False;L;4;z;0;399;8;3;363;4078;2634;5537
vs12;benlakhal;1;0;13Dec2010;1357;serial;500;694;200;2;22;5.737367647;False;L;4;z;0;485;4;1;322;3593;5467;7326
vs12;benlakhal;1;0;13Dec2010;1357;serial;500;403;200;2;23;5.180395348;False;L;8;z;0;499;8;3;386;5839;4595;7426
vs12;benlakhal;1;0;13Dec2010;1357;serial;500;621;200;2;24;3.691141946;True;L;8;a;0;356;1;3;357;4706;2561;7051
vs12;benlakhal;1;0;13Dec2010;1357;serial;500;653;200;2;25;1.558655846;False;L;2;z;0;428;1;2;312;11556;2464;8697
vs12;benlakhal;1;0;13Dec2010;1357;serial;500;488;200;2;26;3.935637498;False;L;8;z;0;443;8;3;356;5525;3094;9230
vs12;benlakhal;1;0;13Dec2010;1358;serial;500;662;200;2;27;5.838413497;False;L;2;a;1;540;9;2;355;3050;1921;4037
vs12;benlakhal;1;0;13Dec2010;1358;serial;500;465;200;2;28;4.854992603;True;L;12;a;0;457;9;3;318;6023;1832;9112
vs12;benlakhal;1;0;13Dec2010;1358;serial;500;595;200;2;29;2.645730273;True;L;2;a;0;742;4;1;286;11600;9197;12601
vs12;benlakhal;1;0;13Dec2010;1358;serial;500;664;200;2;30;3.76910209;False;L;12;z;0;496;7;2;336;3451;1707;9013
vs12;benlakhal;1;0;13Dec2010;1359;serial;500;577;200;2;31;2.757046221;True;L;2;z;1;771;1;1;338;18824;4881;19754
vs12;benlakhal;1;0;13Dec2010;1359;serial;500;426;200;2;32;1.770388947;True;L;12;z;1;399;1;3;327;6027;1436;7426
vs12;benlakhal;1;0;13Dec2010;1359;serial;500;578;200;2;33;2.655558691;True;L;8;z;1;370;7;1;317;3381;1336;4481
vs12;benlakhal;1;0;13Dec2010;1359;serial;500;525;200;2;34;0.55822466;False;L;8;z;0;426;8;2;406;3051;1865;4581
vs12;benlakhal;1;0;13Dec2010;1359;serial;500;550;200;2;35;4.293194973;True;L;12;z;1;385;8;0;333;3818;3005;5206
vs12;benlakhal;1;0;13Dec2010;1359;serial;500;495;200;2;36;1.055015738;False;L;8;z;0;513;9;2;361;5266;1979;9172
vs12;benlakhal;1;0;13Dec2010;1359;serial;500;690;200;2;37;5.17391467;False;L;12;z;0;540;8;1;342;1922;1050;2980
vs12;benlakhal;1;0;13Dec2010;1359;serial;500;507;200;2;38;3.254918715;True;L;8;z;1;399;8;1;345;2350;1578;3389
vs12;benlakhal;1;0;13Dec2010;1359;serial;500;599;200;2;39;2.076434132;True;L;12;z;1;571;5;3;308;2923;2052;4067
vs12;benlakhal;1;0;13Dec2010;1400;serial;500;533;200;2;40;1.413749526;True;L;4;z;1;370;8;1;435;2478;1663;3965
vs12;benlakhal;1;0;13Dec2010;1400;serial;500;469;200;3;1;2.267641041;False;L;2;a;1;457;9;1;315;6082;4738;7240
vs12;benlakhal;1;0;13Dec2010;1401;serial;500;492;200;3;2;3.012543034;True;L;2;a;0;427;2;1;325;3033;1563;4678
vs12;benlakhal;1;0;13Dec2010;1401;serial;500;446;200;3;3;2.244312557;False;L;12;a;1;341;9;1;381;2751;1966;3565
vs12;benlakhal;1;0;13Dec2010;1401;serial;500;506;200;3;4;2.328329276;False;L;12;a;1;542;9;1;348;6026;5184;6999
vs12;benlakhal;1;0;13Dec2010;1401;serial;500;577;200;3;5;6.235015723;True;L;2;z;1;427;10;1;331;2379;1678;5325
vs12;benlakhal;1;0;13Dec2010;1401;serial;500;689;200;3;6;0.933848903;True;L;12;z;1;527;9;2;332;8328;6987;15458
vs12;benlakhal;1;0;13Dec2010;1401;serial;500;658;200;3;7;1.324362253;False;L;8;z;0;443;8;2;376;3366;1808;6983
vs12;benlakhal;1;0;13Dec2010;1401;serial;500;657;200;3;8;5.989069877;False;L;4;z;0;342;6;2;338;2550;1264;6882
vs12;benlakhal;1;0;13Dec2010;1402;serial;500;531;200;3;9;1.659620921;False;L;8;z;0;342;8;1;397;2079;1021;3237
vs12;benlakhal;1;0;13Dec2010;1402;serial;500;532;200;3;10;3.28332112;False;L;2;z;0;425;9;1;308;16393;15339;18382
vs12;benlakhal;1;0;13Dec2010;1402;serial;500;557;200;3;11;0.470556529;True;L;8;z;1;671;9;5;418;1593;4361;10211
vs12;benlakhal;1;0;13Dec2010;1402;serial;500;575;200;3;12;1.02471867;False;L;12;z;0;1129;4;1;351;7470;8542;9957
vs12;benlakhal;1;0;13Dec2010;1403;serial;500;584;200;3;13;2.065753003;True;L;8;z;1;355;1;2;376;13429;1565;9915
vs12;benlakhal;1;0;13Dec2010;1403;serial;500;604;200;3;14;2.60298012;True;L;8;z;1;499;9;2;355;2880;1794;5794
vs12;benlakhal;1;0;13Dec2010;1403;serial;500;532;200;3;15;2.937019851;True;L;12;z;1;413;8;3;375;2579;1550;11060
vs12;benlakhal;1;0;13Dec2010;1403;serial;500;447;200;3;16;1.230926421;True;L;2;z;1;413;9;2;368;2151;1365;3080
vs12;benlakhal;1;0;13Dec2010;1403;serial;500;416;200;3;17;3.920767025;True;L;12;z;1;399;9;3;385;2136;1007;5049
vs12;benlakhal;1;0;13Dec2010;1403;serial;500;410;200;3;18;4.639590422;False;L;8;z;0;700;8;2;345;2393;1221;7424
vs12;benlakhal;1;0;13Dec2010;1403;serial;500;658;200;3;19;5.394515794;False;L;2;z;0;4557;9;0;308;2565;5783;7082
vs12;benlakhal;1;0;13Dec2010;1404;serial;500;501;200;3;20;2.940932484;True;L;4;z;1;342;9;1;408;4797;2952;5951
vs12;benlakhal;1;0;13Dec2010;1404;serial;500;614;200;3;21;5.779717725;True;L;8;z;1;513;9;3;333;2036;1149;3007
vs12;benlakhal;1;0;13Dec2010;1404;serial;500;597;200;3;22;5.499297403;False;L;4;z;0;413;8;1;381;2420;1662;3692
vs12;benlakhal;1;0;13Dec2010;1404;serial;500;491;200;3;23;0.413402399;False;L;4;z;0;442;2;1;375;21236;10773;20209
vs12;benlakhal;1;0;13Dec2010;1404;serial;500;552;200;3;24;5.130162757;False;L;2;z;0;428;9;2;393;2207;1436;5923
vs12;benlakhal;1;0;13Dec2010;1404;serial;500;692;200;3;25;1.950526636;False;L;4;z;0;370;9;2;396;2165;1207;3437
vs12;benlakhal;1;0;13Dec2010;1405;serial;500;478;200;3;26;1.475206202;True;L;4;z;1;480;0;1;376;15492;5170;10303
vs12;benlakhal;1;0;13Dec2010;1405;serial;500;561;200;3;27;5.217816915;True;L;12;a;0;385;9;3;426;2036;1336;2880
vs12;benlakhal;1;0;13Dec2010;1405;serial;500;462;200;3;28;4.73479569;False;L;8;z;0;213;8;1;420;3905;2305;3262
vs12;benlakhal;1;0;13Dec2010;1405;serial;500;566;200;3;29;2.995336526;False;L;2;z;0;427;6;1;351;9057;7055;10273
vs12;benlakhal;1;0;13Dec2010;1405;serial;500;660;200;3;30;0.687619877;False;L;4;z;0;514;9;2;386;28958;26012;31504
vs12;benlakhal;1;0;13Dec2010;1406;serial;500;652;200;3;31;2.926085661;True;L;4;z;1;299;8;1;332;2808;1793;3866
vs12;benlakhal;1;0;13Dec2010;1406;serial;500;496;200;3;32;4.62088822;True;L;4;z;1;399;9;1;393;1789;920;2675
vs12;benlakhal;1;0;13Dec2010;1406;serial;500;496;200;3;33;0.980103013;False;L;8;z;0;428;9;1;316;2580;1351;3552
vs12;benlakhal;1;0;13Dec2010;1406;serial;500;700;200;3;34;5.517517381;True;L;4;z;1;325;9;0;312;2981;2180;3938
vs12;benlakhal;1;0;13Dec2010;1406;serial;500;669;200;3;35;0.168756594;True;L;2;z;1;342;9;0;308;3836;2536;5967
vs12;benlakhal;1;0;13Dec2010;1406;serial;500;537;200;3;36;1.171693386;True;L;8;z;1;427;9;1;308;1778;7797;8612
vs12;benlakhal;1;0;13Dec2010;1406;serial;500;545;200;3;37;5.210650174;True;L;12;z;1;385;9;2;313;4147;2147;3033
vs12;benlakhal;1;0;13Dec2010;1406;serial;500;673;200;3;38;3.555371028;False;L;12;z;0;771;9;1;342;9636;7670;8484
vs12;benlakhal;1;0;13Dec2010;1407;serial;500;422;200;3;39;4.61052336;False;L;12;z;0;528;9;2;365;11247;10189;12519
vs12;benlakhal;1;0;13Dec2010;1407;serial;500;476;200;3;40;5.091688819;True;L;2;z;1;456;9;1;367;1545;817;2331
vs12;benlakhal;1;0;13Dec2010;1408;serial;500;672;200;4;1;3.357454953;False;L;12;z;0;370;9;2;340;2562;1347;3819
vs12;benlakhal;1;0;13Dec2010;1408;serial;500;514;200;4;2;1.493047321;False;L;4;z;0;485;1;0;295;2336;1393;3263
vs12;benlakhal;1;0;13Dec2010;1408;serial;500;536;200;4;3;4.390960709;True;L;4;z;1;370;0;1;307;3250;1851;2537
vs12;benlakhal;1;0;13Dec2010;1408;serial;500;453;200;4;4;2.865212129;True;L;12;z;1;484;2;0;262;3676;2034;2748
vs12;benlakhal;1;0;13Dec2010;1408;serial;500;697;200;4;5;5.596886768;True;L;2;z;1;399;10;0;323;3409;1551;4346
vs12;benlakhal;1;0;13Dec2010;1408;serial;500;533;200;4;6;1.660255482;False;L;4;z;0;385;9;1;341;1922;1264;3166
vs12;benlakhal;1;0;13Dec2010;1408;serial;500;648;200;4;7;5.555435726;False;L;2;a;1;370;8;0;316;4937;4179;5651
vs12;benlakhal;1;0;13Dec2010;1409;serial;500;578;200;4;8;5.811074234;True;L;8;a;0;327;9;1;372;2527;3414;5158
vs12;benlakhal;1;0;13Dec2010;1409;serial;500;602;200;4;9;5.429825598;True;L;4;z;1;456;8;0;332;1978;1292;5151
vs12;benlakhal;1;0;13Dec2010;1409;serial;500;487;200;4;10;1.60623279;False;L;8;z;0;342;9;0;405;1979;907;3395
vs12;benlakhal;1;0;13Dec2010;1409;serial;500;461;200;4;11;3.828648556;False;L;8;z;0;399;8;1;323;1692;920;2978
vs12;benlakhal;1;0;13Dec2010;1409;serial;500;527;200;4;12;4.334655524;False;L;2;z;0;1715;9;1;367;1931;3046;4835
vs12;benlakhal;1;0;13Dec2010;1409;serial;500;688;200;4;13;1.044711565;True;L;8;z;1;3401;9;1;352;4223;3379;2438
vs12;benlakhal;1;0;13Dec2010;1409;serial;500;401;200;4;14;4.250053224;True;L;12;z;1;643;4;1;325;2063;1450;2892
vs12;benlakhal;1;0;13Dec2010;1409;serial;500;569;200;4;15;6.175577278;True;L;2;z;1;413;10;1;335;2336;1148;4395
vs12;benlakhal;1;0;13Dec2010;1409;serial;500;433;200;4;16;6.280684934;True;L;4;z;1;298;9;1;343;2264;1349;3107
vs12;benlakhal;1;0;13Dec2010;1409;serial;500;612;200;4;17;2.27469822;True;L;12;z;1;342;9;1;342;2179;1422;3779
vs12;benlakhal;1;0;13Dec2010;1409;serial;500;523;200;4;18;0.397901761;False;L;12;z;0;341;8;1;366;1635;906;2336
vs12;benlakhal;1;0;13Dec2010;1410;serial;500;554;200;4;19;6.000586577;True;L;2;z;1;485;10;1;280;2877;1504;4350
vs12;benlakhal;1;0;13Dec2010;1410;serial;500;438;200;4;20;4.271937889;True;L;12;z;1;370;8;2;372;2779;1764;4347
vs12;benlakhal;1;0;13Dec2010;1410;serial;500;632;200;4;21;4.344784216;False;L;4;z;0;299;9;1;410;1850;1063;2822
vs12;benlakhal;1;0;13Dec2010;1410;serial;500;564;200;4;22;1.855994888;False;L;2;z;0;15601;9;0;356;2577;1436;3679
vs12;benlakhal;1;0;13Dec2010;1410;serial;500;674;200;4;23;4.098624446;False;L;8;z;0;356;9;1;375;1491;834;2492
vs12;benlakhal;1;0;13Dec2010;1410;serial;500;493;200;4;24;3.706937547;False;L;2;z;0;428;0;0;322;2388;1630;3174
vs12;benlakhal;1;0;13Dec2010;1410;serial;500;689;200;4;25;1.686589608;False;L;12;z;0;427;8;1;258;4475;2280;3090
vs12;benlakhal;1;0;13Dec2010;1410;serial;500;480;200;4;26;5.867428301;False;L;12;a;1;399;2;0;328;3537;1464;5579
vs12;benlakhal;1;0;13Dec2010;1411;serial;500;544;200;4;27;5.798541748;True;L;4;z;1;427;9;0;332;2393;1735;4066
vs12;benlakhal;1;0;13Dec2010;1411;serial;500;572;200;4;28;5.740496388;False;L;2;z;0;442;9;0;253;3018;1474;4592
vs12;benlakhal;1;0;13Dec2010;1411;serial;500;526;200;4;29;4.047192979;True;L;8;z;1;456;8;1;277;3778;3092;4722
vs12;benlakhal;1;0;13Dec2010;1411;serial;500;592;200;4;30;2.127964035;False;L;12;a;1;414;9;1;320;6081;4067;5196
vs12;benlakhal;1;0;13Dec2010;1411;serial;500;404;200;4;31;3.339032903;True;L;8;z;1;528;8;1;345;2207;1593;2979
vs12;benlakhal;1;0;13Dec2010;1411;serial;500;646;200;4;32;0.615620193;False;L;8;z;0;456;9;1;342;1649;934;2606
vs12;benlakhal;1;0;13Dec2010;1411;serial;500;634;200;4;33;6.25820546;False;L;4;z;0;385;9;1;293;2051;907;4137
vs12;benlakhal;1;0;13Dec2010;1411;serial;500;543;200;4;34;5.79051891;False;L;8;z;0;484;8;1;350;17292;14877;16079
vs12;benlakhal;1;0;13Dec2010;1411;serial;500;667;200;4;35;5.175908378;True;L;4;z;1;356;9;0;358;3048;1491;2077
vs12;benlakhal;1;0;13Dec2010;1412;serial;500;409;200;4;36;5.070027672;False;L;4;z;0;414;9;0;301;2734;734;1935
vs12;benlakhal;1;0;13Dec2010;1412;serial;500;596;200;4;37;4.017258912;True;L;8;z;1;328;8;0;315;2288;989;1646
vs12;benlakhal;1;0;13Dec2010;1412;serial;500;473;200;4;38;6.004845522;True;L;2;a;0;528;9;1;332;1778;1121;2579
vs12;benlakhal;1;0;13Dec2010;1412;serial;500;658;200;4;39;5.680800883;True;L;12;z;1;370;9;1;345;3505;2662;4949
vs12;benlakhal;1;0;13Dec2010;1412;serial;500;569;200;4;40;2.681516313;True;L;2;z;1;385;9;0;380;4264;3349;5637
vs12;benlakhal;1;0;13Dec2010;1413;serial;500;685;200;5;1;5.355974354;True;L;4;z;1;370;9;1;338;2679;1707;3580
vs12;benlakhal;1;0;13Dec2010;1413;serial;500;517;200;5;2;1.929225464;True;L;2;z;1;399;10;2;328;2890;2146;4020
vs12;benlakhal;1;0;13Dec2010;1413;serial;500;629;200;5;3;4.740887914;True;L;12;z;1;328;8;2;362;2079;1164;2864
vs12;benlakhal;1;0;13Dec2010;1413;serial;500;669;200;5;4;4.078414289;False;L;4;z;0;399;9;1;373;2680;1407;4352
vs12;benlakhal;1;0;13Dec2010;1413;serial;500;625;200;5;5;6.003920632;True;L;4;z;1;385;9;1;362;1901;1049;2787
vs12;benlakhal;1;0;13Dec2010;1414;serial;500;583;200;5;6;2.248633444;True;L;12;z;1;385;9;0;307;1992;1235;3021
vs12;benlakhal;1;0;13Dec2010;1414;serial;500;573;200;5;7;3.653639554;True;L;12;z;1;385;9;1;350;1787;1074;2732
vs12;benlakhal;1;0;13Dec2010;1414;serial;500;538;200;5;8;3.67669094;True;L;8;z;1;385;9;1;322;2136;1322;3137
vs12;benlakhal;1;0;13Dec2010;1414;serial;500;459;200;5;9;2.808265704;False;L;4;z;0;384;10;0;312;2207;1278;3308
vs12;benlakhal;1;0;13Dec2010;1414;serial;500;400;200;5;10;5.046476467;True;L;2;z;1;500;9;1;356;1520;963;2619
vs12;benlakhal;1;0;13Dec2010;1414;serial;500;460;200;5;11;2.370288463;True;L;2;z;1;341;9;1;317;2049;1449;2964
vs12;benlakhal;1;0;13Dec2010;1414;serial;500;475;200;5;12;1.113008186;False;L;12;z;0;327;9;2;347;2346;1508;3461
vs12;benlakhal;1;0;13Dec2010;1414;serial;500;697;200;5;13;1.611511834;True;L;2;z;1;428;9;2;376;3538;1750;5295
vs12;benlakhal;1;0;13Dec2010;1414;serial;500;427;200;5;14;0.839618672;True;L;4;z;1;357;10;2;352;5355;4497;7942
vs12;benlakhal;1;0;13Dec2010;1414;serial;500;584;200;5;15;4.278960594;True;L;4;z;1;357;9;1;356;2294;1336;3223
vs12;benlakhal;1;0;13Dec2010;1414;serial;500;550;200;5;16;4.007922668;False;L;8;z;0;399;9;1;393;1635;848;4495
vs12;benlakhal;1;0;13Dec2010;1415;serial;500;595;200;5;17;6.162718692;False;L;4;z;0;1999;9;1;300;1321;2107;2950
vs12;benlakhal;1;0;13Dec2010;1415;serial;500;614;200;5;18;5.655024025;False;L;12;z;0;341;9;1;315;1550;835;2923
vs12;benlakhal;1;0;13Dec2010;1415;serial;500;436;200;5;19;5.938585286;False;L;2;z;0;442;9;0;335;4440;3567;5755
vs12;benlakhal;1;0;13Dec2010;1415;serial;500;603;200;5;20;5.868931473;True;L;12;z;1;370;9;1;295;1449;792;2449
vs12;benlakhal;1;0;13Dec2010;1415;serial;500;519;200;5;21;1.151544813;False;L;2;z;0;428;9;1;291;2007;1292;2908
vs12;benlakhal;1;0;13Dec2010;1415;serial;500;501;200;5;22;3.194869513;True;L;8;z;1;457;9;1;367;1621;1035;2993
vs12;benlakhal;1;0;13Dec2010;1415;serial;500;434;200;5;23;5.356522185;False;L;12;a;1;570;9;1;346;1735;977;2503
vs12;benlakhal;1;0;13Dec2010;1415;serial;500;418;200;5;24;1.623190797;True;L;8;z;1;643;8;2;376;1492;777;11557
vs12;benlakhal;1;0;13Dec2010;1415;serial;500;688;200;5;25;5.413384741;True;L;12;z;1;585;9;1;407;2134;1520;3192
vs12;benlakhal;1;0;13Dec2010;1415;serial;500;669;200;5;26;1.305873432;False;L;2;z;0;442;9;1;363;3009;1464;4189
vs12;benlakhal;1;0;13Dec2010;1415;serial;500;532;200;5;27;4.074227585;False;L;8;z;0;385;8;1;351;1650;978;2535
vs12;benlakhal;1;0;13Dec2010;1416;serial;500;535;200;5;28;1.867037818;True;L;4;z;1;356;9;1;370;1589;891;2403
vs12;benlakhal;1;0;13Dec2010;1416;serial;500;457;200;5;29;1.767919594;True;L;8;z;1;398;9;1;405;2349;1607;3436
vs12;benlakhal;1;0;13Dec2010;1416;serial;500;480;200;5;30;1.159265832;False;L;8;z;0;385;9;2;421;1288;2245;3103
vs12;benlakhal;1;0;13Dec2010;1416;serial;500;609;200;5;31;3.343090817;False;L;8;z;0;413;9;1;325;1766;2551;3280
vs12;benlakhal;1;0;13Dec2010;1416;serial;500;588;200;5;32;4.59293358;False;L;2;a;1;484;9;1;388;2265;850;3209
vs12;benlakhal;1;0;13Dec2010;1416;serial;500;500;200;5;33;1.796453072;False;L;12;a;1;342;8;3;401;1436;792;2275
vs12;benlakhal;1;0;13Dec2010;1416;serial;500;586;200;5;34;3.479905648;False;L;2;z;0;628;9;0;452;892;1764;2694
vs12;benlakhal;1;0;13Dec2010;1416;serial;500;650;200;5;35;4.82847225;False;L;4;z;0;341;9;1;428;1106;2031;2846
vs12;benlakhal;1;0;13Dec2010;1416;serial;500;645;200;5;36;2.538543752;False;L;12;a;1;313;8;2;357;1450;736;2165
vs12;benlakhal;1;0;13Dec2010;1416;serial;500;628;200;5;37;4.784548663;True;L;8;z;1;471;9;3;482;1214;577;2558
vs12;benlakhal;1;0;13Dec2010;1416;serial;500;431;200;5;38;2.954441984;True;L;2;z;1;614;9;1;323;1621;3093;4166
vs12;benlakhal;1;0;13Dec2010;1416;serial;500;500;200;5;39;0.423237153;False;L;4;z;0;399;8;1;355;3438;2322;4667
vs12;benlakhal;1;0;13Dec2010;1416;serial;500;537;200;5;40;1.878298668;False;L;8;z;0;399;2;1;320;3258;2486;4187
vs12;benlakhal;1;0;13Dec2010;1418;pTPar;500;652;200;1;1;6.034106968;False;X;4;z;0;2016;None;None;None;None;None;None
vs12;benlakhal;1;0;13Dec2010;1418;pTPar;500;418;200;1;2;3.669216216;True;X;8;z;1;2016;None;None;None;None;None;None
vs12;benlakhal;1;0;13Dec2010;1419;pTPar;500;679;200;1;3;5.877784915;True;X;4;z;1;2014;None;None;None;None;None;None
vs12;benlakhal;1;0;13Dec2010;1419;pTPar;500;615;200;1;4;0.42698023;True;X;4;z;1;2016;None;None;None;None;None;None
vs12;benlakhal;1;0;13Dec2010;1419;pTPar;500;624;200;1;5;5.717621583;False;X;2;a;1;2016;None;None;None;None;None;None
vs12;benlakhal;1;0;13Dec2010;1419;pTPar;500;614;200;1;6;5.432532035;False;X;8;a;1;2015;None;None;None;None;None;None
vs12;benlakhal;1;0;13Dec2010;1419;pTPar;500;666;200;1;7;4.254952425;True;X;2;z;1;2015;None;None;None;None;None;None
vs12;benlakhal;1;0;13Dec2010;1419;pTPar;500;421;200;1;8;0.519656753;True;X;12;z;1;2013;None;None;None;None;None;None
vs12;benlakhal;1;0;13Dec2010;1419;pTPar;500;500;200;1;9;5.735769303;True;X;2;z;1;2016;None;None;None;None;None;None
vs12;benlakhal;1;0;13Dec2010;1419;pTPar;500;700;200;1;10;6.103437335;False;X;4;a;1;2016;None;None;None;None;None;None
vs12;benlakhal;1;0;13Dec2010;1419;pTPar;500;652;200;1;11;4.677724806;True;X;8;z;1;2016;None;None;None;None;None;None
vs12;benlakhal;1;0;13Dec2010;1419;pTPar;500;480;200;1;12;1.911978587;False;X;12;a;1;2016;None;None;None;None;None;None
vs12;benlakhal;1;0;13Dec2010;1419;pTPar;500;455;200;1;13;5.643859029;False;X;2;a;1;2025;None;None;None;None;None;None
vs12;benlakhal;1;0;13Dec2010;1419;pTPar;500;495;200;1;14;1.205867108;False;X;12;a;1;2015;None;None;None;None;None;None
vs12;benlakhal;1;0;13Dec2010;1419;pTPar;500;610;200;1;15;4.042602083;True;X;12;z;1;2016;None;None;None;None;None;None
vs12;benlakhal;1;0;13Dec2010;1419;pTPar;500;505;200;1;16;1.710071544;False;X;8;a;1;2016;None;None;None;None;None;None
vs12;benlakhal;1;0;13Dec2010;1420;tPar;500;400;200;1;1;3.724360781;True;X;8;a;0;740;0;4.32;336;13248;14563;15633
vs12;benlakhal;1;0;13Dec2010;1420;tPar;500;623;200;1;2;0.100468015;False;X;4;z;0;443;5;0.972;335;8800;7956;9844
vs12;benlakhal;1;0;13Dec2010;1420;tPar;500;504;200;1;3;2.279961535;True;X;2;a;0;385;5;0.37;347;3208;2463;3994
vs12;benlakhal;1;0;13Dec2010;1420;tPar;500;462;200;1;4;3.806317193;False;X;2;a;1;442;9;0.484;358;2372;1149;3231
vs12;benlakhal;1;0;13Dec2010;1420;tPar;500;441;200;1;5;0.021175732;True;X;12;z;1;428;8;2.736;352;3022;2165;3966
vs12;benlakhal;1;0;13Dec2010;1420;tPar;500;595;200;1;6;5.850918974;True;X;4;z;1;342;9;0.568;367;2594;1665;3437
vs12;benlakhal;1;0;13Dec2010;1420;tPar;500;610;200;1;7;5.168972851;True;X;8;a;0;412;8;1.696;378;1764;1221;2564
vs12;benlakhal;1;0;13Dec2010;1420;tPar;500;640;200;1;8;4.923099511;False;X;8;z;0;441;9;1.928;272;1092;1693;2274
vs12;benlakhal;1;0;13Dec2010;1420;tPar;500;670;200;1;9;2.674126627;False;X;4;a;1;442;0;0.968;357;1336;2079;2593
vs12;benlakhal;1;0;13Dec2010;1421;tPar;500;499;200;1;10;4.738168891;False;X;8;z;0;427;0;1.816;362;1806;3364;4136
vs12;benlakhal;1;0;13Dec2010;1421;tPar;500;681;200;1;11;2.394309765;True;X;12;a;0;442;9;2.904;307;8112;6912;9080
vs12;benlakhal;1;0;13Dec2010;1421;tPar;500;572;200;1;12;1.342391225;False;X;12;a;1;529;9;3.948;372;1508;3280;4167
vs12;benlakhal;1;0;13Dec2010;1421;tPar;500;512;200;1;13;6.018112635;False;X;12;a;1;428;9;2.736;346;2710;3353;4067
vs12;benlakhal;1;0;13Dec2010;1421;tPar;500;438;200;1;14;5.291644335;True;X;2;z;1;437;9;0.474;391;1621;3008;3852
vs12;benlakhal;1;0;13Dec2010;1421;tPar;500;619;200;1;15;6.280792514;True;X;4;z;1;299;9;0.396;371;2931;1859;3832
vs12;benlakhal;1;0;13Dec2010;1421;tPar;500;685;200;1;16;1.000566478;False;X;2;a;1;442;9;0.484;380;1836;1178;2748
vs12;benlakhal;1;0;13Dec2010;1422;parallel;500;457;200;1;1;5.632238496;False;X;4;a;1;513;9;3;366;2403;1736;3290
vs12;benlakhal;1;0;13Dec2010;1422;parallel;500;643;200;1;2;0.557908755;False;X;4;a;1;486;9;3;360;1649;1020;2836
vs12;benlakhal;1;0;13Dec2010;1422;parallel;500;617;200;1;3;0.78368722;False;X;2;a;1;470;9;1;391;1973;1287;2745
vs12;benlakhal;1;0;13Dec2010;1422;parallel;500;421;200;1;4;2.524899905;True;X;12;a;0;400;1;2;320;2465;1165;3337
vs12;benlakhal;1;0;13Dec2010;1422;parallel;500;604;200;1;5;4.608356961;True;X;8;z;1;398;9;3;310;2278;1206;3980
vs12;benlakhal;1;0;13Dec2010;1422;parallel;500;412;200;1;6;2.604096451;True;X;2;z;1;414;9;1;355;1933;1120;2690
vs12;benlakhal;1;0;13Dec2010;1422;parallel;500;517;200;1;7;0.067938872;False;X;12;a;1;500;8;2;376;2851;1279;3480
vs12;benlakhal;1;0;13Dec2010;1422;parallel;500;570;200;1;8;2.537171249;False;X;12;z;0;270;9;1;370;2505;1433;3621
vs12;benlakhal;1;0;13Dec2010;1422;parallel;500;539;200;1;9;2.453653082;True;X;8;z;1;400;9;3;380;2064;1407;3031
vs12;benlakhal;1;0;13Dec2010;1422;parallel;500;644;200;1;10;1.607850755;True;X;2;z;1;470;9;1;377;1634;1063;2764
vs12;benlakhal;1;0;13Dec2010;1422;parallel;500;681;200;1;11;1.998025991;True;X;12;a;0;471;9;4;343;1179;3451;4280
vs12;benlakhal;1;0;13Dec2010;1422;parallel;500;675;200;1;12;5.822487125;False;X;8;z;0;342;9;2;405;1121;1736;2722
vs12;benlakhal;1;0;13Dec2010;1422;parallel;500;557;200;1;13;0.961923149;True;X;8;z;1;443;9;3;405;2179;1464;3008
vs12;benlakhal;1;0;13Dec2010;1423;parallel;500;522;200;1;14;5.054465074;False;X;2;z;0;485;9;1;403;2036;1463;2760
vs12;benlakhal;1;0;13Dec2010;1423;parallel;500;694;200;1;15;4.8123463;True;X;12;z;1;384;9;3;455;2007;1193;4110
vs12;benlakhal;1;0;13Dec2010;1423;parallel;500;494;200;1;16;3.837403128;False;X;8;z;0;400;9;2;331;1132;2619;3205
vs12;benlakhal;1;0;13Dec2010;1423;parallel;500;415;200;1;17;6.190409988;False;X;4;z;0;471;8;1;432;1006;1864;2836
vs12;benlakhal;1;0;13Dec2010;1423;parallel;500;652;200;1;18;0.95266286;True;X;12;a;0;413;9;4;476;1093;1679;2307
vs12;benlakhal;1;0;13Dec2010;1423;parallel;500;403;200;1;19;6.012667635;True;X;4;z;1;398;9;1;393;1520;948;2535
vs12;benlakhal;1;0;13Dec2010;1423;parallel;500;403;200;1;20;1.421578613;False;X;12;z;0;470;9;3;416;1134;1692;2463
vs12;benlakhal;1;0;13Dec2010;1423;parallel;500;404;200;1;21;2.237004528;False;X;12;a;1;413;9;5;342;2551;1637;4230
vs12;benlakhal;1;0;13Dec2010;1423;parallel;500;691;200;1;22;4.02037599;True;X;8;z;1;400;9;3;386;1563;936;2779
vs12;benlakhal;1;0;13Dec2010;1423;parallel;500;663;200;1;23;5.793987527;True;X;2;z;1;385;9;1;426;1991;1348;2949
vs12;benlakhal;1;0;13Dec2010;1423;parallel;500;625;200;1;24;2.542167691;True;X;4;z;1;398;9;2;380;1549;1036;3566
vs12;benlakhal;1;0;13Dec2010;1423;parallel;500;494;200;1;25;4.160357415;True;X;2;z;1;384;9;1;353;1735;1049;2492
vs12;benlakhal;1;0;13Dec2010;1423;parallel;500;696;200;1;26;4.494740067;False;X;2;z;0;399;9;2;407;1893;1392;2807
vs12;benlakhal;1;0;13Dec2010;1424;parallel;500;472;200;1;27;0.175430882;False;X;12;a;1;399;9;4;375;1578;1007;2365
vs12;benlakhal;1;0;13Dec2010;1424;parallel;500;624;200;1;28;0.908293461;False;X;4;a;1;442;9;3;420;2805;2137;3692
vs12;benlakhal;1;0;13Dec2010;1424;parallel;500;541;200;1;29;4.207534748;True;X;12;a;0;342;9;5;426;1063;1778;3294
vs12;benlakhal;1;0;13Dec2010;1424;parallel;500;663;200;1;30;2.68678149;True;X;2;z;1;413;9;1;381;1618;903;2475
vs12;benlakhal;1;0;13Dec2010;1424;parallel;500;669;200;1;31;0.923719349;False;X;2;z;0;399;1;1;386;2450;1134;3351
vs12;benlakhal;1;0;13Dec2010;1424;parallel;500;546;200;1;32;2.488985111;False;X;8;z;0;398;9;1;358;1006;1592;2564
vs12;benlakhal;1;0;13Dec2010;1424;parallel;500;646;200;1;33;3.842737956;True;X;4;z;1;542;9;3;403;1535;1106;2436
vs12;benlakhal;1;0;13Dec2010;1424;parallel;500;426;200;1;34;3.057875256;True;X;8;z;1;413;9;4;346;1306;835;2163
vs12;benlakhal;1;0;13Dec2010;1424;parallel;500;433;200;1;35;3.240476836;True;X;4;z;1;427;9;3;366;1864;1407;2822
vs12;benlakhal;1;0;13Dec2010;1424;parallel;500;465;200;1;36;5.147125481;False;X;8;a;1;585;9;6;443;2322;1579;3007
vs12;benlakhal;1;0;13Dec2010;1424;parallel;500;613;200;1;37;0.183290845;False;X;4;z;0;500;9;3;343;1887;1364;2602
vs12;benlakhal;1;0;13Dec2010;1424;parallel;500;484;200;1;38;0.631774927;False;X;8;z;0;543;9;7;380;1706;878;2822
vs12;benlakhal;1;0;13Dec2010;1424;parallel;500;464;200;1;39;1.597916096;True;X;4;a;0;471;9;3;415;1605;1165;2592
vs12;benlakhal;1;0;13Dec2010;1424;parallel;500;593;200;1;40;5.873787743;False;X;2;a;1;600;10;1;367;1535;878;2493
vs12;benlakhal;1;0;13Dec2010;1425;parallel;500;504;200;2;1;5.294241766;True;X;12;a;0;785;2;2;360;1716;2216;3274
vs12;benlakhal;1;0;13Dec2010;1425;parallel;500;402;200;2;2;0.823574374;False;X;4;z;0;398;8;1;370;1220;1906;2735
vs12;benlakhal;1;0;13Dec2010;1425;parallel;500;621;200;2;3;2.649301429;True;X;2;z;1;337;9;1;405;1534;1077;2478
vs12;benlakhal;1;0;13Dec2010;1426;parallel;500;569;200;2;4;4.906598165;True;X;4;z;1;528;8;3;281;2021;1564;2736
vs12;benlakhal;1;0;13Dec2010;1426;parallel;500;624;200;2;5;5.05580558;False;X;12;a;1;456;8;5;333;1592;864;2378
vs12;benlakhal;1;0;13Dec2010;1426;parallel;500;574;200;2;6;4.782336284;True;X;12;z;1;356;9;3;408;906;1593;2536
vs12;benlakhal;1;0;13Dec2010;1426;parallel;500;444;200;2;7;1.542893516;False;X;12;a;1;427;9;6;362;1262;735;2121
vs12;benlakhal;1;0;13Dec2010;1426;parallel;500;636;200;2;8;3.647297325;True;X;2;a;0;413;8;1;416;805;1663;2292
vs12;benlakhal;1;0;13Dec2010;1426;parallel;500;690;200;2;9;3.523319321;True;X;4;z;1;213;9;3;412;1463;1063;2479
vs12;benlakhal;1;0;13Dec2010;1426;parallel;500;524;200;2;10;0.424566311;True;X;4;z;1;357;9;3;422;1520;920;2206
vs12;benlakhal;1;0;13Dec2010;1426;parallel;500;508;200;2;11;2.010579267;False;X;12;a;1;295;8;10;373;2279;935;3237
vs12;benlakhal;1;0;13Dec2010;1426;parallel;500;506;200;2;12;4.909574574;False;X;8;a;1;413;10;5;340;1349;720;2221
vs12;benlakhal;1;0;13Dec2010;1426;parallel;500;471;200;2;13;0.188502212;True;X;8;z;1;385;9;4;411;1163;649;2064
vs12;benlakhal;1;0;13Dec2010;1426;parallel;500;500;200;2;14;1.834851985;False;X;2;a;1;542;9;2;372;1478;806;2136
vs12;benlakhal;1;0;13Dec2010;1426;parallel;500;631;200;2;15;5.563469718;False;X;2;a;1;438;9;1;367;1449;892;3408
vs12;benlakhal;1;0;13Dec2010;1426;parallel;500;447;200;2;16;5.27579739;True;X;2;z;1;428;9;1;381;1606;2164;2975
vs12;benlakhal;1;0;13Dec2010;1426;parallel;500;579;200;2;17;0.582041012;True;X;8;z;1;357;10;5;377;1421;678;2149
vs12;benlakhal;1;0;13Dec2010;1426;parallel;500;626;200;2;18;4.034759411;True;X;12;a;0;485;9;10;386;1406;920;2177
vs12;benlakhal;1;0;13Dec2010;1427;parallel;500;570;200;2;19;5.488560061;False;X;2;z;0;456;9;1;370;877;1762;2434
vs12;benlakhal;1;0;13Dec2010;1427;parallel;500;614;200;2;20;1.28672357;True;X;2;z;1;413;9;1;371;1262;791;2121
vs12;benlakhal;1;0;13Dec2010;1427;parallel;500;630;200;2;21;4.976973774;False;X;8;a;1;328;9;6;345;1078;1563;2306
vs12;benlakhal;1;0;13Dec2010;1427;parallel;500;516;200;2;22;5.836161872;False;X;8;z;0;427;9;6;375;734;1335;1891
vs12;benlakhal;1;0;13Dec2010;1427;parallel;500;474;200;2;23;2.739950626;False;X;8;a;1;572;9;6;356;720;1363;2120
vs12;benlakhal;1;0;13Dec2010;1427;parallel;500;535;200;2;24;1.48292538;False;X;8;a;1;456;9;6;393;1307;749;2035
vs12;benlakhal;1;0;13Dec2010;1427;parallel;500;609;200;2;25;2.837118005;True;X;12;a;0;453;9;8;332;892;1493;2091
vs12;benlakhal;1;0;13Dec2010;1427;parallel;500;689;200;2;26;1.214482614;False;X;4;a;1;442;9;3;365;1650;1006;2408
vs12;benlakhal;1;0;13Dec2010;1427;parallel;500;454;200;2;27;2.248496341;True;X;8;a;0;454;8;7;370;705;1120;1791
vs12;benlakhal;1;0;13Dec2010;1427;parallel;500;634;200;2;28;0.497872612;False;X;12;a;1;499;8;12;385;707;1365;2136
vs12;benlakhal;1;0;13Dec2010;1427;parallel;500;643;200;2;29;4.898276741;True;X;12;z;1;485;9;11;393;733;1434;2076
vs12;benlakhal;1;0;13Dec2010;1427;parallel;500;457;200;2;30;2.320489526;False;X;4;a;1;442;9;3;376;877;1349;2106
vs12;benlakhal;1;0;13Dec2010;1427;parallel;500;509;200;2;31;3.083976601;True;X;4;a;0;542;9;3;428;1128;777;1658
vs12;benlakhal;1;0;13Dec2010;1427;parallel;500;512;200;2;32;2.441229999;True;X;8;z;1;500;9;7;373;2551;1378;3538
vs12;benlakhal;1;0;13Dec2010;1427;parallel;500;700;200;2;33;2.279531475;False;X;2;z;0;400;9;1;357;1062;1619;2219
vs12;benlakhal;1;0;13Dec2010;1427;parallel;500;695;200;2;34;2.505222509;True;X;8;a;0;398;9;7;420;1506;993;3179
vs12;benlakhal;1;0;13Dec2010;1428;parallel;500;683;200;2;35;1.305753364;False;X;4;a;1;712;9;3;361;763;1278;5268
vs12;benlakhal;1;0;13Dec2010;1428;parallel;500;458;200;2;36;2.138278566;False;X;12;a;1;614;9;10;343;1749;791;2535
vs12;benlakhal;1;0;13Dec2010;1428;parallel;500;700;200;2;37;1.222203303;True;X;4;z;1;427;9;3;381;877;1621;2635
vs12;benlakhal;1;0;13Dec2010;1428;parallel;500;562;200;2;38;1.103018352;False;X;2;a;1;451;9;1;360;1363;906;1977
vs12;benlakhal;1;0;13Dec2010;1428;parallel;500;634;200;2;39;0.074798204;False;X;4;a;1;499;9;3;380;1577;1034;5338
vs12;benlakhal;1;0;13Dec2010;1428;parallel;500;414;200;2;40;2.825965349;True;X;2;a;0;443;9;1;337;1764;1135;3394
vs12;benlakhal;1;0;13Dec2010;1428;parallel;500;621;200;3;1;2.209396642;False;X;2;z;0;3560;8;0;360;1431;1988;2460
vs12;benlakhal;1;0;13Dec2010;1428;parallel;500;518;200;3;2;3.605176963;False;X;4;z;0;442;9;0;373;907;1450;2193
vs12;benlakhal;1;0;13Dec2010;1429;parallel;500;475;200;3;3;2.381003464;False;X;12;a;1;413;8;2;345;962;1462;2048
vs12;benlakhal;1;0;13Dec2010;1429;parallel;500;441;200;3;4;3.178930616;True;X;12;a;0;457;9;2;450;835;1435;2121
vs12;benlakhal;1;0;13Dec2010;1429;parallel;500;668;200;3;5;5.981749403;True;X;12;z;1;428;9;2;427;749;1405;1976
vs12;benlakhal;1;0;13Dec2010;1429;parallel;500;542;200;3;6;1.288736867;False;X;4;z;0;470;9;0;417;805;1291;1691
vs12;benlakhal;1;0;13Dec2010;1429;parallel;500;481;200;3;7;0.323092597;True;X;2;z;1;442;9;1;418;577;1234;2690
vs12;benlakhal;1;0;13Dec2010;1429;parallel;500;521;200;3;8;4.068788168;False;X;12;a;1;543;9;3;425;650;1207;1664
vs12;benlakhal;1;0;13Dec2010;1429;parallel;500;513;200;3;9;0.739684453;True;X;8;z;1;299;9;2;506;907;1349;2393
vs12;benlakhal;1;0;13Dec2010;1429;parallel;500;596;200;3;10;2.999313417;True;X;4;a;0;456;8;3;416;792;1421;2937
vs12;benlakhal;1;0;13Dec2010;1429;parallel;500;652;200;3;11;1.04292526;False;X;2;a;1;484;9;2;408;1307;764;2134
vs12;benlakhal;1;0;13Dec2010;1429;parallel;500;562;200;3;12;0.119897674;False;X;12;a;1;456;1;2;402;949;1449;2649
vs12;benlakhal;1;0;13Dec2010;1429;parallel;500;442;200;3;13;1.141164502;False;X;8;a;1;471;8;8;320;1636;1136;2448
vs12;benlakhal;1;0;13Dec2010;1429;parallel;500;603;200;3;14;5.054596533;True;X;4;a;0;527;9;3;375;649;1106;1834
vs12;benlakhal;1;0;13Dec2010;1429;parallel;500;636;200;3;15;5.027063858;True;X;8;z;1;542;9;8;391;749;5005;2016
vs12;benlakhal;1;0;13Dec2010;1429;parallel;500;543;200;3;16;4.371908849;True;X;2;z;1;557;9;1;402;1564;963;2335
vs12;benlakhal;1;0;13Dec2010;1430;parallel;500;613;200;3;17;5.193352367;True;X;2;z;1;427;9;1;346;1878;1135;2993
vs12;benlakhal;1;0;13Dec2010;1430;parallel;500;462;200;3;18;5.322582071;False;X;12;a;1;628;1;7;336;3335;1708;4965
vs12;benlakhal;1;0;13Dec2010;1430;parallel;500;690;200;3;19;1.556174075;False;X;2;a;1;542;9;2;317;1692;1106;2536
vs12;benlakhal;1;0;13Dec2010;1430;parallel;500;513;200;3;20;5.111188646;False;X;8;a;1;571;9;7;356;1292;735;2336
vs12;benlakhal;1;0;13Dec2010;1430;parallel;500;480;200;3;21;3.414421744;True;X;4;z;1;628;9;3;373;905;2493;4320
vs12;benlakhal;1;0;13Dec2010;1430;parallel;500;523;200;3;22;0.167937268;False;X;12;a;1;471;9;9;353;2565;1322;3737
vs12;benlakhal;1;0;13Dec2010;1430;parallel;500;689;200;3;23;1.654589938;False;X;2;z;0;465;9;1;395;1348;791;2006
vs12;benlakhal;1;0;13Dec2010;1430;parallel;500;412;200;3;24;3.119945681;True;X;12;z;1;585;9;9;368;1692;1092;2521
vs12;benlakhal;1;0;13Dec2010;1430;parallel;500;489;200;3;25;0.302881547;True;X;12;z;1;421;9;10;396;1192;706;2021
vs12;benlakhal;1;0;13Dec2010;1430;parallel;500;519;200;3;26;4.633981279;True;X;4;z;1;528;9;2;367;1421;921;3251
vs12;benlakhal;1;0;13Dec2010;1430;parallel;500;419;200;3;27;4.571298885;False;X;2;a;1;471;9;2;367;1449;921;6198
vs12;benlakhal;1;0;13Dec2010;1430;parallel;500;423;200;3;28;4.452704871;False;X;4;z;0;526;9;3;346;1221;821;2150
vs12;benlakhal;1;0;13Dec2010;1430;parallel;500;528;200;3;29;5.362906813;True;X;2;z;1;484;9;1;390;1778;906;2793
vs12;benlakhal;1;0;13Dec2010;1431;parallel;500;667;200;3;30;4.5678265;True;X;8;z;1;557;9;6;335;1706;1106;2407
vs12;benlakhal;1;0;13Dec2010;1431;parallel;500;533;200;3;31;2.805844672;False;X;4;z;0;470;9;3;385;1391;719;2292
vs12;benlakhal;1;0;13Dec2010;1431;parallel;500;622;200;3;32;4.273378123;True;X;2;a;0;443;9;1;381;835;1363;2766
vs12;benlakhal;1;0;13Dec2010;1431;parallel;500;502;200;3;33;3.65750157;False;X;8;a;1;485;9;7;386;1393;735;2278
vs12;benlakhal;1;0;13Dec2010;1431;parallel;500;564;200;3;34;5.453057426;True;X;4;z;1;456;9;3;345;1020;1621;2536
vs12;benlakhal;1;0;13Dec2010;1431;parallel;500;597;200;3;35;6.127349939;False;X;8;a;1;471;9;6;370;2336;692;3263
vs12;benlakhal;1;0;13Dec2010;1431;parallel;500;633;200;3;36;3.055141275;True;X;8;a;0;485;9;7;385;935;1421;2707
vs12;benlakhal;1;0;13Dec2010;1431;parallel;500;700;200;3;37;4.423522811;False;X;8;a;1;641;9;6;355;1303;775;3864
vs12;benlakhal;1;0;13Dec2010;1431;parallel;500;430;200;3;38;1.808978053;True;X;8;z;1;714;9;7;466;1378;706;2206
vs12;benlakhal;1;0;13Dec2010;1431;parallel;500;504;200;3;39;0.337687187;False;X;4;a;1;556;9;4;361;862;1506;2478
vs12;benlakhal;1;0;13Dec2010;1431;parallel;500;655;200;3;40;4.920883925;True;X;12;z;1;643;9;11;423;749;1350;2006
vs12;benlakhal;1;0;13Dec2010;1432;parallel;500;662;200;4;1;5.309847644;False;X;12;a;1;485;9;9;343;1903;1160;2846
vs12;benlakhal;1;0;13Dec2010;1432;parallel;500;678;200;4;2;2.664146169;False;X;12;a;1;500;9;10;370;1377;749;2435
vs12;benlakhal;1;0;13Dec2010;1432;parallel;500;470;200;4;3;5.389118397;True;X;8;z;1;599;2;7;386;2122;750;3094
vs12;benlakhal;1;0;13Dec2010;1432;parallel;500;430;200;4;4;4.833799944;False;X;8;a;1;398;9;5;370;1620;920;2607
vs12;benlakhal;1;0;13Dec2010;1432;parallel;500;545;200;4;5;2.973545119;False;X;2;z;0;457;10;1;360;1364;920;2236
vs12;benlakhal;1;0;13Dec2010;1432;parallel;500;468;200;4;6;3.880374672;True;X;2;a;0;442;9;1;380;1134;734;1934
vs12;benlakhal;1;0;13Dec2010;1432;parallel;500;446;200;4;7;3.414989766;True;X;12;a;0;465;9;11;372;1863;1378;2692
vs12;benlakhal;1;0;13Dec2010;1432;parallel;500;601;200;4;8;2.963149918;False;X;2;z;0;542;9;1;390;1405;848;2306
vs12;benlakhal;1;0;13Dec2010;1432;parallel;500;522;200;4;9;1.548798669;True;X;4;z;1;712;9;3;340;1365;907;2651
vs12;benlakhal;1;0;13Dec2010;1433;parallel;500;465;200;4;10;4.664494732;True;X;8;z;1;413;9;6;378;1462;805;2478
vs12;benlakhal;1;0;13Dec2010;1433;parallel;500;478;200;4;11;3.697118275;True;X;4;z;1;514;1;2;381;2809;2208;3709
vs12;benlakhal;1;0;13Dec2010;1433;parallel;500;448;200;4;12;2.769572667;False;X;4;a;1;384;9;3;333;1816;1249;2530
vs12;benlakhal;1;0;13Dec2010;1433;parallel;500;608;200;4;13;1.129643271;False;X;8;z;0;514;8;6;325;1092;663;2163
vs12;benlakhal;1;0;13Dec2010;1433;parallel;500;461;200;4;14;1.321378472;False;X;2;a;1;713;9;1;356;1501;963;3160
vs12;benlakhal;1;0;13Dec2010;1433;parallel;500;430;200;4;15;1.64648333;False;X;4;z;0;499;8;3;366;2365;1650;3251
vs12;benlakhal;1;0;13Dec2010;1433;parallel;500;632;200;4;16;5.656242784;False;X;12;a;1;466;8;11;368;1264;721;2293
vs12;benlakhal;1;0;13Dec2010;1433;parallel;500;574;200;4;17;5.10947478;True;X;2;z;1;399;9;1;330;1306;777;2164
vs12;benlakhal;1;0;13Dec2010;1433;parallel;500;478;200;4;18;0.210911998;True;X;4;z;1;427;9;3;398;1430;730;2288
vs12;benlakhal;1;0;13Dec2010;1433;parallel;500;600;200;4;19;4.486254594;False;X;4;a;1;557;9;3;372;1335;691;2121
vs12;benlakhal;1;0;13Dec2010;1433;parallel;500;412;200;4;20;5.811759238;True;X;12;z;1;542;9;10;376;1347;647;2262
vs12;benlakhal;1;0;13Dec2010;1433;parallel;500;412;200;4;21;4.046612156;True;X;12;a;0;499;9;9;387;1205;691;1948
vs12;benlakhal;1;0;13Dec2010;1433;parallel;500;485;200;4;22;3.479398171;False;X;4;a;1;485;9;3;363;1158;591;1772
vs12;benlakhal;1;0;13Dec2010;1433;parallel;500;682;200;4;23;4.726644986;False;X;12;a;1;585;9;10;353;1320;549;2607
vs12;benlakhal;1;0;13Dec2010;1434;parallel;500;635;200;4;24;4.782936977;True;X;12;z;1;372;9;2;375;735;1976;2504
vs12;benlakhal;1;0;13Dec2010;1434;parallel;500;658;200;4;25;2.537379028;False;X;8;a;1;456;5;3;390;1578;820;5680
vs12;benlakhal;1;0;13Dec2010;1434;parallel;500;611;200;4;26;1.714768003;True;X;2;z;1;528;9;1;383;1578;963;2407
vs12;benlakhal;1;0;13Dec2010;1434;parallel;500;693;200;4;27;0.568624983;True;X;2;z;1;400;9;1;353;1289;849;2032
vs12;benlakhal;1;0;13Dec2010;1434;parallel;500;491;200;4;28;4.657693442;True;X;4;z;1;413;9;3;405;1306;748;2378
vs12;benlakhal;1;0;13Dec2010;1434;parallel;500;529;200;4;29;3.877744004;False;X;8;a;1;456;9;6;381;1148;634;1874
vs12;benlakhal;1;0;13Dec2010;1434;parallel;500;516;200;4;30;0.178519298;False;X;12;a;1;556;1;4;368;2021;1222;2679
vs12;benlakhal;1;0;13Dec2010;1434;parallel;500;524;200;4;31;4.862385861;False;X;2;a;1;585;1;1;323;2546;920;3475
vs12;benlakhal;1;0;13Dec2010;1434;parallel;500;474;200;4;32;3.335063028;True;X;2;z;1;642;9;1;337;1635;1092;2421
vs12;benlakhal;1;0;13Dec2010;1434;parallel;500;573;200;4;33;6.232373224;True;X;8;z;1;484;9;7;362;1245;660;2147
vs12;benlakhal;1;0;13Dec2010;1434;parallel;500;424;200;4;34;1.936415998;False;X;4;a;1;642;9;3;347;1577;978;5151
vs12;benlakhal;1;0;13Dec2010;1434;parallel;500;562;200;4;35;3.530725623;True;X;8;a;0;442;1;7;386;2278;892;2821
vs12;benlakhal;1;0;13Dec2010;1434;parallel;500;610;200;4;36;0.696441406;False;X;8;z;0;528;1;6;387;1634;880;2806
vs12;benlakhal;1;0;13Dec2010;1434;parallel;500;401;200;4;37;1.093865786;True;X;8;z;1;413;9;6;407;1105;663;2148
vs12;benlakhal;1;0;13Dec2010;1435;parallel;500;415;200;4;38;1.157004028;True;X;4;z;1;557;8;3;426;1087;591;2002
vs12;benlakhal;1;0;13Dec2010;1435;parallel;500;457;200;4;39;4.903826509;False;X;2;a;1;512;9;1;295;1520;920;2993
vs12;benlakhal;1;0;13Dec2010;1435;parallel;500;489;200;4;40;3.217772151;True;X;12;z;1;585;9;10;362;1348;762;2391
vs12;benlakhal;1;0;13Dec2010;1435;parallel;500;617;200;5;1;4.915680147;False;X;12;a;1;641;1;8;331;1776;804;2648
vs12;benlakhal;1;0;13Dec2010;1435;parallel;500;580;200;5;2;5.754081726;False;X;8;a;1;527;8;6;280;1292;678;1921
vs12;benlakhal;1;0;13Dec2010;1435;parallel;500;419;200;5;3;2.619532722;True;X;8;z;1;556;8;6;335;1101;616;1916
vs12;benlakhal;1;0;13Dec2010;1435;parallel;500;561;200;5;4;2.811533221;True;X;8;z;1;529;8;7;340;1449;835;2221
vs12;benlakhal;1;0;13Dec2010;1435;parallel;500;586;200;5;5;2.913748716;False;X;12;a;1;643;9;9;353;1019;535;1962
vs12;benlakhal;1;0;13Dec2010;1436;parallel;500;422;200;5;6;3.856827473;True;X;2;z;1;641;9;1;357;1334;863;2049
vs12;benlakhal;1;0;13Dec2010;1436;parallel;500;614;200;5;7;0.864101387;True;X;8;z;1;385;9;6;312;1747;1135;3235
vs12;benlakhal;1;0;13Dec2010;1436;parallel;500;510;200;5;8;3.711396587;False;X;12;a;1;542;9;9;363;1248;649;2078
vs12;benlakhal;1;0;13Dec2010;1436;parallel;500;590;200;5;9;2.63197014;False;X;2;a;1;614;9;1;323;1230;730;1902
vs12;benlakhal;1;0;13Dec2010;1436;parallel;500;524;200;5;10;0.215781586;True;X;12;z;1;485;9;10;332;1249;749;2622
vs12;benlakhal;1;0;13Dec2010;1436;parallel;500;444;200;5;11;2.014323995;True;X;2;z;1;572;9;1;365;1490;706;6525
vs12;benlakhal;1;0;13Dec2010;1436;parallel;500;543;200;5;12;4.571812203;True;X;2;z;1;471;9;2;381;1403;932;2204
vs12;benlakhal;1;0;13Dec2010;1436;parallel;500;424;200;5;13;3.531942634;False;X;2;a;1;499;9;1;335;1335;777;2121
vs12;benlakhal;1;0;13Dec2010;1436;parallel;500;501;200;5;14;1.138416078;False;X;4;a;1;528;9;3;336;1302;692;2102
vs12;benlakhal;1;0;13Dec2010;1436;parallel;500;588;200;5;15;2.869683267;True;X;8;z;1;657;9;7;397;1792;1092;2679
vs12;benlakhal;1;0;13Dec2010;1436;parallel;500;446;200;5;16;4.194370639;False;X;4;a;1;555;9;4;381;1246;605;1918
vs12;benlakhal;1;0;13Dec2010;1436;parallel;500;567;200;5;17;6.228141269;True;X;8;z;1;456;8;7;332;1034;577;1893
vs12;benlakhal;1;0;13Dec2010;1436;parallel;500;453;200;5;18;4.814191433;False;X;2;z;0;442;1;1;350;1663;748;2662
vs12;benlakhal;1;0;13Dec2010;1436;parallel;500;427;200;5;19;0.25590833;False;X;2;a;1;599;8;1;332;1264;763;1978
vs12;benlakhal;1;0;13Dec2010;1436;parallel;500;470;200;5;20;1.4122146;False;X;8;a;1;542;8;7;355;1005;562;1801
vs12;benlakhal;1;0;13Dec2010;1437;parallel;500;592;200;5;21;0.645952271;True;X;12;z;1;427;9;11;375;1034;606;1891
vs12;benlakhal;1;0;13Dec2010;1437;parallel;500;515;200;5;22;0.438839465;True;X;4;z;1;442;9;3;391;920;492;1606
vs12;benlakhal;1;0;13Dec2010;1437;parallel;500;468;200;5;23;4.241207257;True;X;2;z;1;624;9;1;376;962;520;1677
vs12;benlakhal;1;0;13Dec2010;1437;parallel;500;557;200;5;24;0.55843229;False;X;2;a;1;556;9;1;352;1135;592;2050
vs12;benlakhal;1;0;13Dec2010;1437;parallel;500;596;200;5;25;2.355475542;False;X;12;a;1;599;9;11;311;1061;604;1790
vs12;benlakhal;1;0;13Dec2010;1437;parallel;500;562;200;5;26;2.138246551;False;X;4;a;1;542;9;3;361;1249;777;2106
vs12;benlakhal;1;0;13Dec2010;1437;parallel;500;452;200;5;27;5.54152103;False;X;4;a;1;528;8;3;362;962;534;1889
vs12;benlakhal;1;0;13Dec2010;1437;parallel;500;586;200;5;28;5.442102822;True;X;4;z;1;527;9;3;373;1650;607;2480
vs12;benlakhal;1;0;13Dec2010;1437;parallel;500;584;200;5;29;3.774782385;True;X;4;a;0;441;2;3;357;1502;577;2231
vs12;benlakhal;1;0;13Dec2010;1437;parallel;500;412;200;5;30;3.726531258;False;X;8;a;1;500;9;7;380;1264;635;2192
vs12;benlakhal;1;0;13Dec2010;1437;parallel;500;467;200;5;31;5.09447679;True;X;2;z;1;456;9;1;391;2232;776;3391
vs12;benlakhal;1;0;13Dec2010;1437;parallel;500;602;200;5;32;3.503891889;True;X;4;z;1;613;9;3;347;2150;606;2893
vs12;benlakhal;1;0;13Dec2010;1437;parallel;500;485;200;5;33;3.366315196;False;X;8;a;1;555;8;7;361;1063;605;2407
vs12;benlakhal;1;0;13Dec2010;1437;parallel;500;434;200;5;34;5.569409538;False;X;8;a;1;542;9;7;383;1062;476;1906
vs12;benlakhal;1;0;13Dec2010;1437;parallel;500;589;200;5;35;5.827052906;True;X;12;a;0;557;9;11;370;1486;815;2272
vs12;benlakhal;1;0;13Dec2010;1437;parallel;500;530;200;5;36;1.25096507;True;X;12;z;1;557;8;10;353;1121;564;2050
vs12;benlakhal;1;0;13Dec2010;1438;parallel;500;640;200;5;37;1.998489158;False;X;12;a;1;486;7;9;361;903;419;1962
vs12;benlakhal;1;0;13Dec2010;1438;parallel;500;429;200;5;38;3.13935702;True;X;4;z;1;585;9;3;333;1133;519;2693
vs12;benlakhal;1;0;13Dec2010;1438;parallel;500;622;200;5;39;2.811500146;True;X;12;z;1;470;9;11;377;1204;575;1961
vs12;benlakhal;1;0;13Dec2010;1438;parallel;500;425;200;5;40;2.815149807;False;X;4;z;0;514;8;3;396;1291;533;2049
vs12;benlakhal;2;None;20Dec2010;1326;pTMix;500;535;200;1;1;3.070874253;True;X;12;z;1;2011;None;None;None;None;None;None
vs12;benlakhal;2;None;20Dec2010;1326;pTMix;500;483;200;1;2;5.95792763;False;L;12;a;1;2016;None;None;None;None;None;None
vs12;benlakhal;2;None;20Dec2010;1326;pTMix;500;684;200;1;3;4.852082198;False;X;2;a;1;2016;None;None;None;None;None;None
vs12;benlakhal;2;None;20Dec2010;1326;pTMix;500;490;200;1;4;3.933611899;True;X;4;z;1;2014;None;None;None;None;None;None
vs12;benlakhal;2;None;20Dec2010;1326;pTMix;500;413;200;1;5;5.464288488;True;X;12;z;1;2015;None;None;None;None;None;None
vs12;benlakhal;2;None;20Dec2010;1326;pTMix;500;507;200;1;6;0.874685626;True;X;8;z;1;2014;None;None;None;None;None;None
vs12;benlakhal;2;None;20Dec2010;1326;pTMix;500;564;200;1;7;5.022736679;False;X;12;a;1;2016;None;None;None;None;None;None
vs12;benlakhal;2;None;20Dec2010;1326;pTMix;500;578;200;1;8;4.369044048;False;L;8;a;1;2016;None;None;None;None;None;None
vs12;benlakhal;2;None;20Dec2010;1326;pTMix;500;567;200;1;9;2.64374729;True;X;4;z;1;2011;None;None;None;None;None;None
vs12;benlakhal;2;None;20Dec2010;1326;pTMix;500;689;200;1;10;5.784467166;True;L;2;a;0;2016;None;None;None;None;None;None
vs12;benlakhal;2;None;20Dec2010;1326;pTMix;500;643;200;1;11;0.529287205;False;L;4;a;1;2025;None;None;None;None;None;None
vs12;benlakhal;2;None;20Dec2010;1326;pTMix;500;535;200;1;12;1.575708261;False;L;8;a;1;2015;None;None;None;None;None;None
vs12;benlakhal;2;None;20Dec2010;1326;pTMix;500;622;200;1;13;0.054526864;True;L;4;z;1;2017;None;None;None;None;None;None
vs12;benlakhal;2;None;20Dec2010;1327;pTMix;500;577;200;1;14;3.678250196;True;L;8;z;1;2024;None;None;None;None;None;None
vs12;benlakhal;2;None;20Dec2010;1327;pTMix;500;627;200;1;15;5.466914235;True;L;12;z;1;2017;None;None;None;None;None;None
vs12;benlakhal;2;None;20Dec2010;1327;pTMix;500;673;200;1;16;3.818375906;True;X;8;z;1;2014;None;None;None;None;None;None
vs12;benlakhal;2;None;20Dec2010;1327;pTMix;500;595;200;1;17;5.869278961;False;X;4;a;1;2017;None;None;None;None;None;None
vs12;benlakhal;2;None;20Dec2010;1327;pTMix;500;548;200;1;18;5.192707282;False;X;8;a;1;2015;None;None;None;None;None;None
vs12;benlakhal;2;None;20Dec2010;1327;pTMix;500;523;200;1;19;3.313243768;True;X;2;z;1;2013;None;None;None;None;None;None
vs12;benlakhal;2;None;20Dec2010;1327;pTMix;500;487;200;1;20;2.361440394;True;L;4;z;1;2016;None;None;None;None;None;None
vs12;benlakhal;2;None;20Dec2010;1327;pTMix;500;440;200;1;21;5.102544583;False;X;2;a;1;2016;None;None;None;None;None;None
vs12;benlakhal;2;None;20Dec2010;1327;pTMix;500;620;200;1;22;3.6299276;False;L;12;a;1;2015;None;None;None;None;None;None
vs12;benlakhal;2;None;20Dec2010;1327;pTMix;500;513;200;1;23;1.593290111;False;X;8;a;1;2015;None;None;None;None;None;None
vs12;benlakhal;2;None;20Dec2010;1327;pTMix;500;655;200;1;24;2.73158852;True;L;8;z;1;2025;None;None;None;None;None;None
vs12;benlakhal;2;None;20Dec2010;1327;pTMix;500;678;200;1;25;6.143539563;False;X;4;a;1;2015;None;None;None;None;None;None
vs12;benlakhal;2;None;20Dec2010;1327;pTMix;500;454;200;1;26;4.381475601;False;X;12;a;1;2016;None;None;None;None;None;None
vs12;benlakhal;2;None;20Dec2010;1327;pTMix;500;514;200;1;27;1.988243541;True;L;2;z;1;2015;None;None;None;None;None;None
vs12;benlakhal;2;None;20Dec2010;1327;pTMix;500;499;200;1;28;3.57665475;True;X;2;z;1;2016;None;None;None;None;None;None
vs12;benlakhal;2;None;20Dec2010;1327;pTMix;500;614;200;1;29;3.606888454;False;L;4;a;1;2014;None;None;None;None;None;None
vs12;benlakhal;2;None;20Dec2010;1327;pTMix;500;537;200;1;30;0.777288675;False;L;2;a;1;2016;None;None;None;None;None;None
vs12;benlakhal;2;None;20Dec2010;1327;pTMix;500;505;200;1;31;3.585180105;True;L;12;z;1;2015;None;None;None;None;None;None
vs12;benlakhal;2;None;20Dec2010;1327;pTMix;500;655;200;1;32;1.815232866;False;L;2;a;1;2016;None;None;None;None;None;None
vs12;benlakhal;2;None;20Dec2010;1328;tMix;500;679;200;1;1;6.131078659;True;X;4;z;1;686;9;1.944;381;8469;13744;16032
vs12;benlakhal;2;None;20Dec2010;1328;tMix;500;500;200;1;2;1.883303914;True;X;12;z;1;557;9;4.284;502;1917;4807;6693
vs12;benlakhal;2;None;20Dec2010;1328;tMix;500;481;200;1;3;5.460040787;True;X;2;z;1;413;7;0.426;433;6657;4140;8156
vs12;benlakhal;2;None;20Dec2010;1328;tMix;500;594;200;1;4;5.74179645;True;L;12;a;0;499;9;3.588;543;2939;4496;5196
vs12;benlakhal;2;None;20Dec2010;1328;tMix;500;549;200;1;5;0.504800105;False;L;8;z;0;556;1;2.848;411;2380;4124;5367
vs12;benlakhal;2;None;20Dec2010;1329;tMix;500;512;200;1;6;4.51921804;False;X;4;z;0;613;9;1.652;440;1321;3338;4277
vs12;benlakhal;2;None;20Dec2010;1329;tMix;500;548;200;1;7;3.025850306;False;L;2;a;1;570;9;0.74;433;2866;4725;5782
vs12;benlakhal;2;None;20Dec2010;1329;tMix;500;468;200;1;8;2.358753012;False;L;12;z;0;499;9;3.588;387;1150;3810;5979
vs12;benlakhal;2;None;20Dec2010;1329;tMix;500;497;200;1;9;5.585764795;True;L;4;z;1;471;10;1.084;411;4909;2938;6182
vs12;benlakhal;2;None;20Dec2010;1329;tMix;500;669;200;1;10;4.012652216;True;L;2;a;0;485;10;0.57;425;3034;2036;4092
vs12;benlakhal;2;None;20Dec2010;1329;tMix;500;473;200;1;11;0.080462554;True;L;4;z;1;398;9;0.792;431;3495;2551;4578
vs12;benlakhal;2;None;20Dec2010;1329;tMix;500;551;200;1;12;1.471716089;True;X;12;z;1;643;9;5.316;396;4225;2523;5423
vs12;benlakhal;2;None;20Dec2010;1329;tMix;500;470;200;1;13;0.920689664;True;L;12;z;1;413;9;2.556;417;3925;1522;4977
vs12;benlakhal;2;None;20Dec2010;1330;tMix;500;526;200;1;14;3.394304146;True;L;8;z;1;485;9;2.28;340;3539;1837;5151
vs12;benlakhal;2;None;20Dec2010;1330;tMix;500;487;200;1;15;4.882040479;True;X;8;z;1;385;10;1.48;442;2380;3910;5551
vs12;benlakhal;2;None;20Dec2010;1330;tMix;500;622;200;1;16;1.410034863;False;X;8;z;0;513;2;2.504;410;2365;4909;5966
vs12;benlakhal;2;None;20Dec2010;1330;tMix;500;561;200;1;17;0.986285645;True;L;2;z;1;570;10;0.74;430;4051;2379;5352
vs12;benlakhal;2;None;20Dec2010;1330;tMix;500;524;200;1;18;3.939718086;True;X;8;z;1;499;9;2.392;371;3181;1750;4536
vs12;benlakhal;2;None;20Dec2010;1330;tMix;500;486;200;1;19;1.157290505;False;X;4;z;0;442;1;0.968;395;3637;2136;5065
vs12;benlakhal;2;None;20Dec2010;1330;tMix;500;508;200;1;20;3.293132265;True;X;4;a;0;499;10;1.196;456;2794;1879;3694
vs12;benlakhal;2;None;20Dec2010;1330;tMix;500;400;200;1;21;1.431371383;False;X;12;z;0;600;9;4.8;378;3209;1966;4467
vs12;benlakhal;2;None;20Dec2010;1331;tMix;500;499;200;1;22;2.763373186;False;L;4;z;0;652;4;1.808;416;5412;1965;8639
vs12;benlakhal;2;None;20Dec2010;1331;tMix;500;628;200;1;23;1.196571009;False;X;2;a;1;786;4;1.172;602;7968;2008;10428
vs12;benlakhal;2;None;20Dec2010;1331;tMix;500;589;200;1;24;0.685423738;False;X;8;z;0;570;0;2.96;425;3766;2350;5024
vs12;benlakhal;2;None;20Dec2010;1331;tMix;500;573;200;1;25;3.096382626;True;X;2;z;1;671;10;0.942;603;2207;1264;3422
vs12;benlakhal;2;None;20Dec2010;1331;tMix;500;535;200;1;26;4.853404082;False;L;12;a;1;725;5;6.3;375;7086;2753;7868
vs12;benlakhal;2;None;20Dec2010;1332;tMix;500;431;200;1;27;2.919504083;True;L;8;z;1;642;4;3.536;461;3024;25401;27545
vs12;benlakhal;2;None;20Dec2010;1332;tMix;500;485;200;1;28;1.982519803;False;X;2;a;1;657;9;0.914;440;2794;1894;3780
vs12;benlakhal;2;None;20Dec2010;1332;tMix;500;440;200;1;29;0.254630737;False;L;8;z;0;722;9;4.176;411;3652;2580;4609
vs12;benlakhal;2;None;20Dec2010;1332;tMix;500;652;200;1;30;0.556634593;False;X;12;a;1;610;1;4.92;507;4196;1980;5541
vs12;benlakhal;2;None;20Dec2010;1332;tMix;500;625;200;1;31;6.045014394;False;L;2;a;1;528;10;0.656;522;2050;1249;3037
vs12;benlakhal;2;None;20Dec2010;1332;tMix;500;480;200;1;32;4.779354666;False;L;4;z;0;1458;0;5.032;416;2377;3779;4750
vs12;benlakhal;2;None;20Dec2010;1333;mixed;500;683;200;1;1;0.560264717;True;L;8;a;0;643;0;4;562;3922;2420;5494
vs12;benlakhal;2;None;20Dec2010;1333;mixed;500;418;200;1;2;6.270174936;True;L;4;z;1;484;9;0;471;3950;2867;5366
vs12;benlakhal;2;None;20Dec2010;1333;mixed;500;626;200;1;3;4.404181563;True;X;2;z;1;613;9;2;491;2021;1392;3080
vs12;benlakhal;2;None;20Dec2010;1333;mixed;500;532;200;1;4;2.380047506;False;X;12;z;0;527;9;4;447;2780;1866;3837
vs12;benlakhal;2;None;20Dec2010;1333;mixed;500;677;200;1;5;0.890023911;True;X;8;z;1;486;9;7;431;2362;1264;3549
vs12;benlakhal;2;None;20Dec2010;1333;mixed;500;585;200;1;6;3.886609818;False;L;4;z;0;685;1;1;511;6293;3921;4850
vs12;benlakhal;2;None;20Dec2010;1334;mixed;500;583;200;1;7;6.155920144;True;L;12;a;0;785;9;5;446;18124;1565;19251
vs12;benlakhal;2;None;20Dec2010;1334;mixed;500;624;200;1;8;2.394342251;True;L;2;a;0;743;0;1;473;3395;2309;4052
vs12;benlakhal;2;None;20Dec2010;1334;mixed;500;655;200;1;9;2.710716258;True;L;12;z;1;514;3;2;436;3607;1663;4308
vs12;benlakhal;2;None;20Dec2010;1334;mixed;500;610;200;1;10;2.961978842;False;X;8;z;0;657;2;1;438;2987;1222;3931
vs12;benlakhal;2;None;20Dec2010;1334;mixed;500;507;200;1;11;2.146837172;False;L;2;a;1;600;9;1;427;1993;1264;2708
vs12;benlakhal;2;None;20Dec2010;1334;mixed;500;407;200;1;12;2.275196217;True;X;4;z;1;668;9;3;515;2379;1250;3438
vs12;benlakhal;2;None;20Dec2010;1334;mixed;500;456;200;1;13;0.512833588;False;X;4;a;1;757;1;4;458;4049;2633;4864
vs12;benlakhal;2;None;20Dec2010;1334;mixed;500;440;200;1;14;2.631667799;False;X;2;a;1;556;9;0;491;3481;2179;4420
vs12;benlakhal;2;None;20Dec2010;1334;mixed;500;537;200;1;15;1.550228709;False;L;8;z;0;600;9;1;507;3339;5012;5682
vs12;benlakhal;2;None;20Dec2010;1334;mixed;500;472;200;1;16;3.875430711;False;L;12;z;0;742;9;4;372;3166;1779;4195
vs12;benlakhal;2;None;20Dec2010;1335;mixed;500;479;200;1;17;2.216150523;False;X;2;a;1;607;9;1;398;2608;3495;4997
vs12;benlakhal;2;None;20Dec2010;1335;mixed;500;627;200;1;18;1.223421653;False;L;12;a;1;714;8;5;402;2862;1962;3748
vs12;benlakhal;2;None;20Dec2010;1335;mixed;500;574;200;1;19;1.503415405;True;X;4;z;1;628;9;4;477;5710;4609;10803
vs12;benlakhal;2;None;20Dec2010;1335;mixed;500;575;200;1;20;0.944677165;False;L;4;z;0;671;9;3;481;2037;5384;10687
vs12;benlakhal;2;None;20Dec2010;1335;mixed;500;477;200;1;21;3.437106987;False;X;12;z;0;499;9;4;456;2906;4163;5293
vs12;benlakhal;2;None;20Dec2010;1335;mixed;500;456;200;1;22;4.016342723;True;X;2;z;1;613;10;1;457;1434;2335;3147
vs12;benlakhal;2;None;20Dec2010;1335;mixed;500;419;200;1;23;5.104875439;True;X;12;z;1;471;9;3;491;1050;1851;3137
vs12;benlakhal;2;None;20Dec2010;1335;mixed;500;690;200;1;24;4.819469246;False;X;4;a;1;585;9;2;442;1360;2647;3748
vs12;benlakhal;2;None;20Dec2010;1335;mixed;500;572;200;1;25;0.950101967;False;X;12;z;0;499;9;3;505;1837;2780;3575
vs12;benlakhal;2;None;20Dec2010;1336;mixed;500;642;200;1;26;5.431378571;False;L;12;z;0;557;1;2;600;3067;5084;6883
vs12;benlakhal;2;None;20Dec2010;1336;mixed;500;471;200;1;27;3.567884409;True;L;4;z;1;699;10;2;475;3409;1879;5322
vs12;benlakhal;2;None;20Dec2010;1336;mixed;500;403;200;1;28;4.060036716;False;X;2;a;1;799;9;2;551;1879;3137;4180
vs12;benlakhal;2;None;20Dec2010;1336;mixed;500;686;200;1;29;4.193812088;False;L;8;z;0;624;1;2;366;3524;4668;10589
vs12;benlakhal;2;None;20Dec2010;1336;mixed;500;458;200;1;30;3.25250292;False;X;8;z;0;542;9;4;486;4393;3281;5280
vs12;benlakhal;2;None;20Dec2010;1336;mixed;500;609;200;1;31;3.410182398;False;L;2;a;1;729;9;2;576;1864;977;2908
vs12;benlakhal;2;None;20Dec2010;1336;mixed;500;471;200;1;32;1.295928439;True;X;2;z;1;667;9;1;500;2107;1306;3021
vs12;benlakhal;2;None;20Dec2010;1336;mixed;500;558;200;1;33;4.729744695;False;L;8;z;0;857;9;4;518;2361;1593;3461
vs12;benlakhal;2;None;20Dec2010;1336;mixed;500;501;200;1;34;3.575349387;True;X;12;z;1;613;9;0;476;2995;1995;3910
vs12;benlakhal;2;None;20Dec2010;1337;mixed;500;571;200;1;35;2.131080042;True;X;8;z;1;506;9;1;396;2551;1436;3351
vs12;benlakhal;2;None;20Dec2010;1337;mixed;500;524;200;1;36;1.188019564;True;L;8;z;1;628;9;2;502;2250;1192;3405
vs12;benlakhal;2;None;20Dec2010;1337;mixed;500;403;200;1;37;3.232368357;True;X;8;z;1;514;9;2;447;3223;1450;4539
vs12;benlakhal;2;None;20Dec2010;1337;mixed;500;630;200;1;38;4.410786722;False;X;4;a;1;686;9;2;443;1993;2895;3595
vs12;benlakhal;2;None;20Dec2010;1337;mixed;500;409;200;1;39;5.698288518;True;X;4;z;1;513;9;3;501;1535;977;3234
vs12;benlakhal;2;None;20Dec2010;1337;mixed;500;529;200;1;40;1.193137105;True;L;12;z;1;785;10;6;491;5637;4651;6724
vs12;benlakhal;2;None;20Dec2010;1337;mixed;500;698;200;1;41;2.837085653;True;L;2;z;1;656;9;1;500;2364;1234;3649
vs12;benlakhal;2;None;20Dec2010;1337;mixed;500;492;200;1;42;0.655865952;True;L;4;z;1;442;9;2;636;5198;3968;6582
vs12;benlakhal;2;None;20Dec2010;1337;mixed;500;597;200;1;43;5.056315565;False;X;8;z;0;528;9;1;462;2738;1407;3852
vs12;benlakhal;2;None;20Dec2010;1337;mixed;500;552;200;1;44;2.31286985;True;L;2;z;1;514;10;1;540;2390;1346;4064
vs12;benlakhal;2;None;20Dec2010;1338;mixed;500;635;200;1;45;4.687874307;False;L;4;z;0;900;1;1;515;4006;1950;5408
vs12;benlakhal;2;None;20Dec2010;1338;mixed;500;537;200;1;46;2.985930006;True;X;12;z;1;1215;9;2;470;3392;6095;6852
vs12;benlakhal;2;None;20Dec2010;1338;mixed;500;626;200;1;47;5.717499728;False;L;2;a;1;642;1;1;500;5880;4135;7697
vs12;benlakhal;2;None;20Dec2010;1338;mixed;500;490;200;1;48;3.157352297;True;L;8;z;1;669;9;1;461;4267;2838;7639
vs12;benlakhal;2;None;20Dec2010;1340;mixed;500;465;200;2;1;2.428869066;False;X;2;a;1;743;9;1;517;2574;1502;3503
vs12;benlakhal;2;None;20Dec2010;1340;mixed;500;582;200;2;2;4.010779247;True;L;8;z;1;857;9;2;518;3522;2309;5409
vs12;benlakhal;2;None;20Dec2010;1340;mixed;500;446;200;2;3;4.145274437;False;X;2;a;1;671;9;1;422;2207;1464;2993
vs12;benlakhal;2;None;20Dec2010;1340;mixed;500;640;200;2;4;1.374082022;True;X;8;z;1;585;9;2;530;2265;1407;3095
vs12;benlakhal;2;None;20Dec2010;1340;mixed;500;678;200;2;5;3.379761681;True;X;12;z;1;600;9;1;503;2205;1291;3234
vs12;benlakhal;2;None;20Dec2010;1341;mixed;500;544;200;2;6;2.439043635;False;L;12;z;0;928;2;0;378;1851;4265;5666
vs12;benlakhal;2;None;20Dec2010;1341;mixed;500;448;200;2;7;1.357397992;False;L;12;z;0;656;9;5;460;2021;1164;2907
vs12;benlakhal;2;None;20Dec2010;1341;mixed;500;448;200;2;8;2.208184435;True;X;4;z;1;610;9;4;547;1335;6628;8424
vs12;benlakhal;2;None;20Dec2010;1341;mixed;500;529;200;2;9;5.753933967;True;L;2;z;1;585;10;2;658;2708;2008;3480
vs12;benlakhal;2;None;20Dec2010;1341;mixed;500;592;200;2;10;1.887722789;False;X;12;z;0;713;9;5;522;1945;1360;2946
vs12;benlakhal;2;None;20Dec2010;1341;mixed;500;475;200;2;11;1.68794598;False;L;4;a;1;785;9;3;511;1836;1035;2964
vs12;benlakhal;2;None;20Dec2010;1341;mixed;500;624;200;2;12;2.112161197;False;X;2;a;1;643;9;2;531;2422;1636;3494
vs12;benlakhal;2;None;20Dec2010;1341;mixed;500;555;200;2;13;4.475669034;True;X;2;z;1;615;9;1;621;2220;1376;3349
vs12;benlakhal;2;None;20Dec2010;1341;mixed;500;563;200;2;14;0.018633355;False;L;12;z;0;728;10;2;523;2866;1794;3647
vs12;benlakhal;2;None;20Dec2010;1341;mixed;500;560;200;2;15;4.233371586;True;L;12;z;1;585;4;3;496;3338;1523;4711
vs12;benlakhal;2;None;20Dec2010;1342;mixed;500;529;200;2;16;3.142856921;True;X;12;z;1;570;9;0;460;3095;1865;3909
vs12;benlakhal;2;None;20Dec2010;1342;mixed;500;594;200;2;17;3.051062008;False;L;4;a;1;628;1;2;441;3019;2377;3792
vs12;benlakhal;2;None;20Dec2010;1342;mixed;500;415;200;2;18;5.636752124;False;X;8;a;1;714;3;2;462;2008;2608;3881
vs12;benlakhal;2;None;20Dec2010;1342;mixed;500;413;200;2;19;3.775107767;True;L;4;z;1;514;9;1;452;2922;1364;5411
vs12;benlakhal;2;None;20Dec2010;1342;mixed;500;688;200;2;20;2.581622667;True;L;4;z;1;798;10;2;430;2336;1221;3322
vs12;benlakhal;2;None;20Dec2010;1342;mixed;500;644;200;2;21;5.610968501;True;L;8;z;1;499;9;4;492;2372;1493;3115
vs12;benlakhal;2;None;20Dec2010;1342;mixed;500;462;200;2;22;4.525478986;False;X;4;z;0;499;9;1;496;2392;1392;3780
vs12;benlakhal;2;None;20Dec2010;1342;mixed;500;617;200;2;23;5.511640143;True;X;4;z;1;510;10;2;505;2264;1349;3222
vs12;benlakhal;2;None;20Dec2010;1342;mixed;500;594;200;2;24;5.526295587;True;L;2;z;1;499;9;2;477;2651;1693;6535
vs12;benlakhal;2;None;20Dec2010;1342;mixed;500;498;200;2;25;4.342262091;True;L;12;z;1;471;9;2;508;4809;3924;6054
vs12;benlakhal;2;None;20Dec2010;1343;mixed;500;510;200;2;26;3.130916912;True;X;8;z;1;514;9;1;471;2422;1293;4248
vs12;benlakhal;2;None;20Dec2010;1343;mixed;500;530;200;2;27;4.365281526;True;X;4;z;1;557;10;2;445;2164;1292;2950
vs12;benlakhal;2;None;20Dec2010;1343;mixed;500;616;200;2;28;2.596977175;False;L;2;z;0;582;9;2;505;2452;1365;3352
vs12;benlakhal;2;None;20Dec2010;1343;mixed;500;539;200;2;29;1.695703862;True;L;4;z;1;628;9;2;503;3721;2819;5264
vs12;benlakhal;2;None;20Dec2010;1343;mixed;500;607;200;2;30;0.526009052;False;L;8;z;0;485;10;3;495;2895;1665;4580
vs12;benlakhal;2;None;20Dec2010;1343;mixed;500;672;200;2;31;3.415124391;False;L;2;a;1;742;9;1;497;2065;1336;3366
vs12;benlakhal;2;None;20Dec2010;1343;mixed;500;424;200;2;32;1.601963515;True;X;2;z;1;570;9;1;427;1993;1321;4252
vs12;benlakhal;2;None;20Dec2010;1343;mixed;500;463;200;2;33;3.537512722;False;L;4;a;1;699;1;1;491;1946;3218;4062
vs12;benlakhal;2;None;20Dec2010;1343;mixed;500;410;200;2;34;4.848796459;False;X;8;z;0;727;1;2;501;2379;1808;2922
vs12;benlakhal;2;None;20Dec2010;1343;mixed;500;479;200;2;35;4.850925667;False;L;8;z;0;599;4;2;465;3324;1836;4252
vs12;benlakhal;2;None;20Dec2010;1343;mixed;500;651;200;2;36;1.174770195;False;X;8;z;0;513;4;3;456;2547;3247;4333
vs12;benlakhal;2;None;20Dec2010;1344;mixed;500;684;200;2;37;4.610318336;True;X;2;z;1;585;10;1;418;9416;1235;16518
vs12;benlakhal;2;None;20Dec2010;1344;mixed;500;631;200;2;38;2.378063387;True;L;2;z;1;527;10;1;435;2175;1503;3448
vs12;benlakhal;2;None;20Dec2010;1344;mixed;500;471;200;2;39;3.059178815;False;X;12;z;0;600;9;3;508;1892;1136;3207
vs12;benlakhal;2;None;20Dec2010;1344;mixed;500;574;200;2;40;2.264333437;False;X;12;z;0;499;8;3;431;1749;1035;2664
vs12;benlakhal;2;None;20Dec2010;1344;mixed;500;518;200;2;41;3.764539542;False;X;4;z;0;556;9;1;521;2231;1407;5807
vs12;benlakhal;2;None;20Dec2010;1344;mixed;500;649;200;2;42;4.937419287;True;L;8;z;1;513;9;3;515;5424;4451;6553
vs12;benlakhal;2;None;20Dec2010;1344;mixed;500;624;200;2;43;5.852452689;False;X;4;z;0;486;9;2;505;1192;2030;2846
vs12;benlakhal;2;None;20Dec2010;1345;mixed;500;604;200;2;44;3.047468275;False;L;8;z;0;484;9;3;496;1665;8627;9656
vs12;benlakhal;2;None;20Dec2010;1345;mixed;500;506;200;2;45;2.943504846;False;L;2;z;0;485;9;0;445;2320;1550;3993
vs12;benlakhal;2;None;20Dec2010;1345;mixed;500;482;200;2;46;4.931044122;True;L;12;z;1;585;0;2;477;6239;7683;8354
vs12;benlakhal;2;None;20Dec2010;1345;mixed;500;584;200;2;47;0.837628512;True;X;12;z;1;470;10;1;450;2476;1536;3377
vs12;benlakhal;2;None;20Dec2010;1345;mixed;500;669;200;2;48;5.875755057;True;X;8;z;1;471;9;1;418;1821;992;2722
vs12;benlakhal;2;None;20Dec2010;1346;mixed;500;449;200;3;1;4.210284534;False;X;2;z;0;613;9;2;508;2476;1460;3462
vs12;benlakhal;2;None;20Dec2010;1346;mixed;500;612;200;3;2;4.255015593;True;L;8;z;1;499;2;2;471;2636;1607;3422
vs12;benlakhal;2;None;20Dec2010;1346;mixed;500;653;200;3;3;1.556858391;False;X;2;z;0;600;9;1;480;1335;2493;3266
vs12;benlakhal;2;None;20Dec2010;1346;mixed;500;662;200;3;4;3.068444711;True;L;2;z;1;600;9;2;495;1934;1322;2978
vs12;benlakhal;2;None;20Dec2010;1346;mixed;500;623;200;3;5;4.854388103;True;X;8;z;1;499;9;2;448;906;2021;2736
vs12;benlakhal;2;None;20Dec2010;1346;mixed;500;424;200;3;6;3.814290413;True;X;4;z;1;628;9;1;506;945;2161;3776
vs12;benlakhal;2;None;20Dec2010;1346;mixed;500;520;200;3;7;0.838201049;False;X;8;z;0;656;9;2;470;2648;1421;4150
vs12;benlakhal;2;None;20Dec2010;1346;mixed;500;558;200;3;8;1.814191512;True;L;8;z;1;585;9;3;516;1364;2465;3608
vs12;benlakhal;2;None;20Dec2010;1346;mixed;500;418;200;3;9;1.010507519;True;L;8;z;1;552;9;3;486;892;1692;2693
vs12;benlakhal;2;None;20Dec2010;1346;mixed;500;568;200;3;10;5.549598219;True;X;12;z;1;485;9;1;401;2665;1893;3719
vs12;benlakhal;2;None;20Dec2010;1347;mixed;500;633;200;3;11;3.799510565;False;L;4;a;1;756;1;1;443;3366;1292;5165
vs12;benlakhal;2;None;20Dec2010;1347;mixed;500;695;200;3;12;4.6921276;True;X;12;z;1;485;9;1;408;1336;2508;3566
vs12;benlakhal;2;None;20Dec2010;1347;mixed;500;480;200;3;13;3.977694143;False;X;4;z;0;628;1;1;407;2688;1745;3632
vs12;benlakhal;2;None;20Dec2010;1347;mixed;500;695;200;3;14;1.965863608;True;X;2;z;1;513;10;1;552;1806;1177;2879
vs12;benlakhal;2;None;20Dec2010;1347;mixed;500;406;200;3;15;5.198667348;True;L;2;z;1;499;10;1;640;3581;2809;4638
vs12;benlakhal;2;None;20Dec2010;1347;mixed;500;547;200;3;16;0.743929745;False;L;12;z;0;670;9;1;486;2535;1248;3579
vs12;benlakhal;2;None;20Dec2010;1347;mixed;500;651;200;3;17;4.199643938;True;L;12;z;1;828;9;2;703;3362;2366;4291
vs12;benlakhal;2;None;20Dec2010;1347;mixed;500;472;200;3;18;4.074220345;False;L;8;z;0;484;9;2;523;2179;1307;3323
vs12;benlakhal;2;None;20Dec2010;1347;mixed;500;578;200;3;19;1.795770214;True;L;4;z;1;652;8;2;498;2936;1392;4724
vs12;benlakhal;2;None;20Dec2010;1347;mixed;500;526;200;3;20;5.835280767;False;X;4;z;0;514;9;2;493;2005;2735;5238
vs12;benlakhal;2;None;20Dec2010;1348;mixed;500;559;200;3;21;0.435130571;False;X;8;z;0;513;9;2;461;1206;3979;4908
vs12;benlakhal;2;None;20Dec2010;1348;mixed;500;618;200;3;22;1.804446249;False;X;8;z;0;642;1;1;482;3037;2337;3991
vs12;benlakhal;2;None;20Dec2010;1348;mixed;500;619;200;3;23;3.909114924;True;L;4;z;1;743;10;1;516;2781;1522;3795
vs12;benlakhal;2;None;20Dec2010;1348;mixed;500;600;200;3;24;1.784939863;False;L;2;a;1;667;9;2;530;2407;1621;3522
vs12;benlakhal;2;None;20Dec2010;1348;mixed;500;676;200;3;25;5.172664239;True;L;4;z;1;628;9;2;415;2377;1506;6182
vs12;benlakhal;2;None;20Dec2010;1348;mixed;500;689;200;3;26;5.04292652;False;L;4;z;0;585;9;1;462;3792;1804;4607
vs12;benlakhal;2;None;20Dec2010;1348;mixed;500;448;200;3;27;3.434135991;True;L;2;z;1;614;10;1;475;2364;1722;3636
vs12;benlakhal;2;None;20Dec2010;1348;mixed;500;507;200;3;28;2.187312045;True;X;12;z;1;556;10;1;468;2937;1694;4281
vs12;benlakhal;2;None;20Dec2010;1348;mixed;500;644;200;3;29;4.714178664;True;X;8;z;1;495;10;2;447;1364;4983;5740
vs12;benlakhal;2;None;20Dec2010;1348;mixed;500;504;200;3;30;3.6637991;False;X;2;a;1;556;9;1;472;1847;1275;3335
vs12;benlakhal;2;None;20Dec2010;1349;mixed;500;525;200;3;31;0.642088672;False;L;8;a;1;713;1;1;738;3218;2651;4362
vs12;benlakhal;2;None;20Dec2010;1349;mixed;500;436;200;3;32;0.981703991;False;L;8;a;1;671;7;2;608;3624;1737;7611
vs12;benlakhal;2;None;20Dec2010;1349;mixed;500;549;200;3;33;1.158990985;True;X;4;z;1;514;9;1;510;2164;1092;3093
vs12;benlakhal;2;None;20Dec2010;1349;mixed;500;619;200;3;34;0.823872317;True;L;12;z;1;571;9;1;471;2150;1336;3294
vs12;benlakhal;2;None;20Dec2010;1349;mixed;500;554;200;3;35;2.783252228;True;X;2;z;1;600;9;1;470;2590;1789;3219
vs12;benlakhal;2;None;20Dec2010;1349;mixed;500;605;200;3;36;2.774176149;False;X;4;z;0;728;9;2;531;2193;1250;2908
vs12;benlakhal;2;None;20Dec2010;1349;mixed;500;596;200;3;37;1.861876248;True;X;8;z;1;541;10;3;513;2365;1436;3423
vs12;benlakhal;2;None;20Dec2010;1349;mixed;500;636;200;3;38;4.199872723;False;L;2;a;1;599;9;2;481;2518;1851;3319
vs12;benlakhal;2;None;20Dec2010;1349;mixed;500;407;200;3;39;0.967333621;False;X;12;z;0;728;9;1;520;2179;1179;3079
vs12;benlakhal;2;None;20Dec2010;1349;mixed;500;574;200;3;40;1.896066443;True;X;4;z;1;542;10;2;477;2291;1033;3478
vs12;benlakhal;2;None;20Dec2010;1349;mixed;500;468;200;3;41;3.928060432;True;L;12;z;1;555;9;2;440;2378;1506;3347
vs12;benlakhal;2;None;20Dec2010;1350;mixed;500;660;200;3;42;0.905522724;False;X;12;z;0;599;9;2;513;3165;2266;4166
vs12;benlakhal;2;None;20Dec2010;1350;mixed;500;467;200;3;43;5.863886346;False;L;4;a;1;768;9;2;492;2780;1908;4396
vs12;benlakhal;2;None;20Dec2010;1350;mixed;500;530;200;3;44;0.7235516;False;L;12;z;0;927;9;3;503;1416;2403;3188
vs12;benlakhal;2;None;20Dec2010;1350;mixed;500;452;200;3;45;4.233202696;True;X;2;z;1;700;9;2;460;2194;1307;3137
vs12;benlakhal;2;None;20Dec2010;1350;mixed;500;621;200;3;46;0.237943868;False;L;12;z;0;671;9;3;437;2308;1437;6342
vs12;benlakhal;2;None;20Dec2010;1350;mixed;500;664;200;3;47;1.955406291;False;X;12;z;0;613;9;3;518;3782;5900;6812
vs12;benlakhal;2;None;20Dec2010;1350;mixed;500;442;200;3;48;3.743427456;False;L;2;a;1;942;9;2;517;3610;2694;4596
vs12;benlakhal;2;None;20Dec2010;1354;mixed;500;553;200;4;1;5.38487056;False;L;8;z;0;714;10;2;428;2680;1966;3952
vs12;benlakhal;2;None;20Dec2010;1354;mixed;500;481;200;4;2;5.935661427;False;X;12;z;0;528;0;1;597;1966;2622;3952
vs12;benlakhal;2;None;20Dec2010;1354;mixed;500;419;200;4;3;3.524281239;False;L;2;a;1;684;9;2;645;1932;1102;2975
vs12;benlakhal;2;None;20Dec2010;1354;mixed;500;599;200;4;4;2.347335839;False;L;12;a;1;785;1;1;401;1820;1207;2507
vs12;benlakhal;2;None;20Dec2010;1355;mixed;500;457;200;4;5;2.762436066;False;X;4;a;1;613;1;1;361;1821;1178;2536
vs12;benlakhal;2;None;20Dec2010;1355;mixed;500;433;200;4;6;1.987877349;False;X;12;z;0;828;2;2;466;2824;3834;4919
vs12;benlakhal;2;None;20Dec2010;1355;mixed;500;694;200;4;7;0.125424546;True;L;2;z;1;585;9;1;485;1621;1048;2635
vs12;benlakhal;2;None;20Dec2010;1355;mixed;500;547;200;4;8;5.032575955;True;L;8;z;1;912;10;2;497;2694;1865;3995
vs12;benlakhal;2;None;20Dec2010;1355;mixed;500;676;200;4;9;3.339231956;True;X;2;z;1;814;10;1;796;1988;1378;2746
vs12;benlakhal;2;None;20Dec2010;1355;mixed;500;665;200;4;10;1.613129334;True;X;2;z;1;571;9;2;523;2279;1464;3394
vs12;benlakhal;2;None;20Dec2010;1355;mixed;500;513;200;4;11;0.258852325;True;X;8;z;1;526;9;4;515;1708;3353;4238
vs12;benlakhal;2;None;20Dec2010;1355;mixed;500;504;200;4;12;3.685977679;True;L;2;z;1;613;9;1;560;2116;1263;4247
vs12;benlakhal;2;None;20Dec2010;1355;mixed;500;638;200;4;13;3.612706691;False;L;8;a;1;771;9;4;608;1436;5396;6282
vs12;benlakhal;2;None;20Dec2010;1355;mixed;500;502;200;4;14;2.654911016;False;X;8;a;1;742;9;4;502;1550;2408;3504
vs12;benlakhal;2;None;20Dec2010;1356;mixed;500;682;200;4;15;2.949617442;False;L;4;a;1;727;9;2;477;1892;2878;3622
vs12;benlakhal;2;None;20Dec2010;1356;mixed;500;464;200;4;16;2.704228405;False;X;12;a;1;614;1;3;500;1705;1047;2590
vs12;benlakhal;2;None;20Dec2010;1356;mixed;500;614;200;4;17;1.181199209;True;X;2;z;1;728;9;2;625;1735;991;2807
vs12;benlakhal;2;None;20Dec2010;1356;mixed;500;688;200;4;18;1.157305925;True;X;12;z;1;441;8;1;512;3008;1995;3751
vs12;benlakhal;2;None;20Dec2010;1356;mixed;500;440;200;4;19;1.146958094;False;X;8;z;0;815;4;1;661;2661;1546;3519
vs12;benlakhal;2;None;20Dec2010;1356;mixed;500;696;200;4;20;5.448209757;True;L;12;z;1;613;10;1;557;2551;1365;3524
vs12;benlakhal;2;None;20Dec2010;1356;mixed;500;615;200;4;21;5.820805013;True;L;12;z;1;585;10;1;483;5426;2522;10027
vs12;benlakhal;2;None;20Dec2010;1356;mixed;500;447;200;4;22;4.693882794;True;L;2;a;0;600;9;2;515;2493;1707;3619
vs12;benlakhal;2;None;20Dec2010;1356;mixed;500;549;200;4;23;4.699502228;True;X;4;z;1;514;9;1;498;3381;2666;4353
vs12;benlakhal;2;None;20Dec2010;1357;mixed;500;646;200;4;24;1.809892917;True;L;4;z;1;656;9;2;523;10444;9414;12832
vs12;benlakhal;2;None;20Dec2010;1357;mixed;500;582;200;4;25;6.211307663;False;X;4;z;0;585;9;0;487;2723;1178;4296
vs12;benlakhal;2;None;20Dec2010;1357;mixed;500;422;200;4;26;3.662459087;False;L;12;z;0;613;9;2;466;1007;2062;5022
vs12;benlakhal;2;None;20Dec2010;1357;mixed;500;514;200;4;27;4.679026971;False;L;4;a;1;942;9;3;498;2635;1349;3878
vs12;benlakhal;2;None;20Dec2010;1357;mixed;500;440;200;4;28;6.17506936;True;X;12;z;1;542;9;2;543;2165;1279;3065
vs12;benlakhal;2;None;20Dec2010;1357;mixed;500;492;200;4;29;3.889201182;False;L;2;a;1;714;9;1;410;2147;1475;3234
vs12;benlakhal;2;None;20Dec2010;1357;mixed;500;603;200;4;30;4.277152914;False;X;8;a;1;799;1;1;681;2136;1479;2966
vs12;benlakhal;2;None;20Dec2010;1357;mixed;500;673;200;4;31;4.591773286;True;L;4;z;1;628;10;1;555;3037;2236;3838
vs12;benlakhal;2;None;20Dec2010;1357;mixed;500;540;200;4;32;0.813994284;True;X;12;z;1;514;9;1;517;2088;1131;3018
vs12;benlakhal;2;None;20Dec2010;1357;mixed;500;478;200;4;33;5.926604812;True;L;8;z;1;514;9;1;680;1906;1006;2864
vs12;benlakhal;2;None;20Dec2010;1357;mixed;500;445;200;4;34;1.258556808;True;L;12;z;1;628;1;2;555;1664;2651;3480
vs12;benlakhal;2;None;20Dec2010;1358;mixed;500;583;200;4;35;0.799292301;True;L;8;z;1;843;1;0;561;2332;1450;3376
vs12;benlakhal;2;None;20Dec2010;1358;mixed;500;449;200;4;36;1.415083283;False;X;2;a;1;686;9;1;602;1922;1250;2794
vs12;benlakhal;2;None;20Dec2010;1358;mixed;500;571;200;4;37;6.004684327;False;X;2;a;1;695;2;0;693;4196;3410;5226
vs12;benlakhal;2;None;20Dec2010;1358;mixed;500;599;200;4;38;3.3032119;False;L;12;z;0;686;9;2;605;2635;1577;4909
vs12;benlakhal;2;None;20Dec2010;1358;mixed;500;645;200;4;39;1.826114714;True;X;8;z;1;700;9;3;657;1989;6138;8641
vs12;benlakhal;2;None;20Dec2010;1358;mixed;500;420;200;4;40;2.538141837;True;L;4;a;0;686;1;0;531;1835;1136;3137
vs12;benlakhal;2;None;20Dec2010;1358;mixed;500;519;200;4;41;3.960435521;False;L;4;a;1;743;10;3;582;2432;1393;3804
vs12;benlakhal;2;None;20Dec2010;1358;mixed;500;500;200;4;42;4.44548662;False;X;2;a;1;743;0;1;545;1421;4124;5309
vs12;benlakhal;2;None;20Dec2010;1358;mixed;500;652;200;4;43;2.064730992;False;X;4;a;1;671;1;2;603;1422;2593;4310
vs12;benlakhal;2;None;20Dec2010;1358;mixed;500;629;200;4;44;6.231644812;True;X;4;z;1;470;10;2;490;2450;1263;3922
vs12;benlakhal;2;None;20Dec2010;1359;mixed;500;491;200;4;45;2.486714701;False;L;2;a;1;729;10;2;551;3064;1462;4837
vs12;benlakhal;2;None;20Dec2010;1359;mixed;500;479;200;4;46;4.487593699;True;X;8;z;1;570;9;2;501;2673;1679;5849
vs12;benlakhal;2;None;20Dec2010;1359;mixed;500;466;200;4;47;3.308033465;True;X;4;z;1;571;9;1;481;1635;763;2479
vs12;benlakhal;2;None;20Dec2010;1359;mixed;500;612;200;4;48;2.149210761;False;L;8;a;1;685;4;0;567;2336;1250;2994
vs12;benlakhal;2;None;20Dec2010;1401;mixed;500;578;200;5;1;6.2092865;False;L;8;a;1;614;9;1;463;2633;1392;3333
vs12;benlakhal;2;None;20Dec2010;1401;mixed;500;598;200;5;2;5.377239675;False;L;12;a;1;570;1;2;647;2893;2294;4352
vs12;benlakhal;2;None;20Dec2010;1401;mixed;500;602;200;5;3;3.212311531;True;L;2;a;0;785;1;1;477;2250;1463;3092
vs12;benlakhal;2;None;20Dec2010;1401;mixed;500;668;200;5;4;3.359528996;False;L;8;z;0;514;3;2;420;2089;791;2731
vs12;benlakhal;2;None;20Dec2010;1401;mixed;500;541;200;5;5;0.52092355;True;X;12;z;1;571;9;5;547;2293;1049;3237
vs12;benlakhal;2;None;20Dec2010;1401;mixed;500;621;200;5;6;1.568196888;False;X;8;a;1;725;1;2;555;1135;1779;2893
vs12;benlakhal;2;None;20Dec2010;1401;mixed;500;609;200;5;7;4.815337782;False;X;8;a;1;785;1;2;653;1422;2051;3832
vs12;benlakhal;2;None;20Dec2010;1402;mixed;500;400;200;5;8;0.159959369;True;L;8;z;1;914;9;1;535;2136;1364;3980
vs12;benlakhal;2;None;20Dec2010;1402;mixed;500;506;200;5;9;3.965802596;True;L;12;z;1;585;9;2;535;4097;2981;5454
vs12;benlakhal;2;None;20Dec2010;1402;mixed;500;540;200;5;10;5.332415842;True;X;2;z;1;519;10;2;552;2422;1306;3508
vs12;benlakhal;2;None;20Dec2010;1402;mixed;500;417;200;5;11;5.341389214;False;L;8;z;0;642;9;2;511;2180;4035;4636
vs12;benlakhal;2;None;20Dec2010;1402;mixed;500;629;200;5;12;5.487566777;False;L;4;a;1;814;4;1;536;2822;1636;3809
vs12;benlakhal;2;None;20Dec2010;1402;mixed;500;593;200;5;13;0.60023908;False;L;2;a;1;757;2;1;532;1621;863;2464
vs12;benlakhal;2;None;20Dec2010;1402;mixed;500;437;200;5;14;1.366421608;False;X;12;a;1;899;1;3;575;1349;1919;2533
vs12;benlakhal;2;None;20Dec2010;1402;mixed;500;634;200;5;15;1.472373409;True;L;8;z;1;613;9;1;712;2536;1721;3694
vs12;benlakhal;2;None;20Dec2010;1402;mixed;500;525;200;5;16;2.434659948;True;L;4;z;1;524;9;1;638;2250;1235;3637
vs12;benlakhal;2;None;20Dec2010;1402;mixed;500;597;200;5;17;0.451201865;True;X;8;z;1;485;9;1;498;3092;1494;4021
vs12;benlakhal;2;None;20Dec2010;1402;mixed;500;516;200;5;18;4.009890535;True;L;12;z;1;572;9;2;657;2680;1536;3737
vs12;benlakhal;2;None;20Dec2010;1403;mixed;500;429;200;5;19;5.510347244;False;L;4;z;0;600;10;1;668;2308;1264;3309
vs12;benlakhal;2;None;20Dec2010;1403;mixed;500;567;200;5;20;0.974981925;True;X;2;z;1;513;9;1;603;1821;1121;2744
vs12;benlakhal;2;None;20Dec2010;1403;mixed;500;513;200;5;21;0.975197386;True;X;4;z;1;499;10;2;608;1606;848;2549
vs12;benlakhal;2;None;20Dec2010;1403;mixed;500;432;200;5;22;1.649157902;False;X;12;a;1;628;9;3;593;2020;1021;2949
vs12;benlakhal;2;None;20Dec2010;1403;mixed;500;463;200;5;23;4.357866096;True;L;2;a;0;670;9;1;756;2479;1778;4438
vs12;benlakhal;2;None;20Dec2010;1403;mixed;500;486;200;5;24;6.042230539;True;X;8;z;1;542;10;1;575;3109;1621;5440
vs12;benlakhal;2;None;20Dec2010;1403;mixed;500;522;200;5;25;1.433213409;False;X;12;z;0;756;8;1;662;2622;1708;4167
vs12;benlakhal;2;None;20Dec2010;1403;mixed;500;575;200;5;26;1.404708417;True;X;4;z;1;512;9;1;602;1802;977;3260
vs12;benlakhal;2;None;20Dec2010;1403;mixed;500;445;200;5;27;0.259286778;False;X;4;a;1;700;9;3;645;3423;1907;4479
vs12;benlakhal;2;None;20Dec2010;1403;mixed;500;506;200;5;28;2.397884703;False;L;2;a;1;670;10;1;618;1577;977;2935
vs12;benlakhal;2;None;20Dec2010;1403;mixed;500;489;200;5;29;0.228016316;False;L;12;a;1;742;9;2;560;6582;7796;8553
vs12;benlakhal;2;None;20Dec2010;1404;mixed;500;405;200;5;30;2.116104527;False;L;2;a;1;585;9;2;533;1536;1006;3338
vs12;benlakhal;2;None;20Dec2010;1404;mixed;500;475;200;5;31;1.631643046;True;X;4;z;1;499;9;1;610;2262;1178;3062
vs12;benlakhal;2;None;20Dec2010;1404;mixed;500;689;200;5;32;3.87764749;True;L;8;a;0;684;2;2;722;2551;3466;4395
vs12;benlakhal;2;None;20Dec2010;1404;mixed;500;700;200;5;33;0.856678194;False;X;2;a;1;727;5;0;557;2566;1135;3794
vs12;benlakhal;2;None;20Dec2010;1404;mixed;500;694;200;5;34;2.95517902;False;X;2;a;1;571;9;2;606;1875;1175;2676
vs12;benlakhal;2;None;20Dec2010;1404;mixed;500;471;200;5;35;3.952714959;False;L;12;a;1;671;1;3;597;1436;2165;3251
vs12;benlakhal;2;None;20Dec2010;1404;mixed;500;534;200;5;36;1.56598789;True;X;12;z;1;699;9;1;565;2293;1408;4768
vs12;benlakhal;2;None;20Dec2010;1404;mixed;500;551;200;5;37;3.528280484;False;L;4;z;0;1026;10;2;555;2336;1450;3394
vs12;benlakhal;2;None;20Dec2010;1404;mixed;500;551;200;5;38;3.732816577;False;X;8;z;0;614;9;7;503;1721;1165;3106
vs12;benlakhal;2;None;20Dec2010;1404;mixed;500;435;200;5;39;0.274283419;True;L;4;z;1;671;9;1;628;2093;991;3022
vs12;benlakhal;2;None;20Dec2010;1404;mixed;500;423;200;5;40;5.451097714;True;L;2;z;1;600;9;1;722;2288;1244;3175
vs12;benlakhal;2;None;20Dec2010;1405;mixed;500;494;200;5;41;4.989644071;False;X;4;z;0;786;9;2;486;1507;3051;4535
vs12;benlakhal;2;None;20Dec2010;1405;mixed;500;493;200;5;42;5.470328991;True;X;8;z;1;642;9;1;607;2337;1150;4711
vs12;benlakhal;2;None;20Dec2010;1405;mixed;500;564;200;5;43;5.919548964;False;X;2;a;1;700;0;1;588;1406;2436;3637
vs12;benlakhal;2;None;20Dec2010;1405;mixed;500;660;200;5;44;0.27020224;True;X;12;z;1;513;9;3;608;2475;1646;4105
vs12;benlakhal;2;None;20Dec2010;1405;mixed;500;505;200;5;45;5.411584656;True;X;2;z;1;485;9;1;623;1792;1049;4351
vs12;benlakhal;2;None;20Dec2010;1405;mixed;500;665;200;5;46;4.302041529;False;X;4;z;0;757;4;3;686;2823;1365;3996
vs12;benlakhal;2;None;20Dec2010;1405;mixed;500;416;200;5;47;1.627249532;True;L;4;z;1;628;9;1;498;1779;864;2908
vs12;benlakhal;2;None;20Dec2010;1405;mixed;500;664;200;5;48;2.026350324;True;L;12;z;1;514;7;1;636;1864;1050;3335
vs12;benlakhal;2;None;20Dec2010;1406;mixed;500;599;200;6;1;1.4752883;False;L;12;z;0;799;9;1;531;4135;2166;5465
vs12;benlakhal;2;None;20Dec2010;1406;mixed;500;523;200;6;2;3.000913321;False;X;2;z;0;542;9;1;532;2007;1435;3894
vs12;benlakhal;2;None;20Dec2010;1406;mixed;500;618;200;6;3;4.0672021;False;X;4;z;0;528;2;1;531;2279;1091;3065
vs12;benlakhal;2;None;20Dec2010;1406;mixed;500;478;200;6;4;3.197530779;True;L;2;a;0;686;1;1;575;5752;6510;7597
vs12;benlakhal;2;None;20Dec2010;1406;mixed;500;595;200;6;5;6.246320599;False;X;8;z;0;456;9;2;577;1577;2878;3593
vs12;benlakhal;2;None;20Dec2010;1406;mixed;500;620;200;6;6;0.332184979;True;X;12;z;1;499;9;3;535;1621;950;2637
vs12;benlakhal;2;None;20Dec2010;1407;mixed;500;613;200;6;7;2.059926592;True;X;2;z;1;485;9;1;668;1936;978;2779
vs12;benlakhal;2;None;20Dec2010;1407;mixed;500;546;200;6;8;0.599845905;True;L;2;z;1;499;9;1;618;3276;2165;4449
vs12;benlakhal;2;None;20Dec2010;1407;mixed;500;449;200;6;9;4.558037439;True;X;12;z;1;485;9;1;535;2966;1751;4339
vs12;benlakhal;2;None;20Dec2010;1407;mixed;500;569;200;6;10;1.726255376;False;L;4;z;0;528;8;2;508;1835;848;2650
vs12;benlakhal;2;None;20Dec2010;1407;mixed;500;663;200;6;11;0.21191037;False;X;4;z;0;471;7;1;678;4320;1593;2833
vs12;benlakhal;2;None;20Dec2010;1407;mixed;500;586;200;6;12;4.970586791;True;X;2;z;1;456;9;1;706;2220;848;2950
vs12;benlakhal;2;None;20Dec2010;1407;mixed;500;565;200;6;13;5.323908727;True;X;8;z;1;528;9;1;612;3380;2123;5111
vs12;benlakhal;2;None;20Dec2010;1407;mixed;500;662;200;6;14;2.271768309;True;X;8;z;1;500;9;2;595;2188;1245;3747
vs12;benlakhal;2;None;20Dec2010;1407;mixed;500;552;200;6;15;3.681894152;False;L;2;a;1;600;9;1;616;2079;1320;3406
vs12;benlakhal;2;None;20Dec2010;1407;mixed;500;509;200;6;16;5.496934481;True;L;8;z;1;685;9;1;565;2579;1635;4051
vs12;benlakhal;2;None;20Dec2010;1407;mixed;500;452;200;6;17;4.767888371;True;L;4;z;1;652;10;2;605;1978;1135;2922
vs12;benlakhal;2;None;20Dec2010;1408;mixed;500;691;200;6;18;4.051328628;False;L;8;a;1;943;9;3;553;2405;1465;5466
vs12;benlakhal;2;None;20Dec2010;1408;mixed;500;572;200;6;19;2.707909391;False;L;4;a;1;742;9;2;582;3334;5522;6294
vs12;benlakhal;2;None;20Dec2010;1408;mixed;500;480;200;6;20;1.011709561;True;X;8;z;1;529;9;3;548;1520;850;2407
vs12;benlakhal;2;None;20Dec2010;1408;mixed;500;693;200;6;21;3.810419951;True;X;4;z;1;542;9;1;717;1607;677;2593
vs12;benlakhal;2;None;20Dec2010;1408;mixed;500;630;200;6;22;5.008028347;True;L;12;z;1;585;9;2;535;1721;950;2531
vs12;benlakhal;2;None;20Dec2010;1408;mixed;500;512;200;6;23;1.997795912;True;L;8;z;1;499;9;2;685;1621;935;2637
vs12;benlakhal;2;None;20Dec2010;1408;mixed;500;456;200;6;24;2.182103902;False;X;12;z;0;571;9;4;687;2420;1493;5925
vs12;benlakhal;2;None;20Dec2010;1408;mixed;500;626;200;6;25;2.80215708;True;L;12;z;1;1616;9;3;500;1489;2848;3505
vs12;benlakhal;2;None;20Dec2010;1408;mixed;500;631;200;6;26;0.364805477;False;X;2;a;1;757;9;1;608;1563;934;2377
vs12;benlakhal;2;None;20Dec2010;1408;mixed;500;697;200;6;27;3.581501813;False;X;12;z;0;585;9;2;676;1793;1107;2536
vs12;benlakhal;2;None;20Dec2010;1408;mixed;500;542;200;6;28;6.059634794;False;L;12;z;0;499;8;3;640;2365;1537;3461
vs12;benlakhal;2;None;20Dec2010;1409;mixed;500;449;200;6;29;4.271287284;False;L;4;a;1;771;9;2;606;2309;4497;6840
vs12;benlakhal;2;None;20Dec2010;1409;mixed;500;593;200;6;30;5.500028816;True;L;12;z;1;543;9;2;677;2450;1364;4563
vs12;benlakhal;2;None;20Dec2010;1409;mixed;500;689;200;6;31;4.545085387;True;L;8;a;0;1873;9;1;477;2337;1479;3194
vs12;benlakhal;2;None;20Dec2010;1409;mixed;500;677;200;6;32;4.663903531;False;X;8;z;0;652;2;2;606;2049;834;2792
vs12;benlakhal;2;None;20Dec2010;1409;mixed;500;643;200;6;33;2.11174808;False;L;8;z;0;413;2;2;598;1406;707;2321
vs12;benlakhal;2;None;20Dec2010;1409;mixed;500;535;200;6;34;4.118586082;False;L;8;z;0;542;2;3;616;1950;978;2736
vs12;benlakhal;2;None;20Dec2010;1409;mixed;500;649;200;6;35;0.30438014;True;L;2;z;1;598;9;1;547;2319;1406;3091
vs12;benlakhal;2;None;20Dec2010;1409;mixed;500;413;200;6;36;2.549725549;True;X;4;a;0;628;5;2;558;8240;3482;7411
vs12;benlakhal;2;None;20Dec2010;1409;mixed;500;503;200;6;37;5.409449375;True;X;2;z;1;486;9;1;542;2107;1278;3151
vs12;benlakhal;2;None;20Dec2010;1409;mixed;500;638;200;6;38;5.484864626;False;X;12;z;0;570;9;7;543;1308;2924;4296
vs12;benlakhal;2;None;20Dec2010;1410;mixed;500;496;200;6;39;4.73445544;False;L;2;a;1;770;9;1;585;1889;859;3205
vs12;benlakhal;2;None;20Dec2010;1410;mixed;500;624;200;6;40;4.959237754;False;X;2;a;1;686;9;1;625;1678;592;3190
vs12;benlakhal;2;None;20Dec2010;1410;mixed;500;674;200;6;41;2.569129992;True;X;12;z;1;628;9;6;621;2436;1078;3809
vs12;benlakhal;2;None;20Dec2010;1410;mixed;500;419;200;6;42;0.245654723;False;X;8;a;1;643;9;4;592;1591;704;2591
vs12;benlakhal;2;None;20Dec2010;1410;mixed;500;477;200;6;43;3.623508738;True;X;4;z;1;585;9;1;627;1836;806;3238
vs12;benlakhal;2;None;20Dec2010;1410;mixed;500;556;200;6;44;3.051114357;False;L;2;a;1;671;10;1;516;3294;763;6741
vs12;benlakhal;2;None;20Dec2010;1410;mixed;500;525;200;6;45;1.018706236;False;L;12;a;1;743;9;6;613;1692;879;2751
vs12;benlakhal;2;None;20Dec2010;1410;mixed;500;547;200;6;46;0.77747131;True;L;4;a;0;656;9;2;623;1946;792;4449
vs12;benlakhal;2;None;20Dec2010;1410;mixed;500;491;200;6;47;2.70875349;False;X;4;a;1;728;9;2;616;2121;734;3334
vs12;benlakhal;2;None;20Dec2010;1410;mixed;500;627;200;6;48;2.227039714;True;L;4;a;0;729;9;2;616;1663;577;4896
vs12;benlakhal;2;None;20Dec2010;1411;mixed;500;515;200;7;1;3.689128492;False;X;2;a;1;700;9;1;520;1550;949;2679
vs12;benlakhal;2;None;20Dec2010;1411;mixed;500;452;200;7;2;4.097011377;True;L;2;a;0;508;9;1;473;2408;950;3537
vs12;benlakhal;2;None;20Dec2010;1411;mixed;500;459;200;7;3;0.796455203;True;L;4;z;1;557;10;2;586;1664;663;2405
vs12;benlakhal;2;None;20Dec2010;1411;mixed;500;556;200;7;4;3.373182784;False;L;8;z;0;527;9;4;591;1465;2351;4239
vs12;benlakhal;2;None;20Dec2010;1411;mixed;500;526;200;7;5;3.194123363;False;L;8;z;0;699;9;2;602;2189;1288;3618
vs12;benlakhal;2;None;20Dec2010;1411;mixed;500;591;200;7;6;2.496325634;True;X;2;z;1;742;9;1;601;1807;705;2891
vs12;benlakhal;2;None;20Dec2010;1411;mixed;500;514;200;7;7;2.615011188;True;X;2;z;1;457;9;1;533;1650;748;2507
vs12;benlakhal;2;None;20Dec2010;1411;mixed;500;584;200;7;8;5.257075687;True;X;4;z;1;470;9;4;626;2920;1846;4092
vs12;benlakhal;2;None;20Dec2010;1412;mixed;500;428;200;7;9;3.130324161;True;L;2;a;0;699;9;1;730;4063;1250;2322
vs12;benlakhal;2;None;20Dec2010;1412;mixed;500;426;200;7;10;0.193152325;False;X;8;z;0;643;9;4;648;1935;663;3508
vs12;benlakhal;2;None;20Dec2010;1412;mixed;500;432;200;7;11;3.545572829;False;L;2;a;1;742;9;1;545;2343;1729;3129
vs12;benlakhal;2;None;20Dec2010;1412;mixed;500;547;200;7;12;4.193668282;True;L;12;z;1;585;9;6;595;1921;678;2864
vs12;benlakhal;2;None;20Dec2010;1412;mixed;500;451;200;7;13;2.451715306;True;L;2;z;1;900;9;1;536;1950;1378;3022
vs12;benlakhal;2;None;20Dec2010;1412;mixed;500;620;200;7;14;0.362946622;False;X;8;z;0;757;9;2;735;3461;2390;5034
vs12;benlakhal;2;None;20Dec2010;1412;mixed;500;447;200;7;15;3.135811129;False;X;4;z;0;743;9;2;598;8758;3566;9945
vs12;benlakhal;2;None;20Dec2010;1412;mixed;500;409;200;7;16;0.974100594;False;L;2;z;0;786;9;1;556;3538;4410;5154
vs12;benlakhal;2;None;20Dec2010;1412;mixed;500;691;200;7;17;1.059437363;True;X;4;z;1;512;9;2;661;1363;678;2064
vs12;benlakhal;2;None;20Dec2010;1412;mixed;500;658;200;7;18;3.772971266;True;X;8;z;1;542;9;1;663;1950;1121;2950
vs12;benlakhal;2;None;20Dec2010;1413;mixed;500;432;200;7;19;5.675676284;False;L;12;z;0;486;9;2;521;1849;1136;2936
vs12;benlakhal;2;None;20Dec2010;1413;mixed;500;556;200;7;20;3.850019864;True;L;8;z;1;786;9;2;603;2935;1822;3950
vs12;benlakhal;2;None;20Dec2010;1413;mixed;500;623;200;7;21;3.74289879;False;L;2;a;1;671;9;1;626;7081;1836;9327
vs12;benlakhal;2;None;20Dec2010;1413;mixed;500;604;200;7;22;1.616375406;False;L;4;a;1;729;10;1;597;2076;1233;3034
vs12;benlakhal;2;None;20Dec2010;1413;mixed;500;649;200;7;23;3.235133419;False;L;12;z;0;714;9;11;587;1478;921;2236
vs12;benlakhal;2;None;20Dec2010;1413;mixed;500;670;200;7;24;5.635942982;False;X;4;a;1;542;9;2;708;1292;634;2335
vs12;benlakhal;2;None;20Dec2010;1413;mixed;500;476;200;7;25;2.153742129;False;X;12;a;1;814;9;6;645;2007;807;3595
vs12;benlakhal;2;None;20Dec2010;1413;mixed;500;686;200;7;26;1.710074744;True;X;8;z;1;772;9;3;567;3023;1493;6567
vs12;benlakhal;2;None;20Dec2010;1413;mixed;500;601;200;7;27;4.794583135;False;L;4;a;1;628;10;3;668;2938;1407;6079
vs12;benlakhal;2;None;20Dec2010;1414;mixed;500;594;200;7;28;4.935999241;True;L;8;z;1;842;9;0;638;2665;1579;4781
vs12;benlakhal;2;None;20Dec2010;1414;mixed;500;472;200;7;29;5.868779654;True;L;12;z;1;527;9;2;572;2092;1250;5053
vs12;benlakhal;2;None;20Dec2010;1414;mixed;500;581;200;7;30;4.519045111;True;L;4;z;1;496;9;2;611;1537;2766;4053
vs12;benlakhal;2;None;20Dec2010;1414;mixed;500;564;200;7;31;2.938524046;False;X;12;z;0;485;9;2;605;2217;1264;4333
vs12;benlakhal;2;None;20Dec2010;1414;mixed;500;500;200;7;32;0.398683206;False;L;8;z;0;485;9;3;612;1564;834;3007
vs12;benlakhal;2;None;20Dec2010;1414;mixed;500;631;200;7;33;1.115767758;False;L;4;a;1;772;10;2;592;1277;563;3266
vs12;benlakhal;2;None;20Dec2010;1414;mixed;500;467;200;7;34;1.802550687;False;X;2;a;1;570;9;1;580;1864;1220;3147
vs12;benlakhal;2;None;20Dec2010;1414;mixed;500;627;200;7;35;5.038560186;True;X;8;z;1;599;9;3;630;1493;2421;3522
vs12;benlakhal;2;None;20Dec2010;1414;mixed;500;510;200;7;36;5.816191889;False;X;4;a;1;655;9;2;588;1707;1106;3509
vs12;benlakhal;2;None;20Dec2010;1414;mixed;500;431;200;7;37;1.834051942;False;X;8;z;0;570;9;3;586;2380;1307;3346
vs12;benlakhal;2;None;20Dec2010;1414;mixed;500;571;200;7;38;3.671208295;True;X;2;z;1;628;9;1;613;1978;1292;2764
vs12;benlakhal;2;None;20Dec2010;1414;mixed;500;569;200;7;39;4.26067446;True;X;4;z;1;500;9;1;691;1533;648;2433
vs12;benlakhal;2;None;20Dec2010;1415;mixed;500;507;200;7;40;6.090996592;True;X;12;z;1;470;9;2;616;4396;1793;5994
vs12;benlakhal;2;None;20Dec2010;1415;mixed;500;431;200;7;41;5.180218361;True;X;12;z;1;484;9;2;605;3051;1621;4552
vs12;benlakhal;2;None;20Dec2010;1415;mixed;500;473;200;7;42;2.56699199;False;X;12;a;1;613;9;3;656;2409;1280;3509
vs12;benlakhal;2;None;20Dec2010;1415;mixed;500;673;200;7;43;5.527776138;False;X;2;a;1;642;9;1;647;5851;6823;7681
vs12;benlakhal;2;None;20Dec2010;1415;mixed;500;554;200;7;44;0.181774504;True;X;12;z;1;466;9;3;612;2607;1622;4266
vs12;benlakhal;2;None;20Dec2010;1415;mixed;500;461;200;7;45;5.816212196;False;L;12;z;0;684;9;2;562;1773;992;3231
vs12;benlakhal;2;None;20Dec2010;1415;mixed;500;486;200;7;46;3.054686168;True;L;4;z;1;757;9;1;520;1621;834;2778
