manip,subject,session,order,mm,tm,trialType,iti,fixDur,stimDur,nBlock,nTrial,alpha,present,targType,nItems,resp,acc,rt,confidence,estNItems,estTime,confidenceRT,estNItemsRT,estTimeRT,RecRT,Erreur,REC,Rec2Type,RecRT2,Rec2,couleur,training,task,trialId
vs12,amelie,4,4,09Nov2011,1026,pTMix,500,503,8000,1,1,2.77697918918,0,X,8,z,1,17223,,,,,,,,,,,,,Vert,1,X among T,1
vs12,amelie,4,4,09Nov2011,1026,pTMix,500,581,8000,1,2,3.24942886118,0,X,4,a,1,2384,,,,,,,,,,,,,Rouge,1,X among T,2
vs12,amelie,4,4,09Nov2011,1026,pTMix,500,562,8000,1,3,0.591489556241,1,X,4,a,1,1284,,,,,,,,,,,,,Rouge,1,X among T,3
vs12,amelie,4,4,09Nov2011,1026,pTMix,500,567,8000,1,4,1.17644304337,0,L,8,z,0,2285,,,,,,,,,,,,,Rouge,1,L among T,4
vs12,amelie,4,4,09Nov2011,1026,pTMix,500,445,8000,1,5,4.41801795443,0,L,4,z,1,5747,,,,,,,,,,,,,Vert,1,L among T,5
vs12,amelie,4,4,09Nov2011,1026,pTMix,500,575,8000,1,6,3.27467136464,1,X,8,z,1,1484,,,,,,,,,,,,,Vert,1,X among T,6
vs12,amelie,4,4,09Nov2011,1027,pTMix,500,637,8000,1,7,2.28627558523,0,L,16,z,1,4197,,,,,,,,,,,,,Vert,1,L among T,7
vs12,amelie,4,4,09Nov2011,1027,pTMix,500,560,8000,1,8,4.23496904442,0,X,16,z,1,1086,,,,,,,,,,,,,Vert,1,X among T,8
vs12,amelie,4,4,09Nov2011,1027,pTMix,500,632,8000,1,9,4.42448078839,1,L,4,a,1,1617,,,,,,,,,,,,,Rouge,1,L among T,9
vs12,amelie,4,4,09Nov2011,1027,pTMix,500,481,8000,1,10,5.82813640842,0,X,4,z,0,1184,,,,,,,,,,,,,Rouge,1,X among T,10
vs12,amelie,4,4,09Nov2011,1027,pTMix,500,471,8000,1,11,3.42126778296,1,L,8,z,1,4378,,,,,,,,,,,,,Vert,1,L among T,11
vs12,amelie,4,4,09Nov2011,1027,pTMix,500,458,8000,1,12,5.10414391386,1,X,8,a,1,2018,,,,,,,,,,,,,Rouge,1,X among T,12
vs12,amelie,4,4,09Nov2011,1027,pTMix,500,587,8000,1,13,1.82852593444,1,L,16,a,1,2463,,,,,,,,,,,,,Rouge,1,L among T,13
vs12,amelie,4,4,09Nov2011,1027,pTMix,500,620,8000,1,14,3.66725097613,1,L,16,z,1,1435,,,,,,,,,,,,,Vert,1,L among T,14
vs12,amelie,4,4,09Nov2011,1027,pTMix,500,666,8000,1,15,1.98812023442,1,X,16,z,1,1702,,,,,,,,,,,,,Vert,1,X among T,15
vs12,amelie,4,4,09Nov2011,1027,pTMix,500,545,8000,1,16,0.0687882586583,0,X,16,z,1,1468,,,,,,,,,,,,,Vert,1,X among T,16
vs12,amelie,4,4,09Nov2011,1027,pTMix,500,607,8000,1,17,3.15345427609,1,L,4,a,1,1467,,,,,,,,,,,,,Rouge,1,L among T,17
vs12,amelie,4,4,09Nov2011,1027,pTMix,500,557,8000,1,18,6.07575968498,0,X,8,z,1,1019,,,,,,,,,,,,,Vert,1,X among T,18
vs12,amelie,4,4,09Nov2011,1027,pTMix,500,448,8000,1,19,3.20611937223,0,L,8,a,1,1817,,,,,,,,,,,,,Rouge,1,L among T,19
vs12,amelie,4,4,09Nov2011,1027,pTMix,500,663,8000,1,20,0.305122059816,0,L,16,z,1,2932,,,,,,,,,,,,,Vert,1,L among T,20
vs12,amelie,4,4,09Nov2011,1027,pTMix,500,508,8000,1,21,1.49695525958,1,X,16,a,1,1101,,,,,,,,,,,,,Rouge,1,X among T,21
vs12,amelie,4,4,09Nov2011,1027,pTMix,500,607,8000,1,22,2.59080033977,0,L,4,z,1,1451,,,,,,,,,,,,,Vert,1,L among T,22
vs12,amelie,4,4,09Nov2011,1027,pTMix,500,428,8000,1,23,5.66578655252,1,X,4,z,1,1401,,,,,,,,,,,,,Vert,1,X among T,23
vs12,amelie,4,4,09Nov2011,1027,pTMix,500,512,8000,1,24,0.523661449331,1,L,8,z,1,1084,,,,,,,,,,,,,Vert,1,L among T,24
vs12,amelie,4,4,09Nov2011,1028,tMix,500,632,8000,1,1,2.75677344482,0,X,8,a,1,1585,,,,,,,,,,A,5229,1,Rouge,1,X among T,25
vs12,amelie,4,4,09Nov2011,1028,tMix,500,578,8000,1,2,2.61107302099,1,X,4,z,1,1900,,,,,,,,,,A,2198,1,Vert,1,X among T,26
vs12,amelie,4,4,09Nov2011,1029,tMix,500,580,8000,1,3,0.0356717911486,1,X,8,a,1,1183,,,,,,,,,,A,4598,1,Rouge,1,X among T,27
vs12,amelie,4,4,09Nov2011,1029,tMix,500,573,8000,1,4,0.528478925399,0,L,8,a,1,2735,,,,,,,,,,B,1517,4,Rouge,1,L among T,28
vs12,amelie,4,4,09Nov2011,1029,tMix,500,484,8000,1,5,2.43496135061,0,X,8,a,1,3034,,,,,,,,,,A,1467,1,Rouge,1,X among T,29
vs12,amelie,4,4,09Nov2011,1029,tMix,500,627,8000,1,6,4.28616626213,1,X,8,z,1,2282,,,,,,,,,,A,2100,3,Vert,1,X among T,30
vs12,amelie,4,4,09Nov2011,1029,tMix,500,515,8000,1,7,2.57086561096,0,X,4,z,1,801,,,,,,,,,,A,2184,1,Vert,1,X among T,31
vs12,amelie,4,4,09Nov2011,1029,tMix,500,635,8000,1,8,1.72732171254,0,X,16,z,1,752,,,,,,,,,,A,2399,1,Vert,1,X among T,32
vs12,amelie,4,4,09Nov2011,1029,tMix,500,487,8000,1,9,2.89521062695,0,X,4,a,1,1748,,,,,,,,,,A,16856,1,Rouge,1,X among T,33
vs12,amelie,4,4,09Nov2011,1029,tMix,500,700,8000,1,10,4.90549360824,1,X,16,z,1,919,,,,,,,,,,A,5230,2,Vert,1,X among T,34
vs12,amelie,4,4,09Nov2011,1030,tMix,500,435,8000,1,11,3.19829265293,0,X,16,z,1,702,,,,,,,,,,A,3016,1,Vert,1,X among T,35
vs12,amelie,4,4,09Nov2011,1030,tMix,500,440,8000,1,12,5.38043464908,1,L,8,z,1,2168,,,,,,,,,,B,1733,4,Vert,1,L among T,36
vs12,amelie,4,4,09Nov2011,1030,tMix,500,587,8000,1,13,4.08706192498,0,L,16,z,1,2832,,,,,,,,,,B,2883,5,Vert,1,L among T,37
vs12,amelie,4,4,09Nov2011,1030,tMix,500,493,8000,1,14,5.69407675434,1,L,8,z,1,1501,,,,,,,,,,B,2697,4,Vert,1,L among T,38
vs12,amelie,4,4,09Nov2011,1030,tMix,500,501,8000,1,15,1.02618405636,0,L,8,a,1,1167,,,,,,,,,,A,3529,3,Rouge,1,L among T,39
vs12,amelie,4,4,09Nov2011,1030,tMix,500,454,8000,1,16,3.54471542317,1,X,4,a,1,2250,,,,,,,,,,A,2617,2,Rouge,1,X among T,40
vs12,amelie,4,4,09Nov2011,1030,tMix,500,441,8000,1,17,2.15169271932,1,L,4,a,1,1833,,,,,,,,,,A,1235,2,Rouge,1,L among T,41
vs12,amelie,4,4,09Nov2011,1030,tMix,500,658,8000,1,18,5.02021921415,1,L,16,a,1,2997,,,,,,,,,,C,2550,6,Rouge,1,L among T,42
vs12,amelie,4,4,09Nov2011,1030,tMix,500,599,8000,1,19,3.07575012052,0,L,4,a,1,1151,,,,,,,,,,B,1301,4,Rouge,1,L among T,43
vs12,amelie,4,4,09Nov2011,1030,tMix,500,663,8000,1,20,5.49493713441,1,L,16,a,1,3601,,,,,,,,,,D,1350,8,Rouge,1,L among T,44
vs12,amelie,4,4,09Nov2011,1031,tMix,500,419,8000,1,21,0.559284405999,1,L,4,z,1,1129,,,,,,,,,,B,1616,4,Vert,1,L among T,45
vs12,amelie,4,4,09Nov2011,1031,tMix,500,573,8000,1,22,4.03995744157,0,L,4,a,1,1650,,,,,,,,,,A,1583,3,Rouge,1,L among T,46
vs12,amelie,4,4,09Nov2011,1031,tMix,500,429,8000,1,23,0.622155287724,0,L,16,a,0,1085,,,,,,,,,,B,3065,4,Vert,1,L among T,47
vs12,amelie,4,4,09Nov2011,1031,tMix,500,554,8000,1,24,5.01777839321,1,X,16,z,0,1167,,,,,,,,,,B,2633,4,Rouge,1,X among T,48
vs12,amelie,4,4,09Nov2011,1031,mixed,500,552,8000,1,1,1.95329949351,0,L,4,a,1,2663,,,,,,,,,,A,3566,2,Rouge,0,L among T,49
vs12,amelie,4,4,09Nov2011,1032,mixed,500,500,8000,1,2,0.732725633762,1,L,16,a,1,3881,,,,,,,,,,B,1333,5,Rouge,0,L among T,50
vs12,amelie,4,4,09Nov2011,1032,mixed,500,511,8000,1,3,3.66751227801,1,X,4,z,1,1084,,,,,,,,,,A,1049,1,Vert,0,X among T,51
vs12,amelie,4,4,09Nov2011,1032,mixed,500,557,8000,1,4,1.01159228851,0,X,16,z,1,685,,,,,,,,,,A,3015,1,Vert,0,X among T,52
vs12,amelie,4,4,09Nov2011,1032,mixed,500,514,8000,1,5,1.07235280112,1,X,4,a,1,935,,,,,,,,,,A,1184,2,Rouge,0,X among T,53
vs12,amelie,4,4,09Nov2011,1032,mixed,500,653,8000,1,6,4.90876959075,0,L,8,z,1,1701,,,,,,,,,,A,2661,3,Vert,0,L among T,54
vs12,amelie,4,4,09Nov2011,1032,mixed,500,452,8000,1,7,3.42147823496,1,L,16,z,1,1270,,,,,,,,,,A,2999,3,Vert,0,L among T,55
vs12,amelie,4,4,09Nov2011,1032,mixed,500,587,8000,1,8,1.86789731124,1,X,4,a,1,1033,,,,,,,,,,A,1298,2,Rouge,0,X among T,56
vs12,amelie,4,4,09Nov2011,1032,mixed,500,457,8000,1,9,5.93809872963,0,X,16,z,1,786,,,,,,,,,,A,1583,1,Vert,0,X among T,57
vs12,amelie,4,4,09Nov2011,1032,mixed,500,547,8000,1,10,2.72145932192,1,L,16,a,1,2085,,,,,,,,,,A,1513,3,Rouge,0,L among T,58
vs12,amelie,4,4,09Nov2011,1032,mixed,500,438,8000,1,11,4.98408339847,0,L,4,a,1,1083,,,,,,,,,,B,6864,4,Rouge,0,L among T,59
vs12,amelie,4,4,09Nov2011,1032,mixed,500,427,8000,1,12,6.21189680618,0,X,4,a,1,901,,,,,,,,,,A,1368,1,Rouge,0,X among T,60
vs12,amelie,4,4,09Nov2011,1032,mixed,500,440,8000,1,13,2.93674130672,0,X,16,a,1,701,,,,,,,,,,A,1417,2,Rouge,0,X among T,61
vs12,amelie,4,4,09Nov2011,1032,mixed,500,570,8000,1,14,2.58643737209,1,X,4,z,1,784,,,,,,,,,,A,1184,1,Vert,0,X among T,62
vs12,amelie,4,4,09Nov2011,1032,mixed,500,495,8000,1,15,3.52415537852,1,X,8,z,1,668,,,,,,,,,,A,1367,2,Vert,0,X among T,63
vs12,amelie,4,4,09Nov2011,1032,mixed,500,592,8000,1,16,5.82647424137,1,L,4,z,1,1066,,,,,,,,,,A,1600,2,Vert,0,L among T,64
vs12,amelie,4,4,09Nov2011,1032,mixed,500,512,8000,1,17,2.86161313662,1,L,8,a,1,2666,,,,,,,,,,B,2368,4,Rouge,0,L among T,65
vs12,amelie,4,4,09Nov2011,1033,mixed,500,518,8000,1,18,1.49805398151,1,L,8,a,1,2430,,,,,,,,,,B,1432,4,Rouge,0,L among T,66
vs12,amelie,4,4,09Nov2011,1033,mixed,500,409,8000,1,19,6.2517415503,1,L,4,a,1,2167,,,,,,,,,,D,1318,8,Rouge,0,L among T,67
vs12,amelie,4,4,09Nov2011,1033,mixed,500,599,8000,1,20,2.23217114372,0,X,4,a,1,1334,,,,,,,,,,A,1248,1,Rouge,0,X among T,68
vs12,amelie,4,4,09Nov2011,1033,mixed,500,527,8000,1,21,0.584328278603,1,X,8,z,1,701,,,,,,,,,,A,1034,2,Vert,0,X among T,69
vs12,amelie,4,4,09Nov2011,1033,mixed,500,452,8000,1,22,0.458554006372,1,L,8,z,1,2534,,,,,,,,,,A,1084,3,Vert,0,L among T,70
vs12,amelie,4,4,09Nov2011,1033,mixed,500,641,8000,1,23,3.18197291336,1,X,16,a,1,934,,,,,,,,,,A,1050,1,Rouge,0,X among T,71
vs12,amelie,4,4,09Nov2011,1033,mixed,500,416,8000,1,24,0.221318520576,0,X,8,a,1,868,,,,,,,,,,A,1518,1,Rouge,0,X among T,72
vs12,amelie,4,4,09Nov2011,1033,mixed,500,474,8000,1,25,1.99801639284,1,L,4,a,1,1033,,,,,,,,,,A,1248,1,Rouge,0,L among T,73
vs12,amelie,4,4,09Nov2011,1033,mixed,500,661,8000,1,26,0.732101630828,1,X,8,z,0,917,,,,,,,,,,A,3850,3,Rouge,0,X among T,74
vs12,amelie,4,4,09Nov2011,1033,mixed,500,577,8000,1,27,4.62490612008,0,X,8,a,1,951,,,,,,,,,,A,2145,2,Rouge,0,X among T,75
vs12,amelie,4,4,09Nov2011,1033,mixed,500,672,8000,1,28,2.89148639756,0,L,8,a,1,2434,,,,,,,,,,B,2915,4,Rouge,0,L among T,76
vs12,amelie,4,4,09Nov2011,1033,mixed,500,594,8000,1,29,1.21355774805,1,X,16,a,1,1318,,,,,,,,,,A,2482,2,Rouge,0,X among T,77
vs12,amelie,4,4,09Nov2011,1033,mixed,500,450,8000,1,30,5.65820704203,0,L,4,a,1,2183,,,,,,,,,,D,1095,8,Rouge,0,L among T,78
vs12,amelie,4,4,09Nov2011,1033,mixed,500,595,8000,1,31,1.1267278479,1,X,8,z,1,1085,,,,,,,,,,A,1034,2,Vert,0,X among T,79
vs12,amelie,4,4,09Nov2011,1033,mixed,500,552,8000,1,32,4.10632772706,1,L,16,a,1,3052,,,,,,,,,,C,1464,6,Rouge,0,L among T,80
vs12,amelie,4,4,09Nov2011,1034,mixed,500,588,8000,1,33,3.96968496445,1,L,16,a,1,5736,,,,,,,,,,C,1645,7,Rouge,0,L among T,81
vs12,amelie,4,4,09Nov2011,1034,mixed,500,600,8000,1,34,2.76552500358,0,X,16,z,1,1451,,,,,,,,,,A,1032,2,Vert,0,X among T,82
vs12,amelie,4,4,09Nov2011,1034,mixed,500,679,8000,1,35,3.09556645248,0,X,4,a,1,601,,,,,,,,,,A,1550,1,Rouge,0,X among T,83
vs12,amelie,4,4,09Nov2011,1034,mixed,500,580,8000,1,36,3.97380565143,0,L,4,z,1,1799,,,,,,,,,,A,1700,3,Vert,0,L among T,84
vs12,amelie,4,4,09Nov2011,1034,mixed,500,442,8000,1,37,0.355550403795,1,X,16,a,1,718,,,,,,,,,,A,4312,1,Rouge,0,X among T,85
vs12,amelie,4,4,09Nov2011,1034,mixed,500,594,8000,1,38,5.8562446537,0,L,16,z,1,3884,,,,,,,,,,C,1101,7,Vert,0,L among T,86
vs12,amelie,4,4,09Nov2011,1034,mixed,500,650,8000,1,39,5.75913711347,1,L,8,z,1,1483,,,,,,,,,,B,2266,4,Vert,0,L among T,87
vs12,amelie,4,4,09Nov2011,1034,mixed,500,618,8000,1,40,3.59763473696,1,L,8,z,1,985,,,,,,,,,,A,1067,1,Vert,0,L among T,88
vs12,amelie,4,4,09Nov2011,1034,mixed,500,634,8000,1,41,6.06189035068,0,L,16,z,1,1464,,,,,,,,,,A,834,3,Vert,0,L among T,89
vs12,amelie,4,4,09Nov2011,1034,mixed,500,513,8000,1,42,2.10689585996,1,X,16,a,1,1168,,,,,,,,,,A,1417,3,Rouge,0,X among T,90
vs12,amelie,4,4,09Nov2011,1034,mixed,500,562,8000,1,43,5.34488318093,1,L,4,a,1,1268,,,,,,,,,,A,1233,3,Rouge,0,L among T,91
vs12,amelie,4,4,09Nov2011,1034,mixed,500,689,8000,1,44,0.0971515363843,0,X,4,z,1,883,,,,,,,,,,A,1867,1,Vert,0,X among T,92
vs12,amelie,4,4,09Nov2011,1034,mixed,500,538,8000,1,45,6.2104248248,1,L,4,z,1,1051,,,,,,,,,,A,1150,2,Vert,0,L among T,93
vs12,amelie,4,4,09Nov2011,1034,mixed,500,468,8000,1,46,3.58384334915,0,L,16,a,1,1795,,,,,,,,,,A,1399,3,Rouge,0,L among T,94
vs12,amelie,4,4,09Nov2011,1034,mixed,500,587,8000,1,47,1.96653469636,1,X,8,a,1,1034,,,,,,,,,,A,1066,1,Rouge,0,X among T,95
vs12,amelie,4,4,09Nov2011,1034,mixed,500,521,8000,1,48,4.01508249821,0,X,16,a,1,752,,,,,,,,,,A,900,1,Rouge,0,X among T,96
vs12,amelie,4,4,09Nov2011,1035,mixed,500,509,8000,1,49,2.42549069579,1,X,4,z,1,801,,,,,,,,,,A,934,1,Vert,0,X among T,97
vs12,amelie,4,4,09Nov2011,1035,mixed,500,444,8000,1,50,5.10185348803,0,X,8,a,0,467,,,,,,,,,,A,1700,2,Vert,0,X among T,98
vs12,amelie,4,4,09Nov2011,1035,mixed,500,546,8000,1,51,2.6909983923,0,X,4,a,1,1551,,,,,,,,,,A,1930,1,Rouge,0,X among T,99
vs12,amelie,4,4,09Nov2011,1035,mixed,500,576,8000,1,52,1.69691175557,0,L,8,a,1,2084,,,,,,,,,,B,1466,4,Rouge,0,L among T,100
vs12,amelie,4,4,09Nov2011,1035,mixed,500,546,8000,1,53,2.53947805768,1,X,16,a,1,1169,,,,,,,,,,A,1381,2,Rouge,0,X among T,101
vs12,amelie,4,4,09Nov2011,1035,mixed,500,645,8000,1,54,2.029037185,0,L,8,z,1,3050,,,,,,,,,,B,1866,4,Vert,0,L among T,102
vs12,amelie,4,4,09Nov2011,1035,mixed,500,558,8000,1,55,4.8134629186,0,X,8,z,1,784,,,,,,,,,,A,1063,1,Vert,0,X among T,103
vs12,amelie,4,4,09Nov2011,1035,mixed,500,442,8000,1,56,2.22479977219,0,L,4,a,1,1934,,,,,,,,,,C,1266,6,Rouge,0,L among T,104
vs12,amelie,4,4,09Nov2011,1035,mixed,500,434,8000,1,57,2.92306787437,0,L,8,z,1,1468,,,,,,,,,,B,1234,4,Vert,0,L among T,105
vs12,amelie,4,4,09Nov2011,1035,mixed,500,586,8000,1,58,3.79597476746,0,L,16,z,1,3668,,,,,,,,,,C,984,6,Vert,0,L among T,106
vs12,amelie,4,4,09Nov2011,1035,mixed,500,446,8000,1,59,0.527492381647,0,X,8,a,1,917,,,,,,,,,,A,1281,1,Rouge,0,X among T,107
vs12,amelie,4,4,09Nov2011,1035,mixed,500,552,8000,1,60,4.74666567783,0,L,16,a,1,5034,,,,,,,,,,B,1100,5,Rouge,0,L among T,108
vs12,amelie,4,4,09Nov2011,1036,mixed,500,461,8000,2,1,4.53022617224,1,X,8,a,1,1685,,,,,,,,,,A,1383,0,Rouge,0,X among T,109
vs12,amelie,4,4,09Nov2011,1036,mixed,500,475,8000,2,2,5.29015458317,1,L,8,a,1,1185,,,,,,,,,,A,895,2,Rouge,0,L among T,110
vs12,amelie,4,4,09Nov2011,1036,mixed,500,567,8000,2,3,4.02789231726,1,X,8,a,1,1384,,,,,,,,,,A,1283,1,Rouge,0,X among T,111
vs12,amelie,4,4,09Nov2011,1036,mixed,500,651,8000,2,4,6.16206371299,1,L,16,z,1,1751,,,,,,,,,,B,901,4,Vert,0,L among T,112
vs12,amelie,4,4,09Nov2011,1036,mixed,500,433,8000,2,5,1.49436841955,0,L,8,z,1,1765,,,,,,,,,,B,1000,4,Vert,0,L among T,113
vs12,amelie,4,4,09Nov2011,1036,mixed,500,554,8000,2,6,4.85314583436,0,X,4,a,1,835,,,,,,,,,,A,750,2,Rouge,0,X among T,114
vs12,amelie,4,4,09Nov2011,1036,mixed,500,571,8000,2,7,0.723359936252,0,L,8,a,1,1251,,,,,,,,,,A,1118,1,Rouge,0,L among T,115
vs12,amelie,4,4,09Nov2011,1036,mixed,500,594,8000,2,8,3.0366256165,0,L,4,a,1,1267,,,,,,,,,,A,1134,2,Rouge,0,L among T,116
vs12,amelie,4,4,09Nov2011,1036,mixed,500,511,8000,2,9,3.27772289375,0,L,4,z,1,1283,,,,,,,,,,A,1083,3,Vert,0,L among T,117
vs12,amelie,4,4,09Nov2011,1036,mixed,500,478,8000,2,10,1.84165801166,0,X,4,a,1,901,,,,,,,,,,A,1066,1,Rouge,0,X among T,118
vs12,amelie,4,4,09Nov2011,1036,mixed,500,672,8000,2,11,1.95816025598,1,L,16,a,1,2918,,,,,,,,,,B,2650,4,Rouge,0,L among T,119
vs12,amelie,4,4,09Nov2011,1036,mixed,500,481,8000,2,12,4.79116977186,1,X,4,z,1,997,,,,,,,,,,A,1067,1,Vert,0,X among T,120
vs12,amelie,4,4,09Nov2011,1036,mixed,500,648,8000,2,13,2.61700527927,1,X,16,a,1,1169,,,,,,,,,,A,983,3,Rouge,0,X among T,121
vs12,amelie,4,4,09Nov2011,1036,mixed,500,452,8000,2,14,3.87190225875,1,L,8,z,1,1834,,,,,,,,,,A,1245,3,Vert,0,L among T,122
vs12,amelie,4,4,09Nov2011,1036,mixed,500,558,8000,2,15,4.36519799812,0,L,8,a,1,1068,,,,,,,,,,A,1250,2,Rouge,0,L among T,123
vs12,amelie,4,4,09Nov2011,1037,mixed,500,538,8000,2,16,1.90246669533,1,L,4,z,1,2167,,,,,,,,,,B,1200,4,Vert,0,L among T,124
vs12,amelie,4,4,09Nov2011,1037,mixed,500,616,8000,2,17,0.256398221829,0,X,4,a,1,701,,,,,,,,,,A,801,1,Rouge,0,X among T,125
vs12,amelie,4,4,09Nov2011,1037,mixed,500,699,8000,2,18,3.14241134535,1,L,16,z,1,2568,,,,,,,,,,B,1266,4,Vert,0,L among T,126
vs12,amelie,4,4,09Nov2011,1037,mixed,500,618,8000,2,19,5.97717133881,1,X,8,a,1,800,,,,,,,,,,A,749,1,Rouge,0,X among T,127
vs12,amelie,4,4,09Nov2011,1037,mixed,500,416,8000,2,20,0.0832484305819,1,X,16,a,1,836,,,,,,,,,,A,533,1,Rouge,0,X among T,128
vs12,amelie,4,4,09Nov2011,1037,mixed,500,519,8000,2,21,1.92510588176,0,L,4,z,1,1084,,,,,,,,,,A,967,3,Vert,0,L among T,129
vs12,amelie,4,4,09Nov2011,1037,mixed,500,650,8000,2,22,5.19526016459,0,L,16,a,1,1351,,,,,,,,,,A,645,2,Rouge,0,L among T,130
vs12,amelie,4,4,09Nov2011,1037,mixed,500,510,8000,2,23,4.77910537523,0,X,4,z,1,766,,,,,,,,,,A,1184,3,Vert,0,X among T,131
vs12,amelie,4,4,09Nov2011,1037,mixed,500,535,8000,2,24,1.2032877703,0,L,4,a,1,850,,,,,,,,,,A,1116,1,Rouge,0,L among T,132
vs12,amelie,4,4,09Nov2011,1037,mixed,500,565,8000,2,25,2.09521658823,1,L,4,z,1,884,,,,,,,,,,A,818,3,Vert,0,L among T,133
vs12,amelie,4,4,09Nov2011,1037,mixed,500,673,8000,2,26,2.12312693406,0,L,16,a,1,3085,,,,,,,,,,B,1483,5,Rouge,0,L among T,134
vs12,amelie,4,4,09Nov2011,1037,mixed,500,427,8000,2,27,5.05123629382,0,X,8,a,1,1134,,,,,,,,,,A,1480,0,Rouge,0,X among T,135
vs12,amelie,4,4,09Nov2011,1037,mixed,500,568,8000,2,28,3.41759846889,0,L,16,a,1,2852,,,,,,,,,,A,2033,0,Rouge,0,L among T,136
vs12,amelie,4,4,09Nov2011,1037,mixed,500,544,8000,2,29,2.2448194917,1,L,4,z,1,1682,,,,,,,,,,A,1767,2,Vert,0,L among T,137
vs12,amelie,4,4,09Nov2011,1037,mixed,500,499,8000,2,30,3.68779404322,1,X,4,z,1,2167,,,,,,,,,,A,1933,0,Vert,0,X among T,138
vs12,amelie,4,4,09Nov2011,1037,mixed,500,473,8000,2,31,3.60700807656,0,L,8,a,1,1811,,,,,,,,,,A,1267,2,Rouge,0,L among T,139
vs12,amelie,4,4,09Nov2011,1037,mixed,500,404,8000,2,32,3.74139502717,1,X,16,z,1,1535,,,,,,,,,,A,1233,2,Vert,0,X among T,140
vs12,amelie,4,4,09Nov2011,1038,mixed,500,644,8000,2,33,4.09310345875,0,X,8,a,1,1016,,,,,,,,,,A,1285,0,Rouge,0,X among T,141
vs12,amelie,4,4,09Nov2011,1038,mixed,500,484,8000,2,34,5.46534106244,0,X,16,a,1,1068,,,,,,,,,,A,1249,0,Rouge,0,X among T,142
vs12,amelie,4,4,09Nov2011,1038,mixed,500,458,8000,2,35,0.749786308448,1,L,8,z,1,734,,,,,,,,,,A,1750,2,Vert,0,L among T,143
vs12,amelie,4,4,09Nov2011,1038,mixed,500,639,8000,2,36,1.1254718676,0,L,16,a,1,2668,,,,,,,,,,A,2682,3,Rouge,0,L among T,144
vs12,amelie,4,4,09Nov2011,1038,mixed,500,498,8000,2,37,4.01440198784,1,L,16,a,1,4882,,,,,,,,,,C,1433,7,Rouge,0,L among T,145
vs12,amelie,4,4,09Nov2011,1038,mixed,500,495,8000,2,38,4.69817572322,1,X,16,a,1,735,,,,,,,,,,A,1893,0,Rouge,0,X among T,146
vs12,amelie,4,4,09Nov2011,1038,mixed,500,402,8000,2,39,5.24168308893,0,X,16,z,1,702,,,,,,,,,,A,1199,0,Vert,0,X among T,147
vs12,amelie,4,4,09Nov2011,1038,mixed,500,653,8000,2,40,4.37847048237,0,L,4,a,1,1266,,,,,,,,,,A,1649,2,Rouge,0,L among T,148
vs12,amelie,4,4,09Nov2011,1038,mixed,500,474,8000,2,41,4.88584904169,1,X,8,z,1,751,,,,,,,,,,A,1980,0,Vert,0,X among T,149
vs12,amelie,4,4,09Nov2011,1038,mixed,500,442,8000,2,42,0.354336489897,0,X,16,z,1,551,,,,,,,,,,A,1116,0,Vert,0,X among T,150
vs12,amelie,4,4,09Nov2011,1038,mixed,500,444,8000,2,43,0.642230423748,0,L,8,a,1,1867,,,,,,,,,,A,1333,2,Rouge,0,L among T,151
vs12,amelie,4,4,09Nov2011,1038,mixed,500,680,8000,2,44,0.148204821238,1,X,4,z,1,785,,,,,,,,,,A,1267,0,Vert,0,X among T,152
vs12,amelie,4,4,09Nov2011,1038,mixed,500,499,8000,2,45,3.71740216571,0,X,4,z,1,818,,,,,,,,,,A,1984,0,Vert,0,X among T,153
vs12,amelie,4,4,09Nov2011,1038,mixed,500,685,8000,2,46,2.55755238215,1,L,8,z,1,1565,,,,,,,,,,A,1966,2,Vert,0,L among T,154
vs12,amelie,4,4,09Nov2011,1038,mixed,500,645,8000,2,47,0.761211320633,1,L,8,a,1,1751,,,,,,,,,,A,983,2,Rouge,0,L among T,155
vs12,amelie,4,4,09Nov2011,1038,mixed,500,662,8000,2,48,5.31104745669,1,X,4,z,1,1001,,,,,,,,,,A,2295,2,Vert,0,X among T,156
vs12,amelie,4,4,09Nov2011,1038,mixed,500,557,8000,2,49,3.71394926204,0,X,16,a,1,1002,,,,,,,,,,A,1333,0,Rouge,0,X among T,157
vs12,amelie,4,4,09Nov2011,1039,mixed,500,641,8000,2,50,2.61971869418,1,X,16,z,1,752,,,,,,,,,,A,1083,0,Vert,0,X among T,158
vs12,amelie,4,4,09Nov2011,1039,mixed,500,474,8000,2,51,0.449290106918,1,X,8,z,1,668,,,,,,,,,,A,1384,0,Vert,0,X among T,159
vs12,amelie,4,4,09Nov2011,1039,mixed,500,570,8000,2,52,4.86234848768,0,X,16,z,1,619,,,,,,,,,,A,1151,0,Vert,0,X among T,160
vs12,amelie,4,4,09Nov2011,1039,mixed,500,464,8000,2,53,0.316349920598,1,L,16,a,1,1735,,,,,,,,,,A,1465,2,Rouge,0,L among T,161
vs12,amelie,4,4,09Nov2011,1039,mixed,500,459,8000,2,54,3.93381175589,0,X,8,z,1,834,,,,,,,,,,A,1383,0,Vert,0,X among T,162
vs12,amelie,4,4,09Nov2011,1039,mixed,500,452,8000,2,55,0.650789888042,0,X,8,z,1,668,,,,,,,,,,A,1799,0,Vert,0,X among T,163
vs12,amelie,4,4,09Nov2011,1039,mixed,500,524,8000,2,56,1.0376480439,1,X,4,z,1,550,,,,,,,,,,A,1045,0,Vert,0,X among T,164
vs12,amelie,4,4,09Nov2011,1039,mixed,500,677,8000,2,57,3.00369582937,1,L,4,a,1,1250,,,,,,,,,,A,1450,2,Rouge,0,L among T,165
vs12,amelie,4,4,09Nov2011,1039,mixed,500,660,8000,2,58,6.20417151616,1,L,4,a,1,817,,,,,,,,,,A,817,2,Rouge,0,L among T,166
vs12,amelie,4,4,09Nov2011,1039,mixed,500,583,8000,2,59,2.22158419178,0,L,16,z,1,6111,,,,,,,,,,D,1700,8,Vert,0,L among T,167
vs12,amelie,4,4,09Nov2011,1039,mixed,500,677,8000,2,60,1.12664866213,0,X,8,z,1,802,,,,,,,,,,A,1201,0,Vert,0,X among T,168
vs12,amelie,4,4,09Nov2011,1040,mixed,500,691,8000,3,1,4.6866816693,0,X,16,a,1,2485,,,,,,,,,,A,1317,2,Rouge,0,X among T,169
vs12,amelie,4,4,09Nov2011,1040,mixed,500,525,8000,3,2,1.98685394556,0,L,16,z,1,2802,,,,,,,,,,B,1215,4,Vert,0,L among T,170
vs12,amelie,4,4,09Nov2011,1040,mixed,500,485,8000,3,3,3.54729488697,1,L,4,a,1,816,,,,,,,,,,A,2300,0,Rouge,0,L among T,171
vs12,amelie,4,4,09Nov2011,1040,mixed,500,497,8000,3,4,1.90700969494,0,X,4,a,0,751,,,,,,,,,,A,4361,2,Vert,0,X among T,172
vs12,amelie,4,4,09Nov2011,1040,mixed,500,660,8000,3,5,3.13893539491,0,X,16,z,0,1186,,,,,,,,,,A,1750,1,Rouge,0,X among T,173
vs12,amelie,4,4,09Nov2011,1040,mixed,500,458,8000,3,6,0.766720731373,1,L,4,z,1,1893,,,,,,,,,,A,2399,0,Vert,0,L among T,174
vs12,amelie,4,4,09Nov2011,1040,mixed,500,422,8000,3,7,2.79354584009,0,L,16,a,1,5899,,,,,,,,,,C,1965,6,Rouge,0,L among T,175
vs12,amelie,4,4,09Nov2011,1040,mixed,500,693,8000,3,8,1.17637159421,0,L,4,a,1,1467,,,,,,,,,,A,1733,0,Rouge,0,L among T,176
vs12,amelie,4,4,09Nov2011,1040,mixed,500,661,8000,3,9,3.68127458615,0,L,8,z,1,935,,,,,,,,,,A,1383,0,Vert,0,L among T,177
vs12,amelie,4,4,09Nov2011,1040,mixed,500,568,8000,3,10,3.19598072625,0,X,8,a,1,1334,,,,,,,,,,A,1234,0,Rouge,0,X among T,178
vs12,amelie,4,4,09Nov2011,1040,mixed,500,688,8000,3,11,2.78862508076,1,X,16,a,1,618,,,,,,,,,,A,1280,0,Rouge,0,X among T,179
vs12,amelie,4,4,09Nov2011,1040,mixed,500,625,8000,3,12,1.99229028371,1,X,16,a,1,652,,,,,,,,,,A,1250,0,Rouge,0,X among T,180
vs12,amelie,4,4,09Nov2011,1040,mixed,500,553,8000,3,13,4.87803799128,1,X,4,a,1,684,,,,,,,,,,A,867,0,Rouge,0,X among T,181
vs12,amelie,4,4,09Nov2011,1040,mixed,500,657,8000,3,14,3.73799766913,1,X,16,z,1,668,,,,,,,,,,A,1513,0,Vert,0,X among T,182
vs12,amelie,4,4,09Nov2011,1041,mixed,500,424,8000,3,15,6.18910294699,1,L,16,a,1,3319,,,,,,,,,,A,2050,3,Rouge,0,L among T,183
vs12,amelie,4,4,09Nov2011,1041,mixed,500,458,8000,3,16,1.63581923991,0,L,16,z,1,1199,,,,,,,,,,A,1018,3,Vert,0,L among T,184
vs12,amelie,4,4,09Nov2011,1041,mixed,500,631,8000,3,17,1.27537018168,1,L,16,a,1,2419,,,,,,,,,,A,1366,3,Rouge,0,L among T,185
vs12,amelie,4,4,09Nov2011,1041,mixed,500,698,8000,3,18,3.22997863313,0,L,16,a,1,2461,,,,,,,,,,A,2218,2,Rouge,0,L among T,186
vs12,amelie,4,4,09Nov2011,1041,mixed,500,431,8000,3,19,4.59546280467,1,L,8,a,1,1218,,,,,,,,,,A,1368,3,Rouge,0,L among T,187
vs12,amelie,4,4,09Nov2011,1041,mixed,500,667,8000,3,20,3.2063457871,0,L,4,z,1,1348,,,,,,,,,,A,1633,2,Vert,0,L among T,188
vs12,amelie,4,4,09Nov2011,1041,mixed,500,581,8000,3,21,2.15415861608,1,X,4,a,1,884,,,,,,,,,,A,1433,0,Rouge,0,X among T,189
vs12,amelie,4,4,09Nov2011,1041,mixed,500,479,8000,3,22,3.42938967141,0,X,4,a,1,550,,,,,,,,,,A,1060,0,Rouge,0,X among T,190
vs12,amelie,4,4,09Nov2011,1041,mixed,500,458,8000,3,23,0.605158019629,0,X,16,z,1,686,,,,,,,,,,A,1432,0,Vert,0,X among T,191
vs12,amelie,4,4,09Nov2011,1041,mixed,500,539,8000,3,24,4.14730651465,1,X,8,a,1,584,,,,,,,,,,A,1467,0,Rouge,0,X among T,192
vs12,amelie,4,4,09Nov2011,1041,mixed,500,408,8000,3,25,3.94597323186,1,X,8,z,1,551,,,,,,,,,,A,1598,0,Vert,0,X among T,193
vs12,amelie,4,4,09Nov2011,1041,mixed,500,558,8000,3,26,4.47720343508,0,L,8,a,1,1218,,,,,,,,,,A,1451,1,Rouge,0,L among T,194
vs12,amelie,4,4,09Nov2011,1041,mixed,500,498,8000,3,27,5.99344325826,1,L,16,a,1,2918,,,,,,,,,,B,1460,4,Rouge,0,L among T,195
vs12,amelie,4,4,09Nov2011,1041,mixed,500,620,8000,3,28,1.97931522891,0,L,4,z,1,733,,,,,,,,,,A,1949,0,Vert,0,L among T,196
vs12,amelie,4,4,09Nov2011,1041,mixed,500,691,8000,3,29,6.09195028025,1,L,8,a,1,1118,,,,,,,,,,A,1734,2,Rouge,0,L among T,197
vs12,amelie,4,4,09Nov2011,1041,mixed,500,489,8000,3,30,5.51900485647,0,L,8,a,1,1217,,,,,,,,,,A,1283,1,Rouge,0,L among T,198
vs12,amelie,4,4,09Nov2011,1042,mixed,500,627,8000,3,31,1.01141145805,1,X,16,a,1,2702,,,,,,,,,,A,1050,3,Rouge,0,X among T,199
vs12,amelie,4,4,09Nov2011,1042,mixed,500,402,8000,3,32,1.01523662584,0,X,8,z,1,900,,,,,,,,,,A,1316,0,Vert,0,X among T,200
vs12,amelie,4,4,09Nov2011,1042,mixed,500,627,8000,3,33,0.960276113366,1,L,4,a,1,1733,,,,,,,,,,B,1649,4,Rouge,0,L among T,201
vs12,amelie,4,4,09Nov2011,1042,mixed,500,613,8000,3,34,3.91803642209,1,L,8,a,1,1697,,,,,,,,,,B,1784,4,Rouge,0,L among T,202
vs12,amelie,4,4,09Nov2011,1042,mixed,500,699,8000,3,35,3.88539256412,1,L,8,a,1,2135,,,,,,,,,,A,934,3,Rouge,0,L among T,203
vs12,amelie,4,4,09Nov2011,1042,mixed,500,590,8000,3,36,4.58502093529,1,L,16,z,1,3299,,,,,,,,,,D,1600,9,Vert,0,L among T,204
vs12,amelie,4,4,09Nov2011,1042,mixed,500,660,8000,3,37,2.25788155745,1,X,4,z,1,1183,,,,,,,,,,A,1300,0,Vert,0,X among T,205
vs12,amelie,4,4,09Nov2011,1042,mixed,500,466,8000,3,38,4.83804644943,1,X,8,z,1,634,,,,,,,,,,A,1449,0,Vert,0,X among T,206
vs12,amelie,4,4,09Nov2011,1042,mixed,500,582,8000,3,39,3.47311480624,1,X,8,z,1,719,,,,,,,,,,A,1798,0,Vert,0,X among T,207
vs12,amelie,4,4,09Nov2011,1042,mixed,500,448,8000,3,40,2.23242439393,1,L,8,a,1,2647,,,,,,,,,,A,851,2,Rouge,0,L among T,208
vs12,amelie,4,4,09Nov2011,1042,mixed,500,553,8000,3,41,3.94744126793,0,X,16,z,1,886,,,,,,,,,,A,1233,0,Vert,0,X among T,209
vs12,amelie,4,4,09Nov2011,1042,mixed,500,454,8000,3,42,0.731645758842,0,L,4,a,1,1317,,,,,,,,,,A,1764,2,Rouge,0,L among T,210
vs12,amelie,4,4,09Nov2011,1042,mixed,500,401,8000,3,43,3.68585920349,1,L,4,z,1,1233,,,,,,,,,,A,1433,0,Vert,0,L among T,211
vs12,amelie,4,4,09Nov2011,1042,mixed,500,693,8000,3,44,0.630126175625,0,X,8,a,1,834,,,,,,,,,,A,1217,0,Rouge,0,X among T,212
vs12,amelie,4,4,09Nov2011,1042,mixed,500,593,8000,3,45,4.24735529054,1,X,8,a,1,617,,,,,,,,,,A,1048,0,Rouge,0,X among T,213
vs12,amelie,4,4,09Nov2011,1042,mixed,500,514,8000,3,46,2.44521583717,0,X,4,z,1,601,,,,,,,,,,A,1417,0,Vert,0,X among T,214
vs12,amelie,4,4,09Nov2011,1043,mixed,500,528,8000,3,47,3.71837469217,1,L,16,a,1,7012,,,,,,,,,,D,1300,8,Rouge,0,L among T,215
vs12,amelie,4,4,09Nov2011,1043,mixed,500,470,8000,3,48,2.43134928361,0,L,8,z,1,1984,,,,,,,,,,A,982,3,Vert,0,L among T,216
vs12,amelie,4,4,09Nov2011,1043,mixed,500,469,8000,3,49,6.22688287112,0,L,4,a,1,1051,,,,,,,,,,A,1167,0,Rouge,0,L among T,217
vs12,amelie,4,4,09Nov2011,1043,mixed,500,444,8000,3,50,1.88038443632,1,X,4,a,1,801,,,,,,,,,,A,1199,0,Rouge,0,X among T,218
vs12,amelie,4,4,09Nov2011,1043,mixed,500,599,8000,3,51,1.92727071634,0,X,4,z,1,634,,,,,,,,,,A,1279,0,Vert,0,X among T,219
vs12,amelie,4,4,09Nov2011,1043,mixed,500,647,8000,3,52,2.83896977998,1,L,4,a,1,1101,,,,,,,,,,A,1466,1,Rouge,0,L among T,220
vs12,amelie,4,4,09Nov2011,1043,mixed,500,418,8000,3,53,4.08521051034,0,X,4,z,1,851,,,,,,,,,,A,1617,0,Vert,0,X among T,221
vs12,amelie,4,4,09Nov2011,1043,mixed,500,696,8000,3,54,5.07688522064,0,L,16,a,1,2650,,,,,,,,,,A,1033,3,Rouge,0,L among T,222
vs12,amelie,4,4,09Nov2011,1043,mixed,500,576,8000,3,55,6.1655071617,1,X,16,z,1,1085,,,,,,,,,,A,1233,0,Vert,0,X among T,223
vs12,amelie,4,4,09Nov2011,1043,mixed,500,607,8000,3,56,2.44760173392,0,X,8,z,1,651,,,,,,,,,,A,1914,0,Vert,0,X among T,224
vs12,amelie,4,4,09Nov2011,1043,mixed,500,460,8000,3,57,2.33306736809,0,X,16,z,1,819,,,,,,,,,,A,1366,0,Vert,0,X among T,225
vs12,amelie,4,4,09Nov2011,1043,mixed,500,633,8000,3,58,2.55748526126,1,X,4,a,1,550,,,,,,,,,,A,1200,0,Rouge,0,X among T,226
vs12,amelie,4,4,09Nov2011,1043,mixed,500,674,8000,3,59,3.29983220984,0,L,8,a,1,3567,,,,,,,,,,C,750,6,Rouge,0,L among T,227
vs12,amelie,4,4,09Nov2011,1043,mixed,500,482,8000,3,60,0.497359838393,0,X,8,z,0,768,,,,,,,,,,A,1934,0,Rouge,0,X among T,228
vs12,amelie,4,4,09Nov2011,1044,mixed,500,645,8000,4,1,0.338547879204,0,L,4,z,1,1831,,,,,,,,,,A,1483,0,Vert,0,L among T,229
vs12,amelie,4,4,09Nov2011,1044,mixed,500,478,8000,4,2,4.06850345184,0,X,16,z,1,985,,,,,,,,,,A,4028,0,Vert,0,X among T,230
vs12,amelie,4,4,09Nov2011,1044,mixed,500,405,8000,4,3,3.12952398405,1,X,8,z,1,600,,,,,,,,,,A,949,0,Vert,0,X among T,231
vs12,amelie,4,4,09Nov2011,1044,mixed,500,556,8000,4,4,2.19471201225,0,L,8,a,1,1318,,,,,,,,,,A,1034,2,Rouge,0,L among T,232
vs12,amelie,4,4,09Nov2011,1044,mixed,500,590,8000,4,5,4.1118102704,1,X,4,a,1,1068,,,,,,,,,,A,1214,0,Rouge,0,X among T,233
vs12,amelie,4,4,09Nov2011,1044,mixed,500,502,8000,4,6,0.0109320114895,0,X,4,a,1,651,,,,,,,,,,A,1217,0,Rouge,0,X among T,234
vs12,amelie,4,4,09Nov2011,1044,mixed,500,637,8000,4,7,0.580143637389,0,L,16,z,1,3451,,,,,,,,,,B,1214,4,Vert,0,L among T,235
vs12,amelie,4,4,09Nov2011,1044,mixed,500,605,8000,4,8,2.88130728676,0,L,4,z,1,801,,,,,,,,,,A,1301,0,Vert,0,L among T,236
vs12,amelie,4,4,09Nov2011,1044,mixed,500,507,8000,4,9,3.17049036193,0,X,16,z,1,719,,,,,,,,,,A,1399,0,Vert,0,X among T,237
vs12,amelie,4,4,09Nov2011,1044,mixed,500,662,8000,4,10,2.66031078264,0,L,16,z,1,2514,,,,,,,,,,A,1183,3,Vert,0,L among T,238
vs12,amelie,4,4,09Nov2011,1044,mixed,500,611,8000,4,11,5.33421084273,0,X,16,z,1,802,,,,,,,,,,A,1384,0,Vert,0,X among T,239
vs12,amelie,4,4,09Nov2011,1045,mixed,500,572,8000,4,12,1.45846336653,1,L,8,z,1,1582,,,,,,,,,,A,1167,0,Vert,0,L among T,240
vs12,amelie,4,4,09Nov2011,1045,mixed,500,638,8000,4,13,2.76898909874,0,L,8,a,1,1317,,,,,,,,,,A,1149,0,Rouge,0,L among T,241
vs12,amelie,4,4,09Nov2011,1045,mixed,500,534,8000,4,14,4.17868134615,1,X,4,a,1,834,,,,,,,,,,A,1033,0,Rouge,0,X among T,242
vs12,amelie,4,4,09Nov2011,1045,mixed,500,515,8000,4,15,6.2827544283,0,X,16,z,1,796,,,,,,,,,,A,1266,0,Vert,0,X among T,243
vs12,amelie,4,4,09Nov2011,1045,mixed,500,468,8000,4,16,2.36914732878,1,L,16,z,1,1535,,,,,,,,,,A,1633,2,Vert,0,L among T,244
vs12,amelie,4,4,09Nov2011,1045,mixed,500,536,8000,4,17,5.29386966089,1,L,8,a,1,1351,,,,,,,,,,A,1464,0,Rouge,0,L among T,245
vs12,amelie,4,4,09Nov2011,1045,mixed,500,670,8000,4,18,0.451168229885,0,L,16,a,1,1052,,,,,,,,,,A,1166,0,Rouge,0,L among T,246
vs12,amelie,4,4,09Nov2011,1045,mixed,500,616,8000,4,19,4.77427592865,0,X,4,z,0,902,,,,,,,,,,A,1567,2,Rouge,0,X among T,247
vs12,amelie,4,4,09Nov2011,1045,mixed,500,620,8000,4,20,0.423779404706,0,L,8,z,1,2567,,,,,,,,,,A,2017,3,Vert,0,L among T,248
vs12,amelie,4,4,09Nov2011,1045,mixed,500,682,8000,4,21,5.77301432365,0,X,4,a,1,667,,,,,,,,,,A,1250,0,Rouge,0,X among T,249
vs12,amelie,4,4,09Nov2011,1045,mixed,500,502,8000,4,22,6.11577821357,1,X,16,a,1,836,,,,,,,,,,A,1566,0,Rouge,0,X among T,250
vs12,amelie,4,4,09Nov2011,1045,mixed,500,657,8000,4,23,5.33443709336,1,L,4,z,1,1683,,,,,,,,,,A,1000,3,Vert,0,L among T,251
vs12,amelie,4,4,09Nov2011,1045,mixed,500,644,8000,4,24,0.844991691681,1,X,8,a,1,784,,,,,,,,,,A,1394,0,Rouge,0,X among T,252
vs12,amelie,4,4,09Nov2011,1045,mixed,500,447,8000,4,25,1.16092264594,0,X,8,a,1,518,,,,,,,,,,A,1317,0,Rouge,0,X among T,253
vs12,amelie,4,4,09Nov2011,1045,mixed,500,613,8000,4,26,1.55480379287,0,L,4,a,1,1234,,,,,,,,,,A,1483,3,Rouge,0,L among T,254
vs12,amelie,4,4,09Nov2011,1045,mixed,500,535,8000,4,27,4.69827226367,0,L,16,z,1,3015,,,,,,,,,,B,1716,4,Vert,0,L among T,255
vs12,amelie,4,4,09Nov2011,1045,mixed,500,546,8000,4,28,0.313402190027,0,X,4,z,1,683,,,,,,,,,,A,1001,0,Vert,0,X among T,256
vs12,amelie,4,4,09Nov2011,1045,mixed,500,564,8000,4,29,3.55847094351,1,L,8,a,1,1346,,,,,,,,,,A,933,2,Rouge,0,L among T,257
vs12,amelie,4,4,09Nov2011,1046,mixed,500,424,8000,4,30,0.501288665281,1,X,4,z,1,633,,,,,,,,,,A,1233,0,Vert,0,X among T,258
vs12,amelie,4,4,09Nov2011,1046,mixed,500,544,8000,4,31,1.49917074729,1,L,4,a,1,1917,,,,,,,,,,A,1431,2,Rouge,0,L among T,259
vs12,amelie,4,4,09Nov2011,1046,mixed,500,502,8000,4,32,5.0210016655,0,L,8,a,1,1400,,,,,,,,,,B,1449,4,Rouge,0,L among T,260
vs12,amelie,4,4,09Nov2011,1046,mixed,500,556,8000,4,33,0.693055077122,1,L,16,a,1,1136,,,,,,,,,,A,1034,2,Rouge,0,L among T,261
vs12,amelie,4,4,09Nov2011,1046,mixed,500,596,8000,4,34,4.91410113625,1,X,8,a,1,847,,,,,,,,,,A,1433,0,Rouge,0,X among T,262
vs12,amelie,4,4,09Nov2011,1046,mixed,500,503,8000,4,35,0.74208604836,0,L,4,a,1,1634,,,,,,,,,,A,983,3,Rouge,0,L among T,263
vs12,amelie,4,4,09Nov2011,1046,mixed,500,487,8000,4,36,5.65773217501,1,X,16,z,1,1002,,,,,,,,,,A,1448,0,Vert,0,X among T,264
vs12,amelie,4,4,09Nov2011,1046,mixed,500,638,8000,4,37,0.910962804993,1,X,16,z,1,635,,,,,,,,,,A,1250,0,Vert,0,X among T,265
vs12,amelie,4,4,09Nov2011,1046,mixed,500,627,8000,4,38,1.96525085751,1,L,4,z,1,1367,,,,,,,,,,A,967,3,Vert,0,L among T,266
vs12,amelie,4,4,09Nov2011,1046,mixed,500,583,8000,4,39,4.49196283411,1,L,16,a,1,5599,,,,,,,,,,D,1283,9,Rouge,0,L among T,267
vs12,amelie,4,4,09Nov2011,1046,mixed,500,492,8000,4,40,3.82971522367,0,X,8,a,1,918,,,,,,,,,,A,1712,0,Rouge,0,X among T,268
vs12,amelie,4,4,09Nov2011,1046,mixed,500,689,8000,4,41,0.123464964229,1,X,8,z,1,752,,,,,,,,,,A,1766,0,Vert,0,X among T,269
vs12,amelie,4,4,09Nov2011,1046,mixed,500,639,8000,4,42,3.9604791506,1,X,4,z,1,968,,,,,,,,,,A,2881,0,Vert,0,X among T,270
vs12,amelie,4,4,09Nov2011,1046,mixed,500,516,8000,4,43,0.113837675854,1,L,8,z,1,1685,,,,,,,,,,B,1550,4,Vert,0,L among T,271
vs12,amelie,4,4,09Nov2011,1046,mixed,500,646,8000,4,44,3.30225843067,1,L,4,z,1,1084,,,,,,,,,,A,898,3,Vert,0,L among T,272
vs12,amelie,4,4,09Nov2011,1046,mixed,500,660,8000,4,45,5.57842904282,0,L,16,a,1,2769,,,,,,,,,,B,1000,4,Rouge,0,L among T,273
vs12,amelie,4,4,09Nov2011,1046,mixed,500,465,8000,4,46,4.89388762231,0,L,8,z,1,1168,,,,,,,,,,A,917,2,Vert,0,L among T,274
vs12,amelie,4,4,09Nov2011,1047,mixed,500,572,8000,4,47,2.31451205648,0,L,4,a,1,830,,,,,,,,,,A,1833,0,Rouge,0,L among T,275
vs12,amelie,4,4,09Nov2011,1047,mixed,500,401,8000,4,48,4.13830131582,1,L,4,z,1,1600,,,,,,,,,,B,850,4,Vert,0,L among T,276
vs12,amelie,4,4,09Nov2011,1047,mixed,500,670,8000,4,49,1.66504409772,0,X,4,a,1,783,,,,,,,,,,A,1079,0,Rouge,0,X among T,277
vs12,amelie,4,4,09Nov2011,1047,mixed,500,607,8000,4,50,2.44546686566,1,L,16,z,1,3602,,,,,,,,,,C,1166,6,Vert,0,L among T,278
vs12,amelie,4,4,09Nov2011,1047,mixed,500,440,8000,4,51,3.00709826679,1,X,16,z,1,785,,,,,,,,,,A,1096,0,Vert,0,X among T,279
vs12,amelie,4,4,09Nov2011,1047,mixed,500,669,8000,4,52,2.42412535126,1,X,16,z,1,685,,,,,,,,,,A,1816,0,Vert,0,X among T,280
vs12,amelie,4,4,09Nov2011,1047,mixed,500,457,8000,4,53,0.680707401899,0,X,8,a,1,518,,,,,,,,,,A,1099,0,Rouge,0,X among T,281
vs12,amelie,4,4,09Nov2011,1047,mixed,500,512,8000,4,54,4.46094290525,0,X,8,a,1,634,,,,,,,,,,A,1365,0,Rouge,0,X among T,282
vs12,amelie,4,4,09Nov2011,1047,mixed,500,689,8000,4,55,4.63773710492,0,X,8,a,1,667,,,,,,,,,,A,1167,0,Rouge,0,X among T,283
vs12,amelie,4,4,09Nov2011,1047,mixed,500,692,8000,4,56,2.18036330986,0,X,16,z,1,768,,,,,,,,,,A,1166,0,Vert,0,X among T,284
vs12,amelie,4,4,09Nov2011,1047,mixed,500,663,8000,4,57,3.61268179131,1,L,16,a,0,3581,,,,,,,,,,A,1851,3,Vert,0,L among T,285
vs12,amelie,4,4,09Nov2011,1047,mixed,500,610,8000,4,58,4.19710801668,1,L,8,z,1,2417,,,,,,,,,,A,1163,2,Vert,0,L among T,286
vs12,amelie,4,4,09Nov2011,1047,mixed,500,688,8000,4,59,0.273738931679,1,X,8,a,1,952,,,,,,,,,,A,1551,0,Rouge,0,X among T,287
vs12,amelie,4,4,09Nov2011,1047,mixed,500,419,8000,4,60,1.37207114329,1,X,4,z,1,617,,,,,,,,,,A,1300,0,Vert,0,X among T,288
vs12,amelie,4,4,09Nov2011,1048,mixed,500,432,8000,5,1,1.54569399835,1,L,16,a,1,1635,,,,,,,,,,A,1846,0,Rouge,0,L among T,289
vs12,amelie,4,4,09Nov2011,1048,mixed,500,588,8000,5,2,2.34607553333,0,X,8,z,1,668,,,,,,,,,,A,1916,0,Vert,0,X among T,290
vs12,amelie,4,4,09Nov2011,1048,mixed,500,677,8000,5,3,0.25124396474,1,X,8,z,1,551,,,,,,,,,,A,1384,0,Vert,0,X among T,291
vs12,amelie,4,4,09Nov2011,1048,mixed,500,539,8000,5,4,4.24324533208,0,X,8,a,1,548,,,,,,,,,,A,983,0,Rouge,0,X among T,292
vs12,amelie,4,4,09Nov2011,1048,mixed,500,621,8000,5,5,0.0902988661248,1,L,16,z,1,3618,,,,,,,,,,C,1416,6,Vert,0,L among T,293
vs12,amelie,4,4,09Nov2011,1048,mixed,500,567,8000,5,6,2.30224771388,1,X,4,z,1,929,,,,,,,,,,A,1666,0,Vert,0,X among T,294
vs12,amelie,4,4,09Nov2011,1048,mixed,500,579,8000,5,7,2.21482723969,1,L,4,a,1,1801,,,,,,,,,,D,1200,9,Rouge,0,L among T,295
vs12,amelie,4,4,09Nov2011,1048,mixed,500,462,8000,5,8,3.12747311654,0,L,16,z,1,2799,,,,,,,,,,B,1483,4,Vert,0,L among T,296
vs12,amelie,4,4,09Nov2011,1048,mixed,500,634,8000,5,9,1.92215763027,0,X,16,z,1,685,,,,,,,,,,A,1632,0,Vert,0,X among T,297
vs12,amelie,4,4,09Nov2011,1048,mixed,500,571,8000,5,10,0.782067012415,0,L,8,a,1,2265,,,,,,,,,,B,1017,5,Rouge,0,L among T,298
vs12,amelie,4,4,09Nov2011,1048,mixed,500,626,8000,5,11,4.33379090614,1,L,16,a,1,2335,,,,,,,,,,B,916,4,Rouge,0,L among T,299
vs12,amelie,4,4,09Nov2011,1048,mixed,500,665,8000,5,12,0.688131568834,1,L,8,a,1,2297,,,,,,,,,,B,2117,4,Rouge,0,L among T,300
vs12,amelie,4,4,09Nov2011,1048,mixed,500,415,8000,5,13,0.0310370594833,1,L,4,z,1,867,,,,,,,,,,A,1250,0,Vert,0,L among T,301
vs12,amelie,4,4,09Nov2011,1048,mixed,500,470,8000,5,14,5.18935058974,1,L,8,a,1,1366,,,,,,,,,,A,2201,2,Rouge,0,L among T,302
vs12,amelie,4,4,09Nov2011,1049,mixed,500,453,8000,5,15,4.12078341049,1,L,8,z,1,1734,,,,,,,,,,A,1333,0,Vert,0,L among T,303
vs12,amelie,4,4,09Nov2011,1049,mixed,500,612,8000,5,16,5.56741422328,0,L,4,z,1,1049,,,,,,,,,,A,1350,0,Vert,0,L among T,304
vs12,amelie,4,4,09Nov2011,1049,mixed,500,503,8000,5,17,5.559261165,0,X,8,a,1,2101,,,,,,,,,,A,1216,2,Rouge,0,X among T,305
vs12,amelie,4,4,09Nov2011,1049,mixed,500,672,8000,5,18,4.53098253665,1,X,8,a,1,601,,,,,,,,,,A,1029,0,Rouge,0,X among T,306
vs12,amelie,4,4,09Nov2011,1049,mixed,500,417,8000,5,19,4.47741561777,0,L,4,z,1,834,,,,,,,,,,A,1717,1,Vert,0,L among T,307
vs12,amelie,4,4,09Nov2011,1049,mixed,500,666,8000,5,20,0.215968127329,0,L,8,z,1,1168,,,,,,,,,,A,2600,0,Vert,0,L among T,308
vs12,amelie,4,4,09Nov2011,1049,mixed,500,538,8000,5,21,3.25385268721,1,L,4,z,1,817,,,,,,,,,,A,1366,0,Vert,0,L among T,309
vs12,amelie,4,4,09Nov2011,1049,mixed,500,610,8000,5,22,1.91683939997,1,X,16,z,1,1403,,,,,,,,,,A,1400,0,Vert,0,X among T,310
vs12,amelie,4,4,09Nov2011,1049,mixed,500,400,8000,5,23,6.27820377312,0,L,8,z,1,1217,,,,,,,,,,A,1096,0,Vert,0,L among T,311
vs12,amelie,4,4,09Nov2011,1049,mixed,500,561,8000,5,24,6.18596739263,0,L,4,z,1,1268,,,,,,,,,,A,1700,2,Vert,0,L among T,312
vs12,amelie,4,4,09Nov2011,1049,mixed,500,556,8000,5,25,3.19048157201,1,L,16,z,1,1819,,,,,,,,,,A,1310,2,Vert,0,L among T,313
vs12,amelie,4,4,09Nov2011,1049,mixed,500,606,8000,5,26,3.2407400146,0,X,4,z,1,1301,,,,,,,,,,A,1167,0,Vert,0,X among T,314
vs12,amelie,4,4,09Nov2011,1049,mixed,500,525,8000,5,27,4.7526975657,0,L,16,a,1,4782,,,,,,,,,,C,1616,7,Rouge,0,L among T,315
vs12,amelie,4,4,09Nov2011,1049,mixed,500,612,8000,5,28,0.43653137745,1,X,16,a,1,718,,,,,,,,,,A,1066,0,Rouge,0,X among T,316
vs12,amelie,4,4,09Nov2011,1049,mixed,500,694,8000,5,29,5.63176525009,0,X,4,a,1,534,,,,,,,,,,A,1398,0,Rouge,0,X among T,317
vs12,amelie,4,4,09Nov2011,1049,mixed,500,415,8000,5,30,6.19336898434,0,L,8,a,1,1168,,,,,,,,,,A,1166,2,Rouge,0,L among T,318
vs12,amelie,4,4,09Nov2011,1049,mixed,500,623,8000,5,31,5.77095870102,1,L,4,a,1,934,,,,,,,,,,A,1133,2,Rouge,0,L among T,319
vs12,amelie,4,4,09Nov2011,1049,mixed,500,542,8000,5,32,4.13128858433,0,X,4,z,1,750,,,,,,,,,,A,1414,0,Vert,0,X among T,320
vs12,amelie,4,4,09Nov2011,1050,mixed,500,536,8000,5,33,4.03617108084,1,L,8,a,1,2285,,,,,,,,,,B,1516,4,Rouge,0,L among T,321
vs12,amelie,4,4,09Nov2011,1050,mixed,500,531,8000,5,34,0.908071127171,1,X,8,z,1,984,,,,,,,,,,A,1162,0,Vert,0,X among T,322
vs12,amelie,4,4,09Nov2011,1050,mixed,500,641,8000,5,35,0.360847396266,1,X,8,z,1,568,,,,,,,,,,A,1316,0,Vert,0,X among T,323
vs12,amelie,4,4,09Nov2011,1050,mixed,500,595,8000,5,36,1.84419728634,0,L,16,z,1,5099,,,,,,,,,,D,1883,10,Vert,0,L among T,324
vs12,amelie,4,4,09Nov2011,1050,mixed,500,609,8000,5,37,1.42618619853,1,X,4,z,1,1333,,,,,,,,,,A,1416,0,Vert,0,X among T,325
vs12,amelie,4,4,09Nov2011,1050,mixed,500,454,8000,5,38,5.25713892242,0,X,16,a,1,553,,,,,,,,,,A,1013,0,Rouge,0,X among T,326
vs12,amelie,4,4,09Nov2011,1050,mixed,500,410,8000,5,39,0.740363239408,1,X,4,z,1,885,,,,,,,,,,A,1118,0,Vert,0,X among T,327
vs12,amelie,4,4,09Nov2011,1050,mixed,500,441,8000,5,40,0.932348170132,0,X,4,a,1,567,,,,,,,,,,A,1334,0,Rouge,0,X among T,328
vs12,amelie,4,4,09Nov2011,1050,mixed,500,480,8000,5,41,1.40710864201,0,L,8,a,1,1767,,,,,,,,,,A,985,3,Rouge,0,L among T,329
vs12,amelie,4,4,09Nov2011,1050,mixed,500,408,8000,5,42,2.90895157105,0,L,4,z,0,935,,,,,,,,,,A,1183,1,Rouge,0,L among T,330
vs12,amelie,4,4,09Nov2011,1050,mixed,500,670,8000,5,43,2.69040306033,1,X,4,z,1,950,,,,,,,,,,A,1167,0,Vert,0,X among T,331
vs12,amelie,4,4,09Nov2011,1050,mixed,500,624,8000,5,44,4.67725866828,0,X,16,a,1,697,,,,,,,,,,A,1301,0,Rouge,0,X among T,332
vs12,amelie,4,4,09Nov2011,1050,mixed,500,591,8000,5,45,0.0789852268862,1,L,16,z,1,2486,,,,,,,,,,B,1182,4,Vert,0,L among T,333
vs12,amelie,4,4,09Nov2011,1050,mixed,500,697,8000,5,46,4.34053657335,1,L,8,a,1,2515,,,,,,,,,,D,1300,9,Rouge,0,L among T,334
vs12,amelie,4,4,09Nov2011,1050,mixed,500,415,8000,5,47,5.38028831509,0,X,8,z,1,784,,,,,,,,,,A,1250,0,Vert,0,X among T,335
vs12,amelie,4,4,09Nov2011,1050,mixed,500,650,8000,5,48,5.36440849946,1,X,16,z,1,618,,,,,,,,,,A,1578,0,Vert,0,X among T,336
vs12,amelie,4,4,09Nov2011,1050,mixed,500,529,8000,5,49,0.238288807025,0,X,8,z,1,617,,,,,,,,,,A,1050,0,Vert,0,X among T,337
vs12,amelie,4,4,09Nov2011,1050,mixed,500,649,8000,5,50,5.44578947291,0,X,4,a,0,650,,,,,,,,,,A,1016,0,Vert,0,X among T,338
vs12,amelie,4,4,09Nov2011,1051,mixed,500,572,8000,5,51,4.99051169506,1,L,4,z,1,2067,,,,,,,,,,C,2230,6,Vert,0,L among T,339
vs12,amelie,4,4,09Nov2011,1051,mixed,500,448,8000,5,52,2.44490745602,0,X,16,a,1,1018,,,,,,,,,,A,1733,0,Rouge,0,X among T,340
vs12,amelie,4,4,09Nov2011,1051,mixed,500,524,8000,5,53,5.27431313366,0,X,16,z,1,618,,,,,,,,,,A,2332,0,Vert,0,X among T,341
vs12,amelie,4,4,09Nov2011,1051,mixed,500,633,8000,5,54,0.663840190612,0,L,16,a,1,2085,,,,,,,,,,A,899,2,Rouge,0,L among T,342
vs12,amelie,4,4,09Nov2011,1051,mixed,500,446,8000,5,55,0.467241494264,0,L,16,a,1,6797,,,,,,,,,,D,1484,10,Rouge,0,L among T,343
vs12,amelie,4,4,09Nov2011,1051,mixed,500,566,8000,5,56,5.27587743218,1,X,8,a,1,1302,,,,,,,,,,A,1330,0,Rouge,0,X among T,344
vs12,amelie,4,4,09Nov2011,1051,mixed,500,560,8000,5,57,5.64037925614,1,X,4,a,1,567,,,,,,,,,,A,2034,0,Rouge,0,X among T,345
vs12,amelie,4,4,09Nov2011,1051,mixed,500,576,8000,5,58,1.42445545539,0,L,4,z,1,1467,,,,,,,,,,A,1380,0,Vert,0,L among T,346
vs12,amelie,4,4,09Nov2011,1051,mixed,500,679,8000,5,59,3.34577504977,1,X,16,z,1,768,,,,,,,,,,A,1450,0,Vert,0,X among T,347
vs12,amelie,4,4,09Nov2011,1051,mixed,500,545,8000,5,60,1.02330625029,1,X,16,a,1,653,,,,,,,,,,A,1934,0,Rouge,0,X among T,348
vs12,amelie,4,4,09Nov2011,1053,mixed,500,505,8000,6,1,4.69436265398,1,L,8,z,1,2867,,,,,,,,,,A,1966,2,Vert,0,L among T,349
vs12,amelie,4,4,09Nov2011,1053,mixed,500,469,8000,6,2,3.48283003055,1,L,4,z,1,1417,,,,,,,,,,A,1231,2,Vert,0,L among T,350
vs12,amelie,4,4,09Nov2011,1053,mixed,500,422,8000,6,3,4.01782133892,0,X,8,a,1,668,,,,,,,,,,A,2618,0,Rouge,0,X among T,351
vs12,amelie,4,4,09Nov2011,1053,mixed,500,658,8000,6,4,4.24091996197,0,L,8,a,1,2151,,,,,,,,,,A,2145,2,Rouge,0,L among T,352
vs12,amelie,4,4,09Nov2011,1053,mixed,500,627,8000,6,5,0.474460543109,1,X,4,z,1,784,,,,,,,,,,A,1167,0,Vert,0,X among T,353
vs12,amelie,4,4,09Nov2011,1053,mixed,500,416,8000,6,6,0.897021882724,1,X,16,a,1,869,,,,,,,,,,A,1233,0,Rouge,0,X among T,354
vs12,amelie,4,4,09Nov2011,1053,mixed,500,492,8000,6,7,1.22011297651,0,L,16,a,1,2534,,,,,,,,,,A,1067,2,Rouge,0,L among T,355
vs12,amelie,4,4,09Nov2011,1053,mixed,500,568,8000,6,8,0.998322241279,1,X,8,z,1,618,,,,,,,,,,A,1100,0,Vert,0,X among T,356
vs12,amelie,4,4,09Nov2011,1053,mixed,500,685,8000,6,9,2.63567852837,0,L,8,a,1,1864,,,,,,,,,,A,1050,1,Rouge,0,L among T,357
vs12,amelie,4,4,09Nov2011,1053,mixed,500,640,8000,6,10,1.89556190557,0,X,16,z,1,885,,,,,,,,,,A,1251,0,Vert,0,X among T,358
vs12,amelie,4,4,09Nov2011,1053,mixed,500,608,8000,6,11,6.09516758145,0,L,8,z,1,2234,,,,,,,,,,B,1228,5,Vert,0,L among T,359
vs12,amelie,4,4,09Nov2011,1053,mixed,500,614,8000,6,12,3.11584788306,0,X,16,a,1,651,,,,,,,,,,A,1167,0,Rouge,0,X among T,360
vs12,amelie,4,4,09Nov2011,1053,mixed,500,458,8000,6,13,4.24065156226,1,L,8,a,1,900,,,,,,,,,,A,1334,0,Rouge,0,L among T,361
vs12,amelie,4,4,09Nov2011,1054,mixed,500,513,8000,6,14,0.133625103557,1,L,16,a,1,1329,,,,,,,,,,A,917,2,Rouge,0,L among T,362
vs12,amelie,4,4,09Nov2011,1054,mixed,500,419,8000,6,15,3.86261404369,1,L,16,z,1,1935,,,,,,,,,,C,1100,6,Vert,0,L among T,363
vs12,amelie,4,4,09Nov2011,1054,mixed,500,699,8000,6,16,2.70367087107,1,X,16,a,1,636,,,,,,,,,,A,1200,0,Rouge,0,X among T,364
vs12,amelie,4,4,09Nov2011,1054,mixed,500,527,8000,6,17,4.91974868848,0,X,8,z,1,618,,,,,,,,,,A,1067,0,Vert,0,X among T,365
vs12,amelie,4,4,09Nov2011,1054,mixed,500,687,8000,6,18,4.00479009599,0,L,4,z,1,1551,,,,,,,,,,A,1300,2,Vert,0,L among T,366
vs12,amelie,4,4,09Nov2011,1054,mixed,500,419,8000,6,19,3.04808708766,0,L,4,a,1,985,,,,,,,,,,A,1180,3,Rouge,0,L among T,367
vs12,amelie,4,4,09Nov2011,1054,mixed,500,546,8000,6,20,3.28627421803,1,X,4,a,1,934,,,,,,,,,,A,1416,0,Rouge,0,X among T,368
vs12,amelie,4,4,09Nov2011,1054,mixed,500,544,8000,6,21,4.33108876056,0,L,4,a,1,1000,,,,,,,,,,B,1450,4,Rouge,0,L among T,369
vs12,amelie,4,4,09Nov2011,1054,mixed,500,585,8000,6,22,2.71479355055,0,X,4,z,0,617,,,,,,,,,,A,1245,0,Rouge,0,X among T,370
vs12,amelie,4,4,09Nov2011,1054,mixed,500,418,8000,6,23,3.15250113816,0,X,8,a,1,1119,,,,,,,,,,A,1151,0,Rouge,0,X among T,371
vs12,amelie,4,4,09Nov2011,1054,mixed,500,488,8000,6,24,3.86556663256,0,L,8,z,1,1834,,,,,,,,,,B,1084,4,Vert,0,L among T,372
vs12,amelie,4,4,09Nov2011,1054,mixed,500,691,8000,6,25,5.05286942588,1,X,4,z,1,734,,,,,,,,,,A,1466,0,Vert,0,X among T,373
vs12,amelie,4,4,09Nov2011,1054,mixed,500,588,8000,6,26,3.85496200779,0,L,16,a,1,2335,,,,,,,,,,B,1967,5,Rouge,0,L among T,374
vs12,amelie,4,4,09Nov2011,1054,mixed,500,650,8000,6,27,4.84909384326,1,L,4,a,1,1667,,,,,,,,,,C,1149,7,Rouge,0,L among T,375
vs12,amelie,4,4,09Nov2011,1054,mixed,500,694,8000,6,28,5.79727578914,1,L,4,a,1,633,,,,,,,,,,A,1533,0,Rouge,0,L among T,376
vs12,amelie,4,4,09Nov2011,1054,mixed,500,594,8000,6,29,5.74481367799,1,L,16,z,1,2799,,,,,,,,,,C,1417,6,Vert,0,L among T,377
vs12,amelie,4,4,09Nov2011,1054,mixed,500,583,8000,6,30,2.13840207125,0,X,4,z,1,1084,,,,,,,,,,A,1233,0,Vert,0,X among T,378
vs12,amelie,4,4,09Nov2011,1054,mixed,500,685,8000,6,31,0.981188958164,1,X,4,a,1,534,,,,,,,,,,A,1662,0,Rouge,0,X among T,379
vs12,amelie,4,4,09Nov2011,1055,mixed,500,471,8000,6,32,2.28502416225,0,L,16,z,1,1186,,,,,,,,,,A,1801,2,Vert,0,L among T,380
vs12,amelie,4,4,09Nov2011,1055,mixed,500,432,8000,6,33,3.53616687598,1,X,16,z,1,885,,,,,,,,,,A,1316,0,Vert,0,X among T,381
vs12,amelie,4,4,09Nov2011,1055,mixed,500,511,8000,6,34,2.75924359728,0,L,4,a,1,934,,,,,,,,,,A,1816,2,Rouge,0,L among T,382
vs12,amelie,4,4,09Nov2011,1055,mixed,500,466,8000,6,35,5.92879247143,0,L,16,z,1,1919,,,,,,,,,,A,1299,0,Vert,0,L among T,383
vs12,amelie,4,4,09Nov2011,1055,mixed,500,530,8000,6,36,0.451298719896,1,X,16,z,1,729,,,,,,,,,,A,1250,0,Vert,0,X among T,384
vs12,amelie,4,4,09Nov2011,1055,mixed,500,542,8000,6,37,6.27467484136,0,X,4,a,1,668,,,,,,,,,,A,1500,0,Rouge,0,X among T,385
vs12,amelie,4,4,09Nov2011,1055,mixed,500,458,8000,6,38,0.12745508644,1,L,16,z,1,2385,,,,,,,,,,B,2397,4,Vert,0,L among T,386
vs12,amelie,4,4,09Nov2011,1055,mixed,500,616,8000,6,39,3.30228551978,0,X,8,a,1,901,,,,,,,,,,A,1283,0,Rouge,0,X among T,387
vs12,amelie,4,4,09Nov2011,1055,mixed,500,632,8000,6,40,4.09804028823,1,L,8,a,1,1784,,,,,,,,,,A,1164,2,Rouge,0,L among T,388
vs12,amelie,4,4,09Nov2011,1055,mixed,500,654,8000,6,41,0.583347966323,0,L,16,z,1,1135,,,,,,,,,,B,967,4,Vert,0,L among T,389
vs12,amelie,4,4,09Nov2011,1055,mixed,500,663,8000,6,42,4.33417621789,1,X,8,a,1,484,,,,,,,,,,A,1183,0,Rouge,0,X among T,390
vs12,amelie,4,4,09Nov2011,1055,mixed,500,614,8000,6,43,0.918524275326,1,X,8,a,1,635,,,,,,,,,,A,1015,0,Rouge,0,X among T,391
vs12,amelie,4,4,09Nov2011,1055,mixed,500,485,8000,6,44,1.04873262566,1,L,16,a,1,1701,,,,,,,,,,A,834,2,Rouge,0,L among T,392
vs12,amelie,4,4,09Nov2011,1055,mixed,500,493,8000,6,45,2.87704625253,0,X,16,z,1,1202,,,,,,,,,,A,916,0,Vert,0,X among T,393
vs12,amelie,4,4,09Nov2011,1055,mixed,500,523,8000,6,46,0.258434939061,0,X,8,a,1,747,,,,,,,,,,A,1268,0,Rouge,0,X among T,394
vs12,amelie,4,4,09Nov2011,1055,mixed,500,536,8000,6,47,1.81267044203,0,X,16,a,0,635,,,,,,,,,,A,1451,0,Vert,0,X among T,395
vs12,amelie,4,4,09Nov2011,1055,mixed,500,428,8000,6,48,2.26972841388,1,L,4,z,1,1716,,,,,,,,,,A,966,2,Vert,0,L among T,396
vs12,amelie,4,4,09Nov2011,1055,mixed,500,414,8000,6,49,2.07022470392,1,L,8,a,1,1316,,,,,,,,,,A,851,3,Rouge,0,L among T,397
vs12,amelie,4,4,09Nov2011,1055,mixed,500,453,8000,6,50,5.02057764522,0,X,4,z,1,750,,,,,,,,,,A,1150,0,Vert,0,X among T,398
vs12,amelie,4,4,09Nov2011,1055,mixed,500,644,8000,6,51,1.51913181432,1,X,8,a,1,601,,,,,,,,,,A,1068,0,Rouge,0,X among T,399
vs12,amelie,4,4,09Nov2011,1056,mixed,500,533,8000,6,52,1.64616305757,0,X,16,a,1,667,,,,,,,,,,A,1699,0,Rouge,0,X among T,400
vs12,amelie,4,4,09Nov2011,1056,mixed,500,498,8000,6,53,0.687053894934,1,L,8,z,1,1218,,,,,,,,,,A,933,2,Vert,0,L among T,401
vs12,amelie,4,4,09Nov2011,1056,mixed,500,610,8000,6,54,1.2289117188,1,X,16,z,1,869,,,,,,,,,,A,999,0,Vert,0,X among T,402
vs12,amelie,4,4,09Nov2011,1056,mixed,500,471,8000,6,55,0.274725680767,0,X,4,a,1,667,,,,,,,,,,A,1200,0,Rouge,0,X among T,403
vs12,amelie,4,4,09Nov2011,1056,mixed,500,638,8000,6,56,2.38756355371,1,L,4,a,1,1284,,,,,,,,,,A,1450,3,Rouge,0,L among T,404
vs12,amelie,4,4,09Nov2011,1056,mixed,500,635,8000,6,57,3.92068694993,1,X,4,z,1,768,,,,,,,,,,A,1414,0,Vert,0,X among T,405
vs12,amelie,4,4,09Nov2011,1056,mixed,500,571,8000,6,58,3.22194577415,0,L,8,a,1,1418,,,,,,,,,,B,1817,4,Rouge,0,L among T,406
vs12,amelie,4,4,09Nov2011,1056,mixed,500,601,8000,6,59,1.78390025483,1,X,8,z,0,717,,,,,,,,,,A,1699,0,Rouge,0,X among T,407
vs12,amelie,4,4,09Nov2011,1056,mixed,500,465,8000,6,60,2.92442109214,0,L,4,a,1,1518,,,,,,,,,,A,884,2,Rouge,0,L among T,408
vs12,amelie,4,4,09Nov2011,1057,mixed,500,449,8000,7,1,3.31313170379,1,X,16,z,1,934,,,,,,,,,,A,1250,0,Vert,0,X among T,409
vs12,amelie,4,4,09Nov2011,1057,mixed,500,518,8000,7,2,0.157585567911,1,X,4,z,1,567,,,,,,,,,,A,1217,0,Vert,0,X among T,410
vs12,amelie,4,4,09Nov2011,1057,mixed,500,565,8000,7,3,2.97791892052,0,L,8,a,1,1268,,,,,,,,,,A,967,1,Rouge,0,L among T,411
vs12,amelie,4,4,09Nov2011,1057,mixed,500,592,8000,7,4,4.18793180338,0,L,4,a,1,694,,,,,,,,,,A,1001,0,Rouge,0,L among T,412
vs12,amelie,4,4,09Nov2011,1057,mixed,500,641,8000,7,5,5.16862443994,0,L,4,a,1,967,,,,,,,,,,A,1133,0,Rouge,0,L among T,413
vs12,amelie,4,4,09Nov2011,1057,mixed,500,416,8000,7,6,5.44256048356,0,L,16,a,1,2835,,,,,,,,,,B,1097,5,Rouge,0,L among T,414
vs12,amelie,4,4,09Nov2011,1057,mixed,500,676,8000,7,7,2.34439757657,0,X,4,a,1,718,,,,,,,,,,A,966,0,Rouge,0,X among T,415
vs12,amelie,4,4,09Nov2011,1057,mixed,500,562,8000,7,8,4.85085829727,1,X,4,a,1,501,,,,,,,,,,A,982,0,Rouge,0,X among T,416
vs12,amelie,4,4,09Nov2011,1057,mixed,500,443,8000,7,9,3.91363706181,0,X,8,z,1,618,,,,,,,,,,A,1231,0,Vert,0,X among T,417
vs12,amelie,4,4,09Nov2011,1057,mixed,500,481,8000,7,10,2.81088886599,0,X,4,z,1,584,,,,,,,,,,A,1333,0,Vert,0,X among T,418
vs12,amelie,4,4,09Nov2011,1057,mixed,500,579,8000,7,11,4.96054023744,1,L,16,z,1,3101,,,,,,,,,,C,1745,7,Vert,0,L among T,419
vs12,amelie,4,4,09Nov2011,1057,mixed,500,597,8000,7,12,5.80239801724,0,X,16,z,1,785,,,,,,,,,,A,1116,0,Vert,0,X among T,420
vs12,amelie,4,4,09Nov2011,1058,mixed,500,624,8000,7,13,1.49191944317,1,L,8,z,1,1218,,,,,,,,,,A,950,3,Vert,0,L among T,421
vs12,amelie,4,4,09Nov2011,1058,mixed,500,403,8000,7,14,2.55055116355,0,X,4,z,1,884,,,,,,,,,,A,1114,0,Vert,0,X among T,422
vs12,amelie,4,4,09Nov2011,1058,mixed,500,692,8000,7,15,1.30416914036,1,L,4,z,1,1033,,,,,,,,,,A,850,3,Vert,0,L among T,423
vs12,amelie,4,4,09Nov2011,1058,mixed,500,614,8000,7,16,5.69746025499,1,L,8,z,1,1267,,,,,,,,,,A,1199,2,Vert,0,L among T,424
vs12,amelie,4,4,09Nov2011,1058,mixed,500,655,8000,7,17,1.09299528646,1,X,8,a,1,882,,,,,,,,,,A,1150,0,Rouge,0,X among T,425
vs12,amelie,4,4,09Nov2011,1058,mixed,500,619,8000,7,18,0.75669169914,1,L,16,z,1,3634,,,,,,,,,,C,950,6,Vert,0,L among T,426
vs12,amelie,4,4,09Nov2011,1058,mixed,500,511,8000,7,19,3.55607284351,0,L,8,z,1,1061,,,,,,,,,,B,1633,4,Vert,0,L among T,427
vs12,amelie,4,4,09Nov2011,1058,mixed,500,556,8000,7,20,4.5216273949,0,L,16,a,1,1851,,,,,,,,,,A,1350,2,Rouge,0,L among T,428
vs12,amelie,4,4,09Nov2011,1058,mixed,500,540,8000,7,21,1.7774043119,1,X,16,a,1,702,,,,,,,,,,A,1114,0,Rouge,0,X among T,429
vs12,amelie,4,4,09Nov2011,1058,mixed,500,571,8000,7,22,4.48672410497,0,X,16,z,1,719,,,,,,,,,,A,1050,0,Vert,0,X among T,430
vs12,amelie,4,4,09Nov2011,1058,mixed,500,555,8000,7,23,3.58263875706,0,X,4,a,1,884,,,,,,,,,,A,1634,0,Rouge,0,X among T,431
vs12,amelie,4,4,09Nov2011,1058,mixed,500,409,8000,7,24,0.172104303347,0,X,8,a,0,635,,,,,,,,,,A,1513,0,Vert,0,X among T,432
vs12,amelie,4,4,09Nov2011,1058,mixed,500,480,8000,7,25,1.59789277381,1,X,16,z,1,669,,,,,,,,,,A,1149,0,Vert,0,X among T,433
vs12,amelie,4,4,09Nov2011,1058,mixed,500,520,8000,7,26,2.25603855128,0,L,4,a,1,2284,,,,,,,,,,D,1467,10,Rouge,0,L among T,434
vs12,amelie,4,4,09Nov2011,1058,mixed,500,513,8000,7,27,5.09719038351,0,X,16,a,1,1119,,,,,,,,,,A,1349,0,Rouge,0,X among T,435
vs12,amelie,4,4,09Nov2011,1058,mixed,500,499,8000,7,28,0.0440304406954,1,L,16,z,1,2051,,,,,,,,,,B,1500,4,Vert,0,L among T,436
vs12,amelie,4,4,09Nov2011,1058,mixed,500,539,8000,7,29,2.22032275512,1,L,16,z,1,1334,,,,,,,,,,A,1699,2,Vert,0,L among T,437
vs12,amelie,4,4,09Nov2011,1058,mixed,500,408,8000,7,30,5.95241559181,0,L,4,a,1,1150,,,,,,,,,,A,1716,3,Rouge,0,L among T,438
vs12,amelie,4,4,09Nov2011,1059,mixed,500,479,8000,7,31,4.00443732645,1,L,16,a,1,3783,,,,,,,,,,C,1016,6,Rouge,0,L among T,439
vs12,amelie,4,4,09Nov2011,1059,mixed,500,580,8000,7,32,5.0965205308,1,L,8,z,1,1384,,,,,,,,,,A,1167,2,Vert,0,L among T,440
vs12,amelie,4,4,09Nov2011,1059,mixed,500,632,8000,7,33,4.67545622327,0,L,8,a,1,1012,,,,,,,,,,A,1033,1,Rouge,0,L among T,441
vs12,amelie,4,4,09Nov2011,1059,mixed,500,648,8000,7,34,4.18165466498,1,L,8,a,1,1885,,,,,,,,,,A,1018,2,Rouge,0,L among T,442
vs12,amelie,4,4,09Nov2011,1059,mixed,500,557,8000,7,35,3.41719688118,1,X,16,a,1,768,,,,,,,,,,A,1113,0,Rouge,0,X among T,443
vs12,amelie,4,4,09Nov2011,1059,mixed,500,566,8000,7,36,2.51797017876,1,X,4,a,1,567,,,,,,,,,,A,1082,0,Rouge,0,X among T,444
vs12,amelie,4,4,09Nov2011,1059,mixed,500,417,8000,7,37,1.50121321048,0,L,16,a,1,1869,,,,,,,,,,A,868,3,Rouge,0,L among T,445
vs12,amelie,4,4,09Nov2011,1059,mixed,500,638,8000,7,38,3.22055978462,0,L,8,a,1,1665,,,,,,,,,,B,1650,5,Rouge,0,L among T,446
vs12,amelie,4,4,09Nov2011,1059,mixed,500,514,8000,7,39,3.56756487328,1,L,4,a,1,851,,,,,,,,,,A,1167,0,Rouge,0,L among T,447
vs12,amelie,4,4,09Nov2011,1059,mixed,500,492,8000,7,40,4.74344818754,1,X,8,z,1,600,,,,,,,,,,A,1234,0,Vert,0,X among T,448
vs12,amelie,4,4,09Nov2011,1059,mixed,500,618,8000,7,41,0.71180519277,1,X,16,z,1,614,,,,,,,,,,A,982,0,Vert,0,X among T,449
vs12,amelie,4,4,09Nov2011,1059,mixed,500,529,8000,7,42,1.42331775349,1,X,8,z,1,535,,,,,,,,,,A,1133,0,Vert,0,X among T,450
vs12,amelie,4,4,09Nov2011,1059,mixed,500,513,8000,7,43,4.36076779073,0,X,16,a,1,686,,,,,,,,,,A,1183,0,Rouge,0,X among T,451
vs12,amelie,4,4,09Nov2011,1059,mixed,500,558,8000,7,44,2.05602771514,1,L,4,z,1,982,,,,,,,,,,A,1033,2,Vert,0,L among T,452
vs12,amelie,4,4,09Nov2011,1059,mixed,500,531,8000,7,45,4.423404951,0,X,4,a,1,717,,,,,,,,,,A,1216,0,Rouge,0,X among T,453
vs12,amelie,4,4,09Nov2011,1059,mixed,500,586,8000,7,46,0.872476942652,0,X,8,a,1,618,,,,,,,,,,A,1283,0,Rouge,0,X among T,454
vs12,amelie,4,4,09Nov2011,1059,mixed,500,625,8000,7,47,2.52314185715,1,L,8,z,0,734,,,,,,,,,,A,1398,0,Rouge,0,L among T,455
vs12,amelie,4,4,09Nov2011,1059,mixed,500,557,8000,7,48,4.22931091558,0,L,16,a,1,3635,,,,,,,,,,B,1432,5,Rouge,0,L among T,456
vs12,amelie,4,4,09Nov2011,1059,mixed,500,474,8000,7,49,5.3202301157,1,X,8,z,1,1081,,,,,,,,,,A,1117,0,Vert,0,X among T,457
vs12,amelie,4,4,09Nov2011,1059,mixed,500,461,8000,7,50,4.63780945597,0,L,16,a,1,2701,,,,,,,,,,C,966,6,Rouge,0,L among T,458
vs12,amelie,4,4,09Nov2011,1100,mixed,500,597,8000,7,51,3.22098600164,0,X,8,a,1,915,,,,,,,,,,A,1100,0,Rouge,0,X among T,459
vs12,amelie,4,4,09Nov2011,1100,mixed,500,657,8000,7,52,1.73495686856,1,X,4,z,1,784,,,,,,,,,,A,1118,0,Vert,0,X among T,460
vs12,amelie,4,4,09Nov2011,1100,mixed,500,626,8000,7,53,3.72435718698,1,L,4,a,1,1433,,,,,,,,,,A,1315,2,Rouge,0,L among T,461
vs12,amelie,4,4,09Nov2011,1100,mixed,500,482,8000,7,54,5.17649905156,0,X,16,z,1,784,,,,,,,,,,A,1166,0,Vert,0,X among T,462
vs12,amelie,4,4,09Nov2011,1100,mixed,500,521,8000,7,55,1.8031859287,1,X,4,a,1,567,,,,,,,,,,A,1301,0,Rouge,0,X among T,463
vs12,amelie,4,4,09Nov2011,1100,mixed,500,683,8000,7,56,5.62022436409,0,L,8,a,1,2068,,,,,,,,,,B,1529,5,Rouge,0,L among T,464
vs12,amelie,4,4,09Nov2011,1100,mixed,500,675,8000,7,57,1.39707957573,0,X,8,z,1,951,,,,,,,,,,A,1667,0,Vert,0,X among T,465
vs12,amelie,4,4,09Nov2011,1100,mixed,500,632,8000,7,58,1.77401517426,1,X,8,a,1,784,,,,,,,,,,A,1116,0,Rouge,0,X among T,466
vs12,amelie,4,4,09Nov2011,1100,mixed,500,476,8000,7,59,3.28654613708,0,L,4,a,0,630,,,,,,,,,,A,1450,0,Vert,0,L among T,467
vs12,amelie,4,4,09Nov2011,1100,mixed,500,490,8000,7,60,4.86107062119,1,L,4,a,1,2300,,,,,,,,,,C,1766,7,Rouge,0,L among T,468
vs12,amelie,4,4,09Nov2011,1101,mixed,500,688,8000,8,1,1.3882870508,0,X,8,a,1,1351,,,,,,,,,,A,1416,0,Rouge,0,X among T,469
vs12,amelie,4,4,09Nov2011,1101,mixed,500,662,8000,8,2,3.26959814897,0,X,16,z,1,703,,,,,,,,,,A,1433,0,Vert,0,X among T,470
vs12,amelie,4,4,09Nov2011,1101,mixed,500,670,8000,8,3,5.78325401063,0,X,16,a,1,699,,,,,,,,,,A,1266,0,Rouge,0,X among T,471
vs12,amelie,4,4,09Nov2011,1101,mixed,500,601,8000,8,4,5.00492527949,1,L,4,a,1,1701,,,,,,,,,,C,1733,7,Rouge,0,L among T,472
vs12,amelie,4,4,09Nov2011,1101,mixed,500,476,8000,8,5,6.16446545326,0,X,8,z,1,685,,,,,,,,,,A,1047,0,Vert,0,X among T,473
vs12,amelie,4,4,09Nov2011,1101,mixed,500,650,8000,8,6,5.75273999564,1,X,16,z,1,586,,,,,,,,,,A,1366,0,Vert,0,X among T,474
vs12,amelie,4,4,09Nov2011,1101,mixed,500,621,8000,8,7,0.83583572548,1,L,4,z,1,1150,,,,,,,,,,B,1384,4,Vert,0,L among T,475
vs12,amelie,4,4,09Nov2011,1101,mixed,500,574,8000,8,8,1.87388801405,1,X,8,a,1,751,,,,,,,,,,A,1144,0,Rouge,0,X among T,476
vs12,amelie,4,4,09Nov2011,1101,mixed,500,406,8000,8,9,2.74139912808,0,X,16,z,1,701,,,,,,,,,,A,1367,0,Vert,0,X among T,477
vs12,amelie,4,4,09Nov2011,1101,mixed,500,629,8000,8,10,0.482288877361,1,L,16,z,1,2219,,,,,,,,,,B,1698,4,Vert,0,L among T,478
vs12,amelie,4,4,09Nov2011,1101,mixed,500,613,8000,8,11,0.157272078618,0,L,4,a,1,768,,,,,,,,,,A,1034,0,Rouge,0,L among T,479
vs12,amelie,4,4,09Nov2011,1101,mixed,500,406,8000,8,12,3.47032457347,0,L,16,z,1,1851,,,,,,,,,,B,1400,5,Vert,0,L among T,480
vs12,amelie,4,4,09Nov2011,1102,mixed,500,694,8000,8,13,1.05941389669,1,L,8,a,1,1946,,,,,,,,,,A,1733,2,Rouge,0,L among T,481
vs12,amelie,4,4,09Nov2011,1102,mixed,500,666,8000,8,14,0.238805784277,0,X,16,a,1,835,,,,,,,,,,A,1334,0,Rouge,0,X among T,482
vs12,amelie,4,4,09Nov2011,1102,mixed,500,557,8000,8,15,4.04457676476,0,X,8,a,1,685,,,,,,,,,,A,1147,0,Rouge,0,X among T,483
vs12,amelie,4,4,09Nov2011,1102,mixed,500,432,8000,8,16,5.17074055924,0,L,16,a,1,2018,,,,,,,,,,B,1250,4,Rouge,0,L among T,484
vs12,amelie,4,4,09Nov2011,1102,mixed,500,481,8000,8,17,5.10692134697,0,L,16,a,1,1018,,,,,,,,,,A,1083,0,Rouge,0,L among T,485
vs12,amelie,4,4,09Nov2011,1102,mixed,500,474,8000,8,18,4.74943320473,1,X,16,a,1,865,,,,,,,,,,A,1149,0,Rouge,0,X among T,486
vs12,amelie,4,4,09Nov2011,1102,mixed,500,602,8000,8,19,3.08253782985,0,L,8,z,1,2850,,,,,,,,,,C,1200,6,Vert,0,L among T,487
vs12,amelie,4,4,09Nov2011,1102,mixed,500,608,8000,8,20,0.472211977671,1,L,16,a,1,1550,,,,,,,,,,B,1966,4,Rouge,0,L among T,488
vs12,amelie,4,4,09Nov2011,1102,mixed,500,685,8000,8,21,5.90425244669,1,X,16,z,1,785,,,,,,,,,,A,1082,0,Vert,0,X among T,489
vs12,amelie,4,4,09Nov2011,1102,mixed,500,683,8000,8,22,4.51963788648,0,L,8,z,1,1416,,,,,,,,,,A,1251,3,Vert,0,L among T,490
vs12,amelie,4,4,09Nov2011,1102,mixed,500,444,8000,8,23,2.12277552043,1,L,4,a,1,833,,,,,,,,,,A,1000,0,Rouge,0,L among T,491
vs12,amelie,4,4,09Nov2011,1102,mixed,500,456,8000,8,24,0.80719172671,1,X,4,a,1,700,,,,,,,,,,A,1417,0,Rouge,0,X among T,492
vs12,amelie,4,4,09Nov2011,1102,mixed,500,568,8000,8,25,5.27639806935,1,L,16,z,1,2729,,,,,,,,,,B,2717,5,Vert,0,L among T,493
vs12,amelie,4,4,09Nov2011,1102,mixed,500,515,8000,8,26,2.93599313116,0,X,4,a,1,784,,,,,,,,,,A,1600,0,Rouge,0,X among T,494
vs12,amelie,4,4,09Nov2011,1102,mixed,500,587,8000,8,27,3.99902091015,1,X,4,a,1,634,,,,,,,,,,A,1400,0,Rouge,0,X among T,495
vs12,amelie,4,4,09Nov2011,1102,mixed,500,485,8000,8,28,0.987361011395,1,X,8,z,1,702,,,,,,,,,,A,1417,0,Vert,0,X among T,496
vs12,amelie,4,4,09Nov2011,1102,mixed,500,623,8000,8,29,3.19044054846,1,X,4,z,1,651,,,,,,,,,,A,1067,0,Vert,0,X among T,497
vs12,amelie,4,4,09Nov2011,1102,mixed,500,571,8000,8,30,0.143838036724,1,X,8,a,1,701,,,,,,,,,,A,1250,0,Rouge,0,X among T,498
vs12,amelie,4,4,09Nov2011,1102,mixed,500,491,8000,8,31,1.54964952389,0,L,8,z,0,2902,,,,,,,,,,C,1400,7,Rouge,0,L among T,499
vs12,amelie,4,4,09Nov2011,1103,mixed,500,489,8000,8,32,2.37833725286,1,L,8,z,1,1468,,,,,,,,,,A,1533,2,Vert,0,L among T,500
vs12,amelie,4,4,09Nov2011,1103,mixed,500,643,8000,8,33,3.47381475367,0,X,16,a,1,835,,,,,,,,,,A,1233,0,Rouge,0,X among T,501
vs12,amelie,4,4,09Nov2011,1103,mixed,500,630,8000,8,34,2.77210211967,1,X,16,z,1,1019,,,,,,,,,,A,1147,0,Vert,0,X among T,502
vs12,amelie,4,4,09Nov2011,1103,mixed,500,523,8000,8,35,3.70328430118,1,L,16,a,1,1969,,,,,,,,,,A,1050,3,Rouge,0,L among T,503
vs12,amelie,4,4,09Nov2011,1103,mixed,500,586,8000,8,36,6.23855930633,0,L,16,a,1,3315,,,,,,,,,,D,1001,9,Rouge,0,L among T,504
vs12,amelie,4,4,09Nov2011,1103,mixed,500,562,8000,8,37,5.33573021531,0,X,8,z,1,985,,,,,,,,,,A,1382,0,Vert,0,X among T,505
vs12,amelie,4,4,09Nov2011,1103,mixed,500,555,8000,8,38,6.02125914421,1,L,16,a,1,4599,,,,,,,,,,C,868,7,Rouge,0,L among T,506
vs12,amelie,4,4,09Nov2011,1103,mixed,500,468,8000,8,39,3.33167550305,0,L,4,a,1,1884,,,,,,,,,,D,1183,10,Rouge,0,L among T,507
vs12,amelie,4,4,09Nov2011,1103,mixed,500,686,8000,8,40,2.56745097463,0,X,4,z,1,1112,,,,,,,,,,A,2367,2,Vert,0,X among T,508
vs12,amelie,4,4,09Nov2011,1103,mixed,500,700,8000,8,41,1.49539219346,0,X,4,a,1,750,,,,,,,,,,A,1251,0,Rouge,0,X among T,509
vs12,amelie,4,4,09Nov2011,1103,mixed,500,566,8000,8,42,4.93056304054,1,L,4,z,1,1349,,,,,,,,,,A,884,3,Vert,0,L among T,510
vs12,amelie,4,4,09Nov2011,1103,mixed,500,477,8000,8,43,2.60974021807,0,L,4,z,1,1183,,,,,,,,,,B,950,4,Vert,0,L among T,511
vs12,amelie,4,4,09Nov2011,1103,mixed,500,626,8000,8,44,2.59957795008,0,L,16,z,1,901,,,,,,,,,,A,1466,0,Vert,0,L among T,512
vs12,amelie,4,4,09Nov2011,1103,mixed,500,527,8000,8,45,5.27943603422,1,X,8,a,1,850,,,,,,,,,,A,1050,0,Rouge,0,X among T,513
vs12,amelie,4,4,09Nov2011,1103,mixed,500,561,8000,8,46,2.83880833528,0,L,4,a,1,1400,,,,,,,,,,A,1200,2,Rouge,0,L among T,514
vs12,amelie,4,4,09Nov2011,1103,mixed,500,605,8000,8,47,1.25692454543,0,L,8,z,1,2929,,,,,,,,,,B,984,5,Vert,0,L among T,515
vs12,amelie,4,4,09Nov2011,1103,mixed,500,614,8000,8,48,0.859907912407,1,X,4,a,0,717,,,,,,,,,,A,1484,0,Vert,0,X among T,516
vs12,amelie,4,4,09Nov2011,1104,mixed,500,611,8000,8,49,3.05527609209,1,L,8,z,1,1385,,,,,,,,,,B,1499,4,Vert,0,L among T,517
vs12,amelie,4,4,09Nov2011,1104,mixed,500,415,8000,8,50,4.87416117705,1,X,8,a,1,752,,,,,,,,,,A,1084,0,Rouge,0,X among T,518
vs12,amelie,4,4,09Nov2011,1104,mixed,500,576,8000,8,51,3.77742549886,1,L,8,z,1,1051,,,,,,,,,,A,1584,3,Vert,0,L among T,519
vs12,amelie,4,4,09Nov2011,1104,mixed,500,608,8000,8,52,2.06444215994,1,X,16,z,1,769,,,,,,,,,,A,1562,0,Vert,0,X among T,520
vs12,amelie,4,4,09Nov2011,1104,mixed,500,499,8000,8,53,0.534299979367,0,X,8,z,1,618,,,,,,,,,,A,967,0,Vert,0,X among T,521
vs12,amelie,4,4,09Nov2011,1104,mixed,500,605,8000,8,54,2.97463182172,0,X,4,z,1,617,,,,,,,,,,A,1218,0,Vert,0,X among T,522
vs12,amelie,4,4,09Nov2011,1104,mixed,500,410,8000,8,55,2.52555640995,1,X,4,a,1,550,,,,,,,,,,A,1182,0,Rouge,0,X among T,523
vs12,amelie,4,4,09Nov2011,1104,mixed,500,482,8000,8,56,1.8490566377,0,L,4,a,1,818,,,,,,,,,,A,1983,0,Rouge,0,L among T,524
vs12,amelie,4,4,09Nov2011,1104,mixed,500,412,8000,8,57,6.00704913645,1,L,4,a,1,717,,,,,,,,,,A,1000,0,Rouge,0,L among T,525
vs12,amelie,4,4,09Nov2011,1104,mixed,500,467,8000,8,58,6.27005329424,0,X,4,a,1,1565,,,,,,,,,,A,1450,2,Rouge,0,X among T,526
vs12,amelie,4,4,09Nov2011,1104,mixed,500,507,8000,8,59,5.51040341552,1,L,8,z,1,1067,,,,,,,,,,A,950,3,Vert,0,L among T,527
vs12,amelie,4,4,09Nov2011,1104,mixed,500,662,8000,8,60,5.1426958295,0,L,8,z,1,1367,,,,,,,,,,B,883,4,Vert,0,L among T,528
vs12,ariane,4,4,09Nov2011,1721,pTMix,500,480,8000,1,1,2.85038980612,1,L,16,a,1,7879,,,,,,,,,,,,,Rouge,1,L among T,529
vs12,ariane,4,4,09Nov2011,1721,pTMix,500,619,8000,1,2,0.797760762467,1,L,8,z,1,1451,,,,,,,,,,,,,Vert,1,L among T,530
vs12,ariane,4,4,09Nov2011,1721,pTMix,500,461,8000,1,3,2.54535850316,0,L,16,a,1,3734,,,,,,,,,,,,,Rouge,1,L among T,531
vs12,ariane,4,4,09Nov2011,1721,pTMix,500,512,8000,1,4,2.28110568307,1,L,16,z,1,1530,,,,,,,,,,,,,Vert,1,L among T,532
vs12,ariane,4,4,09Nov2011,1721,pTMix,500,531,8000,1,5,6.26076596842,1,X,8,a,1,2285,,,,,,,,,,,,,Rouge,1,X among T,533
vs12,ariane,4,4,09Nov2011,1721,pTMix,500,528,8000,1,6,2.25486741787,0,L,8,a,1,1268,,,,,,,,,,,,,Rouge,1,L among T,534
vs12,ariane,4,4,09Nov2011,1721,pTMix,500,410,8000,1,7,5.57853783849,0,X,8,a,1,868,,,,,,,,,,,,,Rouge,1,X among T,535
vs12,ariane,4,4,09Nov2011,1721,pTMix,500,427,8000,1,8,1.35927540667,0,L,8,a,1,1246,,,,,,,,,,,,,Rouge,1,L among T,536
vs12,ariane,4,4,09Nov2011,1721,pTMix,500,446,8000,1,9,1.01535541172,0,X,16,z,1,1536,,,,,,,,,,,,,Vert,1,X among T,537
vs12,ariane,4,4,09Nov2011,1721,pTMix,500,596,8000,1,10,4.8909407974,1,L,4,a,1,1434,,,,,,,,,,,,,Rouge,1,L among T,538
vs12,ariane,4,4,09Nov2011,1721,pTMix,500,584,8000,1,11,3.5933308272,1,X,8,z,1,1284,,,,,,,,,,,,,Vert,1,X among T,539
vs12,ariane,4,4,09Nov2011,1721,pTMix,500,563,8000,1,12,2.94224204298,1,X,16,a,1,1267,,,,,,,,,,,,,Rouge,1,X among T,540
vs12,ariane,4,4,09Nov2011,1721,pTMix,500,532,8000,1,13,1.24718200532,0,L,4,a,1,1284,,,,,,,,,,,,,Rouge,1,L among T,541
vs12,ariane,4,4,09Nov2011,1721,pTMix,500,696,8000,1,14,0.236991881846,0,L,16,z,1,2352,,,,,,,,,,,,,Vert,1,L among T,542
vs12,ariane,4,4,09Nov2011,1721,pTMix,500,487,8000,1,15,1.45435028859,0,X,4,z,1,1100,,,,,,,,,,,,,Vert,1,X among T,543
vs12,ariane,4,4,09Nov2011,1721,pTMix,500,562,8000,1,16,5.13437796067,0,X,16,z,1,899,,,,,,,,,,,,,Vert,1,X among T,544
vs12,ariane,4,4,09Nov2011,1721,pTMix,500,425,8000,1,17,1.85430357051,1,X,4,z,1,901,,,,,,,,,,,,,Vert,1,X among T,545
vs12,ariane,4,4,09Nov2011,1721,pTMix,500,404,8000,1,18,0.41214056405,0,X,8,z,1,751,,,,,,,,,,,,,Vert,1,X among T,546
vs12,ariane,4,4,09Nov2011,1721,pTMix,500,531,8000,1,19,2.8763947094,1,X,16,a,1,1252,,,,,,,,,,,,,Rouge,1,X among T,547
vs12,ariane,4,4,09Nov2011,1721,pTMix,500,676,8000,1,20,5.23401061817,1,L,4,z,1,1317,,,,,,,,,,,,,Vert,1,L among T,548
vs12,ariane,4,4,09Nov2011,1721,pTMix,500,509,8000,1,21,3.85538303403,0,X,4,a,1,1081,,,,,,,,,,,,,Rouge,1,X among T,549
vs12,ariane,4,4,09Nov2011,1721,pTMix,500,507,8000,1,22,2.99100209038,1,L,8,z,1,2501,,,,,,,,,,,,,Vert,1,L among T,550
vs12,ariane,4,4,09Nov2011,1721,pTMix,500,425,8000,1,23,4.42767607576,1,X,4,a,1,1301,,,,,,,,,,,,,Rouge,1,X among T,551
vs12,ariane,4,4,09Nov2011,1721,pTMix,500,695,8000,1,24,3.41510773256,0,L,4,z,0,1778,,,,,,,,,,,,,Rouge,1,L among T,552
vs12,ariane,4,4,09Nov2011,1724,tMix,500,621,8000,1,1,0.753924804416,1,L,8,a,1,3818,,,,,,,,,,A,10309,2,Rouge,1,L among T,553
vs12,ariane,4,4,09Nov2011,1724,tMix,500,527,8000,1,2,1.92994334324,0,L,4,a,1,1450,,,,,,,,,,A,5262,1,Rouge,1,L among T,554
vs12,ariane,4,4,09Nov2011,1726,tMix,500,505,8000,1,3,4.86257910104,0,X,4,a,1,1300,,,,,,,,,,A,80901,1,Rouge,1,X among T,555
vs12,ariane,4,4,09Nov2011,1726,tMix,500,641,8000,1,4,1.21381756332,1,L,16,a,1,5485,,,,,,,,,,D,1750,9,Rouge,1,L among T,556
vs12,ariane,4,4,09Nov2011,1726,tMix,500,688,8000,1,5,4.35852294347,1,L,16,a,1,2469,,,,,,,,,,C,2996,6,Rouge,1,L among T,557
vs12,ariane,4,4,09Nov2011,1726,tMix,500,654,8000,1,6,4.0074560745,1,X,4,z,1,1400,,,,,,,,,,A,4015,2,Vert,1,X among T,558
vs12,ariane,4,4,09Nov2011,1726,tMix,500,670,8000,1,7,1.20193691385,0,X,8,a,1,1885,,,,,,,,,,A,2333,1,Rouge,1,X among T,559
vs12,ariane,4,4,09Nov2011,1726,tMix,500,627,8000,1,8,5.5486813274,1,L,4,z,1,1667,,,,,,,,,,A,2601,0,Vert,1,L among T,560
vs12,ariane,4,4,09Nov2011,1727,tMix,500,464,8000,1,9,4.66494926167,0,X,8,z,1,950,,,,,,,,,,A,1848,2,Vert,1,X among T,561
vs12,ariane,4,4,09Nov2011,1727,tMix,500,594,8000,1,10,5.87301279209,0,X,16,z,1,735,,,,,,,,,,A,1234,2,Vert,1,X among T,562
vs12,ariane,4,4,09Nov2011,1727,tMix,500,635,8000,1,11,4.23005740193,1,X,8,a,1,868,,,,,,,,,,A,2495,1,Rouge,1,X among T,563
vs12,ariane,4,4,09Nov2011,1727,tMix,500,561,8000,1,12,4.94894234139,0,X,16,z,1,951,,,,,,,,,,A,1515,0,Vert,1,X among T,564
vs12,ariane,4,4,09Nov2011,1727,tMix,500,453,8000,1,13,1.29722567262,1,X,16,a,1,950,,,,,,,,,,A,2016,0,Rouge,1,X among T,565
vs12,ariane,4,4,09Nov2011,1727,tMix,500,652,8000,1,14,4.22844499774,0,L,16,a,1,4098,,,,,,,,,,C,2618,7,Rouge,1,L among T,566
vs12,ariane,4,4,09Nov2011,1727,tMix,500,567,8000,1,15,3.86803785981,1,X,16,z,1,1218,,,,,,,,,,A,2197,1,Vert,1,X among T,567
vs12,ariane,4,4,09Nov2011,1727,tMix,500,628,8000,1,16,3.43323424292,1,L,4,z,1,2333,,,,,,,,,,A,1683,3,Vert,1,L among T,568
vs12,ariane,4,4,09Nov2011,1727,tMix,500,578,8000,1,17,0.0184914730808,0,X,4,a,1,1717,,,,,,,,,,A,2316,1,Rouge,1,X among T,569
vs12,ariane,4,4,09Nov2011,1727,tMix,500,484,8000,1,18,3.56610738614,0,L,4,z,1,1668,,,,,,,,,,A,3277,1,Vert,1,L among T,570
vs12,ariane,4,4,09Nov2011,1727,tMix,500,647,8000,1,19,1.73830936412,0,L,8,a,1,1734,,,,,,,,,,A,1963,3,Rouge,1,L among T,571
vs12,ariane,4,4,09Nov2011,1728,tMix,500,506,8000,1,20,0.141323530678,1,X,4,a,1,1267,,,,,,,,,,A,2167,2,Rouge,1,X among T,572
vs12,ariane,4,4,09Nov2011,1728,tMix,500,530,8000,1,21,1.15353444074,0,L,16,a,1,1848,,,,,,,,,,B,1450,4,Rouge,1,L among T,573
vs12,ariane,4,4,09Nov2011,1728,tMix,500,575,8000,1,22,2.16759535375,1,L,8,z,1,1751,,,,,,,,,,A,1897,2,Vert,1,L among T,574
vs12,ariane,4,4,09Nov2011,1728,tMix,500,612,8000,1,23,3.14434361374,1,X,8,a,1,2850,,,,,,,,,,A,2434,3,Rouge,1,X among T,575
vs12,ariane,4,4,09Nov2011,1728,tMix,500,589,8000,1,24,0.684071926266,0,L,8,z,1,2301,,,,,,,,,,A,2917,1,Vert,1,L among T,576
vs12,ariane,4,4,09Nov2011,1729,mixed,500,695,8000,1,1,2.49450644182,0,L,4,a,1,1267,,,,,,,,,,A,2979,2,Rouge,0,L among T,577
vs12,ariane,4,4,09Nov2011,1729,mixed,500,627,8000,1,2,5.47597918908,1,X,8,z,1,1367,,,,,,,,,,A,3513,2,Vert,0,X among T,578
vs12,ariane,4,4,09Nov2011,1729,mixed,500,669,8000,1,3,3.02793154872,1,X,16,a,1,1819,,,,,,,,,,A,1933,1,Rouge,0,X among T,579
vs12,ariane,4,4,09Nov2011,1729,mixed,500,463,8000,1,4,5.60550901114,0,X,8,z,1,1385,,,,,,,,,,A,2430,0,Vert,0,X among T,580
vs12,ariane,4,4,09Nov2011,1729,mixed,500,526,8000,1,5,3.32437202201,0,L,16,a,1,1735,,,,,,,,,,A,2816,2,Rouge,0,L among T,581
vs12,ariane,4,4,09Nov2011,1729,mixed,500,529,8000,1,6,5.47573272521,0,L,16,z,1,1881,,,,,,,,,,A,2800,2,Vert,0,L among T,582
vs12,ariane,4,4,09Nov2011,1729,mixed,500,596,8000,1,7,4.74820467911,1,X,16,a,1,3616,,,,,,,,,,A,3199,1,Rouge,0,X among T,583
vs12,ariane,4,4,09Nov2011,1729,mixed,500,530,8000,1,8,4.46603499483,0,L,4,a,1,1183,,,,,,,,,,A,2961,2,Rouge,0,L among T,584
vs12,ariane,4,4,09Nov2011,1729,mixed,500,521,8000,1,9,4.42719637051,1,L,8,a,1,1018,,,,,,,,,,A,1882,2,Rouge,0,L among T,585
vs12,ariane,4,4,09Nov2011,1729,mixed,500,592,8000,1,10,1.03072799181,1,X,8,a,1,1752,,,,,,,,,,A,2731,0,Rouge,0,X among T,586
vs12,ariane,4,4,09Nov2011,1729,mixed,500,477,8000,1,11,3.37255916065,0,X,16,z,1,1103,,,,,,,,,,A,2133,0,Vert,0,X among T,587
vs12,ariane,4,4,09Nov2011,1729,mixed,500,641,8000,1,12,1.82788578031,0,L,4,a,1,2347,,,,,,,,,,A,3966,2,Rouge,0,L among T,588
vs12,ariane,4,4,09Nov2011,1730,mixed,500,489,8000,1,13,3.2846769115,1,L,16,z,1,1853,,,,,,,,,,A,5459,2,Vert,0,L among T,589
vs12,ariane,4,4,09Nov2011,1730,mixed,500,540,8000,1,14,3.97967975638,0,L,8,z,1,4180,,,,,,,,,,A,5484,2,Vert,0,L among T,590
vs12,ariane,4,4,09Nov2011,1730,mixed,500,616,8000,1,15,1.46079520899,1,L,16,a,1,1886,,,,,,,,,,A,1699,3,Rouge,0,L among T,591
vs12,ariane,4,4,09Nov2011,1730,mixed,500,453,8000,1,16,0.15182259615,0,L,4,a,1,2634,,,,,,,,,,A,4913,1,Rouge,0,L among T,592
vs12,ariane,4,4,09Nov2011,1730,mixed,500,660,8000,1,17,0.117784923115,1,L,4,a,1,1950,,,,,,,,,,A,1596,2,Rouge,0,L among T,593
vs12,ariane,4,4,09Nov2011,1730,mixed,500,698,8000,1,18,1.50274312426,0,X,4,a,1,1317,,,,,,,,,,A,1867,0,Rouge,0,X among T,594
vs12,ariane,4,4,09Nov2011,1730,mixed,500,534,8000,1,19,3.53407612081,1,L,4,z,1,1100,,,,,,,,,,A,2029,0,Vert,0,L among T,595
vs12,ariane,4,4,09Nov2011,1730,mixed,500,453,8000,1,20,5.03861672943,1,X,16,a,1,1553,,,,,,,,,,A,2116,0,Rouge,0,X among T,596
vs12,ariane,4,4,09Nov2011,1730,mixed,500,518,8000,1,21,0.276946537074,1,X,16,z,1,2102,,,,,,,,,,A,3528,0,Vert,0,X among T,597
vs12,ariane,4,4,09Nov2011,1730,mixed,500,481,8000,1,22,2.94722356409,0,L,16,a,1,3719,,,,,,,,,,C,1480,7,Rouge,0,L among T,598
vs12,ariane,4,4,09Nov2011,1730,mixed,500,697,8000,1,23,6.08973192146,1,X,16,a,1,1469,,,,,,,,,,A,1650,1,Rouge,0,X among T,599
vs12,ariane,4,4,09Nov2011,1731,mixed,500,695,8000,1,24,4.49955372235,1,L,4,z,1,1632,,,,,,,,,,A,6491,2,Vert,0,L among T,600
vs12,ariane,4,4,09Nov2011,1731,mixed,500,452,8000,1,25,2.70078082131,1,X,8,a,1,1431,,,,,,,,,,A,2116,1,Rouge,0,X among T,601
vs12,ariane,4,4,09Nov2011,1731,mixed,500,531,8000,1,26,3.93973699358,1,L,16,a,1,2835,,,,,,,,,,A,6392,1,Rouge,0,L among T,602
vs12,ariane,4,4,09Nov2011,1731,mixed,500,671,8000,1,27,1.37440047247,1,L,8,a,1,5147,,,,,,,,,,B,3166,5,Rouge,0,L among T,603
vs12,ariane,4,4,09Nov2011,1731,mixed,500,417,8000,1,28,2.58811540743,1,L,8,a,1,2215,,,,,,,,,,B,3199,5,Rouge,0,L among T,604
vs12,ariane,4,4,09Nov2011,1731,mixed,500,498,8000,1,29,3.33666480342,0,L,8,a,1,1884,,,,,,,,,,A,2111,3,Rouge,0,L among T,605
vs12,ariane,4,4,09Nov2011,1731,mixed,500,645,8000,1,30,4.11225509059,1,X,8,a,1,2451,,,,,,,,,,A,2001,3,Rouge,0,X among T,606
vs12,ariane,4,4,09Nov2011,1731,mixed,500,609,8000,1,31,4.79841480992,0,X,16,a,1,1186,,,,,,,,,,A,1780,2,Rouge,0,X among T,607
vs12,ariane,4,4,09Nov2011,1731,mixed,500,461,8000,1,32,4.55709653686,0,L,8,z,1,1601,,,,,,,,,,A,2567,3,Vert,0,L among T,608
vs12,ariane,4,4,09Nov2011,1732,mixed,500,528,8000,1,33,4.10122162892,1,X,4,z,1,1279,,,,,,,,,,A,3667,2,Vert,0,X among T,609
vs12,ariane,4,4,09Nov2011,1732,mixed,500,692,8000,1,34,0.0946878452378,0,X,4,a,1,1233,,,,,,,,,,A,1950,0,Rouge,0,X among T,610
vs12,ariane,4,4,09Nov2011,1732,mixed,500,558,8000,1,35,3.39870854041,0,L,16,z,1,2086,,,,,,,,,,B,3033,4,Vert,0,L among T,611
vs12,ariane,4,4,09Nov2011,1732,mixed,500,496,8000,1,36,5.95662920662,1,L,8,a,1,2614,,,,,,,,,,A,2783,3,Rouge,0,L among T,612
vs12,ariane,4,4,09Nov2011,1732,mixed,500,654,8000,1,37,4.21841609651,0,X,16,a,1,1452,,,,,,,,,,A,1699,0,Rouge,0,X among T,613
vs12,ariane,4,4,09Nov2011,1732,mixed,500,660,8000,1,38,1.09189167943,1,X,4,z,1,1651,,,,,,,,,,A,1833,2,Vert,0,X among T,614
vs12,ariane,4,4,09Nov2011,1732,mixed,500,493,8000,1,39,0.846314529272,0,X,8,z,1,1451,,,,,,,,,,A,2481,0,Vert,0,X among T,615
vs12,ariane,4,4,09Nov2011,1732,mixed,500,683,8000,1,40,1.14680223689,0,X,4,a,1,1233,,,,,,,,,,A,1667,0,Rouge,0,X among T,616
vs12,ariane,4,4,09Nov2011,1732,mixed,500,652,8000,1,41,4.62228639941,1,X,4,z,1,1700,,,,,,,,,,A,2082,0,Vert,0,X among T,617
vs12,ariane,4,4,09Nov2011,1732,mixed,500,449,8000,1,42,4.12284689532,0,L,8,a,1,1368,,,,,,,,,,A,3333,2,Rouge,0,L among T,618
vs12,ariane,4,4,09Nov2011,1732,mixed,500,569,8000,1,43,2.58518649719,1,L,16,z,1,2699,,,,,,,,,,A,2600,3,Vert,0,L among T,619
vs12,ariane,4,4,09Nov2011,1732,mixed,500,562,8000,1,44,4.34815397277,0,X,8,a,1,1035,,,,,,,,,,A,4795,0,Rouge,0,X among T,620
vs12,ariane,4,4,09Nov2011,1732,mixed,500,580,8000,1,45,4.38006111019,1,X,8,a,1,667,,,,,,,,,,A,1750,0,Rouge,0,X among T,621
vs12,ariane,4,4,09Nov2011,1733,mixed,500,457,8000,1,46,0.295942975222,0,X,16,z,1,1214,,,,,,,,,,A,2283,2,Vert,0,X among T,622
vs12,ariane,4,4,09Nov2011,1733,mixed,500,650,8000,1,47,5.49462163827,1,L,4,z,1,1500,,,,,,,,,,A,1983,2,Vert,0,L among T,623
vs12,ariane,4,4,09Nov2011,1733,mixed,500,609,8000,1,48,5.35263142982,0,L,4,a,1,1579,,,,,,,,,,A,1566,2,Rouge,0,L among T,624
vs12,ariane,4,4,09Nov2011,1733,mixed,500,688,8000,1,49,0.275630723087,1,L,8,z,1,2218,,,,,,,,,,A,2379,2,Vert,0,L among T,625
vs12,ariane,4,4,09Nov2011,1733,mixed,500,489,8000,1,50,2.48434679827,1,L,16,z,1,1702,,,,,,,,,,A,3217,2,Vert,0,L among T,626
vs12,ariane,4,4,09Nov2011,1733,mixed,500,516,8000,1,51,2.26499157777,1,X,4,a,1,2426,,,,,,,,,,A,1350,0,Rouge,0,X among T,627
vs12,ariane,4,4,09Nov2011,1733,mixed,500,545,8000,1,52,5.5883833045,0,X,8,a,1,1768,,,,,,,,,,A,1518,2,Rouge,0,X among T,628
vs12,ariane,4,4,09Nov2011,1733,mixed,500,590,8000,1,53,3.92463327738,1,L,4,a,1,2082,,,,,,,,,,A,1299,1,Rouge,0,L among T,629
vs12,ariane,4,4,09Nov2011,1733,mixed,500,593,8000,1,54,0.537154113851,0,X,4,a,1,2884,,,,,,,,,,A,1583,0,Rouge,0,X among T,630
vs12,ariane,4,4,09Nov2011,1733,mixed,500,468,8000,1,55,1.10468632698,0,X,8,a,1,819,,,,,,,,,,A,1300,0,Rouge,0,X among T,631
vs12,ariane,4,4,09Nov2011,1733,mixed,500,521,8000,1,56,0.199229456168,0,X,4,z,1,1284,,,,,,,,,,A,1316,2,Vert,0,X among T,632
vs12,ariane,4,4,09Nov2011,1733,mixed,500,647,8000,1,57,0.73831180031,0,X,16,z,1,1649,,,,,,,,,,A,1401,2,Vert,0,X among T,633
vs12,ariane,4,4,09Nov2011,1733,mixed,500,516,8000,1,58,0.645418616048,0,L,8,a,1,1402,,,,,,,,,,A,1617,2,Rouge,0,L among T,634
vs12,ariane,4,4,09Nov2011,1733,mixed,500,617,8000,1,59,1.04949408006,1,X,4,z,1,1812,,,,,,,,,,A,3350,2,Vert,0,X among T,635
vs12,ariane,4,4,09Nov2011,1734,mixed,500,546,8000,1,60,2.45570217462,0,L,16,z,1,2002,,,,,,,,,,A,1864,3,Vert,0,L among T,636
vs12,ariane,4,4,09Nov2011,1734,mixed,500,691,8000,2,1,5.97013249226,0,X,8,z,1,1651,,,,,,,,,,A,1966,3,Vert,0,X among T,637
vs12,ariane,4,4,09Nov2011,1734,mixed,500,475,8000,2,2,3.81484768568,1,X,4,z,1,817,,,,,,,,,,A,2198,3,Vert,0,X among T,638
vs12,ariane,4,4,09Nov2011,1734,mixed,500,404,8000,2,3,4.9479862422,0,X,4,z,1,701,,,,,,,,,,A,2233,2,Vert,0,X among T,639
vs12,ariane,4,4,09Nov2011,1734,mixed,500,501,8000,2,4,3.68135502608,1,X,4,z,1,701,,,,,,,,,,A,1966,0,Vert,0,X among T,640
vs12,ariane,4,4,09Nov2011,1735,mixed,500,687,8000,2,5,3.82434780728,0,X,4,a,1,799,,,,,,,,,,A,1967,0,Rouge,0,X among T,641
vs12,ariane,4,4,09Nov2011,1735,mixed,500,612,8000,2,6,2.09350723002,0,X,8,z,1,1817,,,,,,,,,,A,1467,1,Vert,0,X among T,642
vs12,ariane,4,4,09Nov2011,1735,mixed,500,546,8000,2,7,0.898471178031,0,X,8,z,1,783,,,,,,,,,,A,1800,1,Vert,0,X among T,643
vs12,ariane,4,4,09Nov2011,1735,mixed,500,507,8000,2,8,1.20400049015,1,X,16,a,1,835,,,,,,,,,,A,1484,0,Rouge,0,X among T,644
vs12,ariane,4,4,09Nov2011,1735,mixed,500,569,8000,2,9,4.21035234235,0,L,8,z,1,4763,,,,,,,,,,A,4466,0,Vert,0,L among T,645
vs12,ariane,4,4,09Nov2011,1735,mixed,500,651,8000,2,10,5.30680479661,1,L,16,a,1,4616,,,,,,,,,,D,3359,8,Rouge,0,L among T,646
vs12,ariane,4,4,09Nov2011,1735,mixed,500,477,8000,2,11,4.30519727174,0,L,4,z,1,2617,,,,,,,,,,A,1482,0,Vert,0,L among T,647
vs12,ariane,4,4,09Nov2011,1735,mixed,500,439,8000,2,12,5.14339219027,0,L,8,a,1,3965,,,,,,,,,,B,2234,5,Rouge,0,L among T,648
vs12,ariane,4,4,09Nov2011,1735,mixed,500,552,8000,2,13,0.0394739720932,1,L,8,z,1,1318,,,,,,,,,,A,1934,3,Vert,0,L among T,649
vs12,ariane,4,4,09Nov2011,1735,mixed,500,682,8000,2,14,2.95751787654,1,X,16,z,1,1935,,,,,,,,,,A,1615,2,Vert,0,X among T,650
vs12,ariane,4,4,09Nov2011,1735,mixed,500,628,8000,2,15,4.75563037072,1,X,4,z,1,985,,,,,,,,,,A,1517,0,Vert,0,X among T,651
vs12,ariane,4,4,09Nov2011,1735,mixed,500,672,8000,2,16,1.72532918095,1,X,4,z,1,700,,,,,,,,,,A,999,0,Vert,0,X among T,652
vs12,ariane,4,4,09Nov2011,1735,mixed,500,626,8000,2,17,1.1628362687,1,X,4,a,1,1567,,,,,,,,,,A,1734,1,Rouge,0,X among T,653
vs12,ariane,4,4,09Nov2011,1736,mixed,500,419,8000,2,18,1.64160479772,1,L,16,a,1,1797,,,,,,,,,,A,2065,2,Rouge,0,L among T,654
vs12,ariane,4,4,09Nov2011,1736,mixed,500,431,8000,2,19,5.16906369819,0,X,16,z,1,1869,,,,,,,,,,A,2167,2,Vert,0,X among T,655
vs12,ariane,4,4,09Nov2011,1736,mixed,500,472,8000,2,20,1.64948534039,0,X,8,z,1,1813,,,,,,,,,,A,3199,2,Vert,0,X among T,656
vs12,ariane,4,4,09Nov2011,1736,mixed,500,543,8000,2,21,5.52757333846,1,X,8,a,1,851,,,,,,,,,,A,2662,2,Rouge,0,X among T,657
vs12,ariane,4,4,09Nov2011,1736,mixed,500,658,8000,2,22,2.20449847922,0,X,16,a,1,1386,,,,,,,,,,A,2149,2,Rouge,0,X among T,658
vs12,ariane,4,4,09Nov2011,1736,mixed,500,622,8000,2,23,4.58406668684,1,L,8,z,1,1568,,,,,,,,,,A,1179,3,Vert,0,L among T,659
vs12,ariane,4,4,09Nov2011,1736,mixed,500,508,8000,2,24,5.16951971425,0,X,4,z,1,1650,,,,,,,,,,A,2550,1,Vert,0,X among T,660
vs12,ariane,4,4,09Nov2011,1736,mixed,500,678,8000,2,25,5.58947588068,1,L,4,a,1,2460,,,,,,,,,,A,5083,2,Rouge,0,L among T,661
vs12,ariane,4,4,09Nov2011,1736,mixed,500,461,8000,2,26,4.08419245256,1,L,4,z,1,5044,,,,,,,,,,A,4260,2,Vert,0,L among T,662
vs12,ariane,4,4,09Nov2011,1736,mixed,500,599,8000,2,27,2.90600005795,0,L,4,z,1,1767,,,,,,,,,,A,1600,2,Vert,0,L among T,663
vs12,ariane,4,4,09Nov2011,1736,mixed,500,413,8000,2,28,1.75258980108,0,L,8,z,1,1218,,,,,,,,,,A,1915,0,Vert,0,L among T,664
vs12,ariane,4,4,09Nov2011,1736,mixed,500,622,8000,2,29,5.87391754435,0,X,16,a,1,1485,,,,,,,,,,A,1367,2,Rouge,0,X among T,665
vs12,ariane,4,4,09Nov2011,1737,mixed,500,578,8000,2,30,3.77914059185,1,L,16,a,1,2785,,,,,,,,,,C,1281,6,Rouge,0,L among T,666
vs12,ariane,4,4,09Nov2011,1737,mixed,500,545,8000,2,31,2.26166747523,0,X,4,z,1,1234,,,,,,,,,,A,1267,0,Vert,0,X among T,667
vs12,ariane,4,4,09Nov2011,1737,mixed,500,589,8000,2,32,1.86232476288,0,L,4,a,1,2583,,,,,,,,,,A,1480,3,Rouge,0,L among T,668
vs12,ariane,4,4,09Nov2011,1737,mixed,500,427,8000,2,33,0.568235827844,0,L,4,z,1,4384,,,,,,,,,,A,2062,3,Vert,0,L among T,669
vs12,ariane,4,4,09Nov2011,1737,mixed,500,440,8000,2,34,0.215214595688,0,X,16,a,1,2518,,,,,,,,,,A,1234,3,Rouge,0,X among T,670
vs12,ariane,4,4,09Nov2011,1737,mixed,500,548,8000,2,35,2.12280949743,0,X,16,z,1,902,,,,,,,,,,A,2462,1,Vert,0,X among T,671
vs12,ariane,4,4,09Nov2011,1737,mixed,500,659,8000,2,36,2.73650410021,1,X,16,a,1,1619,,,,,,,,,,A,1717,0,Rouge,0,X among T,672
vs12,ariane,4,4,09Nov2011,1737,mixed,500,505,8000,2,37,4.40110965023,0,L,8,z,1,2284,,,,,,,,,,A,2745,3,Vert,0,L among T,673
vs12,ariane,4,4,09Nov2011,1737,mixed,500,485,8000,2,38,5.76755665951,0,L,16,a,1,1901,,,,,,,,,,A,1133,0,Rouge,0,L among T,674
vs12,ariane,4,4,09Nov2011,1737,mixed,500,596,8000,2,39,5.8948796288,0,L,16,a,1,2963,,,,,,,,,,A,5234,2,Rouge,0,L among T,675
vs12,ariane,4,4,09Nov2011,1737,mixed,500,595,8000,2,40,2.54522857991,1,L,8,a,1,4096,,,,,,,,,,A,1283,2,Rouge,0,L among T,676
vs12,ariane,4,4,09Nov2011,1737,mixed,500,677,8000,2,41,3.49713053493,1,X,8,a,1,1435,,,,,,,,,,A,1313,3,Rouge,0,X among T,677
vs12,ariane,4,4,09Nov2011,1738,mixed,500,683,8000,2,42,1.75892830227,0,L,4,z,1,1467,,,,,,,,,,A,1300,1,Vert,0,L among T,678
vs12,ariane,4,4,09Nov2011,1738,mixed,500,541,8000,2,43,3.0295674807,1,X,8,a,1,1568,,,,,,,,,,A,1597,2,Rouge,0,X among T,679
vs12,ariane,4,4,09Nov2011,1738,mixed,500,567,8000,2,44,0.449147633841,0,L,16,a,1,2135,,,,,,,,,,A,1533,3,Rouge,0,L among T,680
vs12,ariane,4,4,09Nov2011,1738,mixed,500,496,8000,2,45,4.17040469505,1,L,16,z,1,2102,,,,,,,,,,B,2296,4,Vert,0,L among T,681
vs12,ariane,4,4,09Nov2011,1738,mixed,500,624,8000,2,46,5.26475213894,1,L,8,a,1,2651,,,,,,,,,,B,1750,4,Rouge,0,L among T,682
vs12,ariane,4,4,09Nov2011,1738,mixed,500,680,8000,2,47,3.3679087526,1,L,4,z,1,1650,,,,,,,,,,A,1517,0,Vert,0,L among T,683
vs12,ariane,4,4,09Nov2011,1738,mixed,500,641,8000,2,48,0.55798790484,1,L,16,a,1,3385,,,,,,,,,,C,1030,7,Rouge,0,L among T,684
vs12,ariane,4,4,09Nov2011,1738,mixed,500,575,8000,2,49,1.39791185232,1,X,16,z,1,2369,,,,,,,,,,A,1484,0,Vert,0,X among T,685
vs12,ariane,4,4,09Nov2011,1738,mixed,500,469,8000,2,50,6.03539961331,1,L,8,z,1,1518,,,,,,,,,,A,1592,3,Vert,0,L among T,686
vs12,ariane,4,4,09Nov2011,1738,mixed,500,678,8000,2,51,3.13677780932,1,X,8,a,1,2834,,,,,,,,,,A,2383,0,Rouge,0,X among T,687
vs12,ariane,4,4,09Nov2011,1738,mixed,500,536,8000,2,52,5.81130083512,0,X,4,z,1,1429,,,,,,,,,,A,1817,0,Vert,0,X among T,688
vs12,ariane,4,4,09Nov2011,1738,mixed,500,492,8000,2,53,5.06127647693,0,L,16,a,1,3002,,,,,,,,,,D,1066,9,Rouge,0,L among T,689
vs12,ariane,4,4,09Nov2011,1738,mixed,500,675,8000,2,54,6.21896402309,0,X,8,z,1,1152,,,,,,,,,,A,1550,0,Vert,0,X among T,690
vs12,ariane,4,4,09Nov2011,1738,mixed,500,427,8000,2,55,1.14827482048,0,L,8,a,1,1835,,,,,,,,,,B,1517,4,Rouge,0,L among T,691
vs12,ariane,4,4,09Nov2011,1739,mixed,500,670,8000,2,56,5.5224734844,1,L,4,a,1,2884,,,,,,,,,,A,1366,2,Rouge,0,L among T,692
vs12,ariane,4,4,09Nov2011,1739,mixed,500,598,8000,2,57,0.777555407048,1,X,8,z,1,1434,,,,,,,,,,A,1217,1,Vert,0,X among T,693
vs12,ariane,4,4,09Nov2011,1739,mixed,500,458,8000,2,58,2.70340327607,1,X,16,z,1,1153,,,,,,,,,,A,1017,1,Vert,0,X among T,694
vs12,ariane,4,4,09Nov2011,1739,mixed,500,517,8000,2,59,5.33208138608,1,L,4,z,1,3916,,,,,,,,,,A,2662,3,Vert,0,L among T,695
vs12,ariane,4,4,09Nov2011,1739,mixed,500,655,8000,2,60,1.72776229073,0,L,16,z,1,2252,,,,,,,,,,A,2632,3,Vert,0,L among T,696
vs12,ariane,4,4,09Nov2011,1739,mixed,500,637,8000,3,1,1.05485956679,0,L,16,a,1,1766,,,,,,,,,,B,1133,4,Rouge,0,L among T,697
vs12,ariane,4,4,09Nov2011,1739,mixed,500,608,8000,3,2,2.29714212189,0,X,4,z,1,1201,,,,,,,,,,A,1435,3,Vert,0,X among T,698
vs12,ariane,4,4,09Nov2011,1739,mixed,500,450,8000,3,3,5.00567118764,0,X,16,a,1,1736,,,,,,,,,,A,1395,2,Rouge,0,X among T,699
vs12,ariane,4,4,09Nov2011,1740,mixed,500,645,8000,3,4,6.10313085757,1,X,4,a,1,1784,,,,,,,,,,A,2167,2,Rouge,0,X among T,700
vs12,ariane,4,4,09Nov2011,1740,mixed,500,505,8000,3,5,4.67055756246,0,X,4,a,1,767,,,,,,,,,,A,1947,0,Rouge,0,X among T,701
vs12,ariane,4,4,09Nov2011,1740,mixed,500,691,8000,3,6,2.47314571558,0,X,16,z,1,1418,,,,,,,,,,A,1467,2,Vert,0,X among T,702
vs12,ariane,4,4,09Nov2011,1740,mixed,500,583,8000,3,7,1.67818956775,1,X,4,z,1,1435,,,,,,,,,,A,1364,2,Vert,0,X among T,703
vs12,ariane,4,4,09Nov2011,1740,mixed,500,633,8000,3,8,3.48132172888,0,L,8,z,1,3417,,,,,,,,,,C,884,6,Vert,0,L among T,704
vs12,ariane,4,4,09Nov2011,1740,mixed,500,479,8000,3,9,0.910201835942,0,L,8,a,1,3297,,,,,,,,,,C,1451,6,Rouge,0,L among T,705
vs12,ariane,4,4,09Nov2011,1740,mixed,500,472,8000,3,10,1.8449291318,0,L,4,a,1,1683,,,,,,,,,,A,934,0,Rouge,0,L among T,706
vs12,ariane,4,4,09Nov2011,1740,mixed,500,486,8000,3,11,4.96321155033,1,L,4,a,1,2031,,,,,,,,,,A,1066,0,Rouge,0,L among T,707
vs12,ariane,4,4,09Nov2011,1740,mixed,500,608,8000,3,12,1.22203058787,1,X,16,z,1,1184,,,,,,,,,,A,6328,2,Vert,0,X among T,708
vs12,ariane,4,4,09Nov2011,1740,mixed,500,402,8000,3,13,4.49014180089,1,L,8,a,1,1567,,,,,,,,,,A,1167,2,Rouge,0,L among T,709
vs12,ariane,4,4,09Nov2011,1740,mixed,500,633,8000,3,14,0.144083104434,1,X,8,a,1,1414,,,,,,,,,,A,1316,0,Rouge,0,X among T,710
vs12,ariane,4,4,09Nov2011,1740,mixed,500,473,8000,3,15,5.53157897547,0,X,4,a,1,1017,,,,,,,,,,A,1267,0,Rouge,0,X among T,711
vs12,ariane,4,4,09Nov2011,1740,mixed,500,545,8000,3,16,5.41197943632,0,X,16,z,1,935,,,,,,,,,,A,1634,1,Vert,0,X among T,712
vs12,ariane,4,4,09Nov2011,1740,mixed,500,675,8000,3,17,3.14624662042,1,L,8,a,1,3618,,,,,,,,,,B,900,4,Rouge,0,L among T,713
vs12,ariane,4,4,09Nov2011,1740,mixed,500,688,8000,3,18,3.57612776432,1,X,4,a,1,2150,,,,,,,,,,A,1134,3,Rouge,0,X among T,714
vs12,ariane,4,4,09Nov2011,1741,mixed,500,423,8000,3,19,1.33411938319,0,L,8,z,1,2716,,,,,,,,,,D,1033,9,Vert,0,L among T,715
vs12,ariane,4,4,09Nov2011,1741,mixed,500,517,8000,3,20,1.24993579082,0,L,16,z,1,1751,,,,,,,,,,C,1360,6,Vert,0,L among T,716
vs12,ariane,4,4,09Nov2011,1741,mixed,500,575,8000,3,21,6.05919577343,0,X,8,a,1,1184,,,,,,,,,,A,2066,0,Rouge,0,X among T,717
vs12,ariane,4,4,09Nov2011,1741,mixed,500,616,8000,3,22,3.67932771897,1,X,16,a,1,1002,,,,,,,,,,A,1013,0,Rouge,0,X among T,718
vs12,ariane,4,4,09Nov2011,1741,mixed,500,400,8000,3,23,1.42023737646,0,X,16,z,1,1136,,,,,,,,,,A,1684,1,Vert,0,X among T,719
vs12,ariane,4,4,09Nov2011,1741,mixed,500,409,8000,3,24,2.51173668523,1,L,8,a,1,1985,,,,,,,,,,C,2312,6,Rouge,0,L among T,720
vs12,ariane,4,4,09Nov2011,1741,mixed,500,435,8000,3,25,6.17430456346,0,L,4,z,1,1967,,,,,,,,,,A,4133,3,Vert,0,L among T,721
vs12,ariane,4,4,09Nov2011,1741,mixed,500,408,8000,3,26,1.8591692692,1,X,8,z,1,1333,,,,,,,,,,A,1566,0,Vert,0,X among T,722
vs12,ariane,4,4,09Nov2011,1741,mixed,500,508,8000,3,27,5.0188860671,1,X,8,z,1,2818,,,,,,,,,,A,1450,1,Vert,0,X among T,723
vs12,ariane,4,4,09Nov2011,1741,mixed,500,557,8000,3,28,4.92731916352,1,X,8,z,1,934,,,,,,,,,,A,1283,1,Vert,0,X among T,724
vs12,ariane,4,4,09Nov2011,1741,mixed,500,412,8000,3,29,5.5929403539,1,X,8,z,1,801,,,,,,,,,,A,1600,1,Vert,0,X among T,725
vs12,ariane,4,4,09Nov2011,1741,mixed,500,582,8000,3,30,2.33198527666,1,L,16,a,1,1052,,,,,,,,,,A,1178,3,Rouge,0,L among T,726
vs12,ariane,4,4,09Nov2011,1741,mixed,500,433,8000,3,31,6.18090829777,0,X,16,a,1,1302,,,,,,,,,,A,1000,0,Rouge,0,X among T,727
vs12,ariane,4,4,09Nov2011,1741,mixed,500,628,8000,3,32,4.6256504449,1,X,4,z,1,800,,,,,,,,,,A,1750,1,Vert,0,X among T,728
vs12,ariane,4,4,09Nov2011,1741,mixed,500,633,8000,3,33,2.88896494315,0,X,4,z,1,845,,,,,,,,,,A,1049,0,Vert,0,X among T,729
vs12,ariane,4,4,09Nov2011,1741,mixed,500,535,8000,3,34,5.69737947215,0,X,8,a,1,834,,,,,,,,,,A,1133,0,Rouge,0,X among T,730
vs12,ariane,4,4,09Nov2011,1742,mixed,500,445,8000,3,35,3.88868146719,1,X,4,a,1,3445,,,,,,,,,,A,1350,0,Rouge,0,X among T,731
vs12,ariane,4,4,09Nov2011,1742,mixed,500,439,8000,3,36,2.09462481927,1,L,16,z,1,3268,,,,,,,,,,D,1066,9,Vert,0,L among T,732
vs12,ariane,4,4,09Nov2011,1742,mixed,500,509,8000,3,37,3.18188832417,1,L,8,z,1,994,,,,,,,,,,A,1883,3,Vert,0,L among T,733
vs12,ariane,4,4,09Nov2011,1742,mixed,500,684,8000,3,38,4.02534259533,1,L,16,z,1,2469,,,,,,,,,,D,1234,8,Vert,0,L among T,734
vs12,ariane,4,4,09Nov2011,1742,mixed,500,564,8000,3,39,3.30310372959,0,X,8,a,1,796,,,,,,,,,,A,2550,2,Rouge,0,X among T,735
vs12,ariane,4,4,09Nov2011,1742,mixed,500,488,8000,3,40,5.20864713208,0,L,4,a,1,1718,,,,,,,,,,A,933,3,Rouge,0,L among T,736
vs12,ariane,4,4,09Nov2011,1742,mixed,500,446,8000,3,41,5.35458255341,1,X,16,z,1,1202,,,,,,,,,,A,1212,1,Vert,0,X among T,737
vs12,ariane,4,4,09Nov2011,1742,mixed,500,446,8000,3,42,1.02484915541,0,L,16,a,1,2352,,,,,,,,,,B,2216,5,Rouge,0,L among T,738
vs12,ariane,4,4,09Nov2011,1742,mixed,500,444,8000,3,43,5.89482516299,1,L,4,z,1,1445,,,,,,,,,,A,866,0,Vert,0,L among T,739
vs12,ariane,4,4,09Nov2011,1742,mixed,500,572,8000,3,44,5.52331995721,0,L,16,a,1,2485,,,,,,,,,,B,984,5,Rouge,0,L among T,740
vs12,ariane,4,4,09Nov2011,1742,mixed,500,694,8000,3,45,4.45863748627,0,X,8,z,1,1701,,,,,,,,,,A,2746,0,Vert,0,X among T,741
vs12,ariane,4,4,09Nov2011,1742,mixed,500,654,8000,3,46,3.25941070674,1,L,4,a,1,2067,,,,,,,,,,A,3798,0,Rouge,0,L among T,742
vs12,ariane,4,4,09Nov2011,1742,mixed,500,466,8000,3,47,5.29658359012,1,X,16,z,1,1318,,,,,,,,,,A,3316,3,Vert,0,X among T,743
vs12,ariane,4,4,09Nov2011,1743,mixed,500,663,8000,3,48,0.282878025175,1,L,8,a,1,2049,,,,,,,,,,A,4967,3,Rouge,0,L among T,744
vs12,ariane,4,4,09Nov2011,1743,mixed,500,533,8000,3,49,0.27573984142,1,L,16,a,1,1814,,,,,,,,,,A,1966,2,Rouge,0,L among T,745
vs12,ariane,4,4,09Nov2011,1743,mixed,500,598,8000,3,50,1.627439424,0,L,4,z,1,1367,,,,,,,,,,A,1249,3,Vert,0,L among T,746
vs12,ariane,4,4,09Nov2011,1743,mixed,500,449,8000,3,51,0.70678502991,0,L,8,a,1,1949,,,,,,,,,,A,1849,2,Rouge,0,L among T,747
vs12,ariane,4,4,09Nov2011,1743,mixed,500,498,8000,3,52,3.04876262731,1,L,4,z,1,1018,,,,,,,,,,A,4909,2,Vert,0,L among T,748
vs12,ariane,4,4,09Nov2011,1743,mixed,500,529,8000,3,53,2.58132192289,1,L,16,z,1,1536,,,,,,,,,,A,1499,2,Vert,0,L among T,749
vs12,ariane,4,4,09Nov2011,1743,mixed,500,606,8000,3,54,3.83289982333,0,L,4,z,1,1400,,,,,,,,,,A,2865,1,Vert,0,L among T,750
vs12,ariane,4,4,09Nov2011,1743,mixed,500,613,8000,3,55,0.91536855887,1,X,16,a,1,4018,,,,,,,,,,A,2414,0,Rouge,0,X among T,751
vs12,ariane,4,4,09Nov2011,1743,mixed,500,658,8000,3,56,1.2352802692,0,L,16,z,1,2919,,,,,,,,,,C,1150,6,Vert,0,L among T,752
vs12,ariane,4,4,09Nov2011,1743,mixed,500,516,8000,3,57,2.12149101289,0,X,8,a,1,849,,,,,,,,,,A,967,0,Rouge,0,X among T,753
vs12,ariane,4,4,09Nov2011,1743,mixed,500,451,8000,3,58,4.34761147455,0,L,8,z,0,1434,,,,,,,,,,A,4250,2,Rouge,0,L among T,754
vs12,ariane,4,4,09Nov2011,1743,mixed,500,653,8000,3,59,0.295053744056,1,L,4,a,1,1733,,,,,,,,,,A,1900,1,Rouge,0,L among T,755
vs12,ariane,4,4,09Nov2011,1743,mixed,500,501,8000,3,60,2.90197954333,0,X,4,z,1,1100,,,,,,,,,,A,1533,2,Vert,0,X among T,756
vs12,ariane,4,4,09Nov2011,1744,mixed,500,686,8000,4,1,1.00293769664,0,L,8,a,1,3301,,,,,,,,,,A,1593,2,Rouge,0,L among T,757
vs12,ariane,4,4,09Nov2011,1744,mixed,500,520,8000,4,2,4.20236858216,1,L,4,a,1,1133,,,,,,,,,,A,2417,3,Rouge,0,L among T,758
vs12,ariane,4,4,09Nov2011,1744,mixed,500,679,8000,4,3,2.55899842206,1,L,16,z,1,1967,,,,,,,,,,A,1033,2,Vert,0,L among T,759
vs12,ariane,4,4,09Nov2011,1744,mixed,500,689,8000,4,4,4.12522422059,1,X,16,a,1,1552,,,,,,,,,,A,982,0,Rouge,0,X among T,760
vs12,ariane,4,4,09Nov2011,1744,mixed,500,462,8000,4,5,3.54418904256,1,X,8,z,1,1018,,,,,,,,,,A,1433,1,Vert,0,X among T,761
vs12,ariane,4,4,09Nov2011,1744,mixed,500,507,8000,4,6,2.52885235464,1,X,16,a,1,2902,,,,,,,,,,A,3533,1,Rouge,0,X among T,762
vs12,ariane,4,4,09Nov2011,1744,mixed,500,587,8000,4,7,2.37333149433,1,X,4,z,1,1865,,,,,,,,,,A,1234,2,Vert,0,X among T,763
vs12,ariane,4,4,09Nov2011,1744,mixed,500,449,8000,4,8,6.12848511136,0,L,4,a,1,1717,,,,,,,,,,A,1867,2,Rouge,0,L among T,764
vs12,ariane,4,4,09Nov2011,1745,mixed,500,667,8000,4,9,5.7713215546,0,X,16,z,1,964,,,,,,,,,,A,1666,2,Vert,0,X among T,765
vs12,ariane,4,4,09Nov2011,1745,mixed,500,546,8000,4,10,2.16387951105,0,L,16,a,1,2568,,,,,,,,,,C,1050,7,Rouge,0,L among T,766
vs12,ariane,4,4,09Nov2011,1745,mixed,500,461,8000,4,11,5.02780055734,1,L,8,a,1,1815,,,,,,,,,,B,1283,4,Rouge,0,L among T,767
vs12,ariane,4,4,09Nov2011,1745,mixed,500,417,8000,4,12,1.8060985982,0,X,4,a,1,1534,,,,,,,,,,A,1650,0,Rouge,0,X among T,768
vs12,ariane,4,4,09Nov2011,1745,mixed,500,452,8000,4,13,1.66036335692,1,L,4,a,1,1548,,,,,,,,,,A,3033,1,Rouge,0,L among T,769
vs12,ariane,4,4,09Nov2011,1745,mixed,500,617,8000,4,14,5.60501157,1,L,4,z,1,968,,,,,,,,,,A,1533,0,Vert,0,L among T,770
vs12,ariane,4,4,09Nov2011,1745,mixed,500,670,8000,4,15,4.83227692828,1,L,4,a,1,1563,,,,,,,,,,A,1450,1,Rouge,0,L among T,771
vs12,ariane,4,4,09Nov2011,1745,mixed,500,458,8000,4,16,0.447288049693,0,X,8,a,1,818,,,,,,,,,,A,1183,0,Rouge,0,X among T,772
vs12,ariane,4,4,09Nov2011,1745,mixed,500,565,8000,4,17,2.96011659873,1,X,8,z,1,801,,,,,,,,,,A,1797,0,Vert,0,X among T,773
vs12,ariane,4,4,09Nov2011,1745,mixed,500,533,8000,4,18,3.90884427808,0,L,4,a,1,1433,,,,,,,,,,A,2100,2,Rouge,0,L among T,774
vs12,ariane,4,4,09Nov2011,1745,mixed,500,695,8000,4,19,1.5934981365,1,L,16,z,1,3162,,,,,,,,,,C,1417,6,Vert,0,L among T,775
vs12,ariane,4,4,09Nov2011,1745,mixed,500,474,8000,4,20,5.13310545663,0,L,8,a,1,2585,,,,,,,,,,B,1166,4,Rouge,0,L among T,776
vs12,ariane,4,4,09Nov2011,1745,mixed,500,610,8000,4,21,0.0626428908315,0,X,4,z,1,1347,,,,,,,,,,A,3217,2,Vert,0,X among T,777
vs12,ariane,4,4,09Nov2011,1745,mixed,500,573,8000,4,22,1.94890785029,1,L,16,z,1,1418,,,,,,,,,,B,1532,4,Vert,0,L among T,778
vs12,ariane,4,4,09Nov2011,1745,mixed,500,517,8000,4,23,1.64649386172,1,X,4,a,1,2200,,,,,,,,,,A,2367,0,Rouge,0,X among T,779
vs12,ariane,4,4,09Nov2011,1746,mixed,500,584,8000,4,24,1.24536028501,1,L,8,a,1,2746,,,,,,,,,,C,1450,7,Rouge,0,L among T,780
vs12,ariane,4,4,09Nov2011,1746,mixed,500,493,8000,4,25,5.9212805738,0,L,16,a,1,4967,,,,,,,,,,C,1712,7,Rouge,0,L among T,781
vs12,ariane,4,4,09Nov2011,1746,mixed,500,578,8000,4,26,4.29907761554,1,X,4,z,1,1368,,,,,,,,,,A,2201,0,Vert,0,X among T,782
vs12,ariane,4,4,09Nov2011,1746,mixed,500,419,8000,4,27,1.30157708148,0,X,16,a,1,1469,,,,,,,,,,A,1195,0,Rouge,0,X among T,783
vs12,ariane,4,4,09Nov2011,1746,mixed,500,571,8000,4,28,4.85888085659,0,L,8,a,1,1918,,,,,,,,,,A,1950,3,Rouge,0,L among T,784
vs12,ariane,4,4,09Nov2011,1746,mixed,500,668,8000,4,29,3.82413712371,1,X,4,z,1,1401,,,,,,,,,,A,3144,0,Vert,0,X among T,785
vs12,ariane,4,4,09Nov2011,1746,mixed,500,555,8000,4,30,2.05154498269,0,X,16,a,1,1185,,,,,,,,,,A,2199,0,Rouge,0,X among T,786
vs12,ariane,4,4,09Nov2011,1746,mixed,500,506,8000,4,31,6.26695381122,1,X,16,z,1,847,,,,,,,,,,A,1433,0,Vert,0,X among T,787
vs12,ariane,4,4,09Nov2011,1746,mixed,500,638,8000,4,32,3.42693383466,1,L,16,a,1,1836,,,,,,,,,,A,1033,1,Rouge,0,L among T,788
vs12,ariane,4,4,09Nov2011,1746,mixed,500,406,8000,4,33,1.06369323613,0,L,8,z,1,2146,,,,,,,,,,A,3067,3,Vert,0,L among T,789
vs12,ariane,4,4,09Nov2011,1746,mixed,500,441,8000,4,34,0.859048479759,0,L,8,a,1,1917,,,,,,,,,,A,1617,3,Rouge,0,L among T,790
vs12,ariane,4,4,09Nov2011,1746,mixed,500,523,8000,4,35,3.18514278005,1,L,8,z,1,2450,,,,,,,,,,A,1367,0,Vert,0,L among T,791
vs12,ariane,4,4,09Nov2011,1746,mixed,500,579,8000,4,36,5.10364355648,0,X,8,a,1,1451,,,,,,,,,,A,983,0,Rouge,0,X among T,792
vs12,ariane,4,4,09Nov2011,1746,mixed,500,504,8000,4,37,4.46084888774,1,L,4,a,1,1151,,,,,,,,,,A,1166,2,Rouge,0,L among T,793
vs12,ariane,4,4,09Nov2011,1747,mixed,500,481,8000,4,38,1.60783022658,0,X,8,a,1,1534,,,,,,,,,,A,1267,0,Rouge,0,X among T,794
vs12,ariane,4,4,09Nov2011,1747,mixed,500,525,8000,4,39,2.75175555287,1,X,8,a,1,868,,,,,,,,,,A,765,0,Rouge,0,X among T,795
vs12,ariane,4,4,09Nov2011,1747,mixed,500,421,8000,4,40,0.72384858431,1,L,8,z,1,2317,,,,,,,,,,C,1183,6,Vert,0,L among T,796
vs12,ariane,4,4,09Nov2011,1747,mixed,500,657,8000,4,41,6.00663672995,1,X,8,z,1,1168,,,,,,,,,,A,2763,2,Vert,0,X among T,797
vs12,ariane,4,4,09Nov2011,1747,mixed,500,542,8000,4,42,5.38489706626,0,X,8,a,1,784,,,,,,,,,,A,982,0,Rouge,0,X among T,798
vs12,ariane,4,4,09Nov2011,1747,mixed,500,555,8000,4,43,0.542799467326,1,X,4,a,1,918,,,,,,,,,,A,933,0,Rouge,0,X among T,799
vs12,ariane,4,4,09Nov2011,1747,mixed,500,575,8000,4,44,3.57056765665,0,L,4,z,1,1632,,,,,,,,,,A,1801,2,Vert,0,L among T,800
vs12,ariane,4,4,09Nov2011,1747,mixed,500,431,8000,4,45,0.126686189912,0,X,16,z,1,1102,,,,,,,,,,A,1632,2,Vert,0,X among T,801
vs12,ariane,4,4,09Nov2011,1747,mixed,500,443,8000,4,46,5.06747187227,1,L,8,z,1,3381,,,,,,,,,,C,734,6,Vert,0,L among T,802
vs12,ariane,4,4,09Nov2011,1747,mixed,500,695,8000,4,47,0.959383061845,0,L,16,z,1,1652,,,,,,,,,,B,1100,4,Vert,0,L among T,803
vs12,ariane,4,4,09Nov2011,1747,mixed,500,422,8000,4,48,5.94514001199,0,X,4,z,1,917,,,,,,,,,,A,1011,0,Vert,0,X among T,804
vs12,ariane,4,4,09Nov2011,1747,mixed,500,507,8000,4,49,2.9909629242,1,X,16,a,1,1186,,,,,,,,,,A,1134,0,Rouge,0,X among T,805
vs12,ariane,4,4,09Nov2011,1747,mixed,500,553,8000,4,50,1.99558595587,0,X,16,a,1,669,,,,,,,,,,A,1066,0,Rouge,0,X among T,806
vs12,ariane,4,4,09Nov2011,1747,mixed,500,472,8000,4,51,4.02529068764,0,L,16,a,1,1448,,,,,,,,,,A,1083,3,Rouge,0,L among T,807
vs12,ariane,4,4,09Nov2011,1747,mixed,500,564,8000,4,52,2.86544821558,0,L,4,z,1,2317,,,,,,,,,,B,1200,5,Vert,0,L among T,808
vs12,ariane,4,4,09Nov2011,1747,mixed,500,428,8000,4,53,6.21071656811,1,L,16,z,1,3045,,,,,,,,,,C,934,6,Vert,0,L among T,809
vs12,ariane,4,4,09Nov2011,1747,mixed,500,410,8000,4,54,0.160823306462,1,X,16,z,1,969,,,,,,,,,,A,1116,0,Vert,0,X among T,810
vs12,ariane,4,4,09Nov2011,1747,mixed,500,672,8000,4,55,6.08508382352,0,X,8,a,1,850,,,,,,,,,,A,1117,0,Rouge,0,X among T,811
vs12,ariane,4,4,09Nov2011,1748,mixed,500,537,8000,4,56,1.51955923302,0,L,16,z,1,2219,,,,,,,,,,B,882,4,Vert,0,L among T,812
